mouse_4.x,mouse_4.y,mouse_4.leftButton,mouse_4.midButton,mouse_4.rightButton,mouse.x,mouse.y,mouse.leftButton,mouse.midButton,mouse.rightButton,mouse_2.x,mouse_2.y,mouse_2.leftButton,mouse_2.midButton,mouse_2.rightButton,mouse_3.x,mouse_3.y,mouse_3.leftButton,mouse_3.midButton,mouse_3.rightButton,A_key_resp.keys,A_key_resp.rt,key_resp.keys,key_resp.rt,trials.thisRepN,trials.thisTrialN,trials.thisN,trials.thisIndex,trials.ran,trials.order,word,ParticipantID,date,expName,psychopyVersion,OS,frameRate
0.001851935,-0.008333348,1,0,0,0.001851935,-0.008333348,1,0,0,-0.503703692,0.036111097,1,0,0,-0.503703692,0.036111097,1,0,0,1,4.700000048,6,10.81900001,1,0,1200,840,1,1199,cuisine,11116,2019-10-21_21h28.22.060,SurveyExpMetaMem,3.2.3,Win32,60
,,,,,,,,,,,,,,,,,,,,6,6.410000086,3,2.390000105,1,0,1200,462,1,1199,shallow,11116,2019-10-21_21h28.22.060,SurveyExpMetaMem,3.2.3,Win32,60
,,,,,,,,,,,,,,,,,,,,8,4.486000299,7,2.511000156,1,0,1200,163,1,1199,gem,11116,2019-10-21_21h28.22.060,SurveyExpMetaMem,3.2.3,Win32,60
,,,,,,,,,,,,,,,,,,,,5,2.407000065,7,3.476000071,1,0,1200,210,1,1199,elephant,11116,2019-10-21_21h28.22.060,SurveyExpMetaMem,3.2.3,Win32,60
,,,,,,,,,,,,,,,,,,,,7,2.931000233,1,1.895000219,1,0,1200,1003,1,1199,jealousy,11116,2019-10-21_21h28.22.060,SurveyExpMetaMem,3.2.3,Win32,60
,,,,,,,,,,,,,,,,,,,,9,4.069000244,1,3.120000124,1,0,1200,1002,1,1199,wounds,11116,2019-10-21_21h28.22.060,SurveyExpMetaMem,3.2.3,Win32,60
,,,,,,,,,,,,,,,,,,,,7,7.595000267,5,2.22300005,1,0,1200,1107,1,1199,snake,11116,2019-10-21_21h28.22.060,SurveyExpMetaMem,3.2.3,Win32,60
,,,,,,,,,,,,,,,,,,,,5,2.752000332,5,0.646000147,1,0,1200,564,1,1199,wane,11116,2019-10-21_21h28.22.060,SurveyExpMetaMem,3.2.3,Win32,60
,,,,,,,,,,,,,,,,,,,,7,2.736000299,9,1.016000032,1,0,1200,218,1,1199,charming,11116,2019-10-21_21h28.22.060,SurveyExpMetaMem,3.2.3,Win32,60
,,,,,,,,,,,,,,,,,,,,7,2.360000134,3,24.41700006,1,0,1200,326,1,1199,scam,11116,2019-10-21_21h28.22.060,SurveyExpMetaMem,3.2.3,Win32,60
,,,,,,,,,,,,,,,,,,,,5,1.302000046,5,0.396000147,1,0,1200,657,1,1199,peanut,11116,2019-10-21_21h28.22.060,SurveyExpMetaMem,3.2.3,Win32,60
,,,,,,,,,,,,,,,,,,,,7,1.478000164,2,0.7900002,1,0,1200,1055,1,1199,alarm,11116,2019-10-21_21h28.22.060,SurveyExpMetaMem,3.2.3,Win32,60
,,,,,,,,,,,,,,,,,,,,8,2.456000328,3,1.703000307,1,0,1200,1065,1,1199,slap,11116,2019-10-21_21h28.22.060,SurveyExpMetaMem,3.2.3,Win32,60
,,,,,,,,,,,,,,,,,,,,5,1.604000092,5,0.376000166,1,0,1200,1155,1,1199,tangle,11116,2019-10-21_21h28.22.060,SurveyExpMetaMem,3.2.3,Win32,60
,,,,,,,,,,,,,,,,,,,,5,0.826000214,5,0.258000135,1,0,1200,812,1,1199,harp,11116,2019-10-21_21h28.22.060,SurveyExpMetaMem,3.2.3,Win32,60
,,,,,,,,,,,,,,,,,,,,5,0.62100029,3,8.505000114,1,0,1200,1192,1,1199,startled,11116,2019-10-21_21h28.22.060,SurveyExpMetaMem,3.2.3,Win32,60
,,,,,,,,,,,,,,,,,,,,7,2.833000183,1,0.908000231,1,0,1200,318,1,1199,disappointment,11116,2019-10-21_21h28.22.060,SurveyExpMetaMem,3.2.3,Win32,60
,,,,,,,,,,,,,,,,,,,,8,2.390000105,1,0.904999971,1,0,1200,928,1,1199,cruel,11116,2019-10-21_21h28.22.060,SurveyExpMetaMem,3.2.3,Win32,60
,,,,,,,,,,,,,,,,,,,,5,1.08100009,5,0.226000071,1,0,1200,598,1,1199,feet,11116,2019-10-21_21h28.22.060,SurveyExpMetaMem,3.2.3,Win32,60
,,,,,,,,,,,,,,,,,,,,5,1.339000225,5,0.194000006,1,0,1200,531,1,1199,omit,11116,2019-10-21_21h28.22.060,SurveyExpMetaMem,3.2.3,Win32,60
,,,,,,,,,,,,,,,,,,,,5,0.756000042,5,0.173000336,1,0,1200,455,1,1199,chubby,11116,2019-10-21_21h28.22.060,SurveyExpMetaMem,3.2.3,Win32,60
,,,,,,,,,,,,,,,,,,,,5,0.954000235,5,0.17200017,1,0,1200,64,1,1199,brain,11116,2019-10-21_21h28.22.060,SurveyExpMetaMem,3.2.3,Win32,60
,,,,,,,,,,,,,,,,,,,,9,2.492000103,1,0.752000093,1,0,1200,1171,1,1199,chaos,11116,2019-10-21_21h28.22.060,SurveyExpMetaMem,3.2.3,Win32,60
,,,,,,,,,,,,,,,,,,,,6,3.589000225,3,0.84100008,1,0,1200,167,1,1199,casino,11116,2019-10-21_21h28.22.060,SurveyExpMetaMem,3.2.3,Win32,60
,,,,,,,,,,,,,,,,,,,,5,1.304000139,5,0.309000254,1,0,1200,506,1,1199,lower,11116,2019-10-21_21h28.22.060,SurveyExpMetaMem,3.2.3,Win32,60
,,,,,,,,,,,,,,,,,,,,5,0.54700017,5,0.464000225,1,0,1200,1054,1,1199,jealous,11116,2019-10-21_21h28.22.060,SurveyExpMetaMem,3.2.3,Win32,60
,,,,,,,,,,,,,,,,,,,,5,0.857000113,5,0.197000027,1,0,1200,674,1,1199,fitting,11116,2019-10-21_21h28.22.060,SurveyExpMetaMem,3.2.3,Win32,60
,,,,,,,,,,,,,,,,,,,,5,0.552999973,5,0.187000036,1,0,1200,348,1,1199,impotent,11116,2019-10-21_21h28.22.060,SurveyExpMetaMem,3.2.3,Win32,60
,,,,,,,,,,,,,,,,,,,,5,0.641000032,5,0.188000202,1,0,1200,806,1,1199,tree,11116,2019-10-21_21h28.22.060,SurveyExpMetaMem,3.2.3,Win32,60
,,,,,,,,,,,,,,,,,,,,5,0.704000235,5,0.179000139,1,0,1200,226,1,1199,prize,11116,2019-10-21_21h28.22.060,SurveyExpMetaMem,3.2.3,Win32,60
,,,,,,,,,,,,,,,,,,,,8,1.680000305,9,1.421000004,1,0,1200,40,1,1199,kissing,11116,2019-10-21_21h28.22.060,SurveyExpMetaMem,3.2.3,Win32,60
,,,,,,,,,,,,,,,,,,,,6,2.769999981,9,0.909000158,1,0,1200,124,1,1199,honeymoon,11116,2019-10-21_21h28.22.060,SurveyExpMetaMem,3.2.3,Win32,60
,,,,,,,,,,,,,,,,,,,,5,3.686000347,5,0.527000189,1,0,1200,808,1,1199,violinist,11116,2019-10-21_21h28.22.060,SurveyExpMetaMem,3.2.3,Win32,60
,,,,,,,,,,,,,,,,,,,,5,0.743000031,5,0.22900033,1,0,1200,708,1,1199,nursery,11116,2019-10-21_21h28.22.060,SurveyExpMetaMem,3.2.3,Win32,60
,,,,,,,,,,,,,,,,,,,,5,0.843000174,5,0.207000017,1,0,1200,626,1,1199,pan,11116,2019-10-21_21h28.22.060,SurveyExpMetaMem,3.2.3,Win32,60
,,,,,,,,,,,,,,,,,,,,6,8.657999992,9,0.659000158,1,0,1200,884,1,1199,grateful,11116,2019-10-21_21h28.22.060,SurveyExpMetaMem,3.2.3,Win32,60
,,,,,,,,,,,,,,,,,,,,5,2.355000019,5,0.22300005,1,0,1200,71,1,1199,spirit,11116,2019-10-21_21h28.22.060,SurveyExpMetaMem,3.2.3,Win32,60
,,,,,,,,,,,,,,,,,,,,5,0.78000021,5,0.177000046,1,0,1200,866,1,1199,haven,11116,2019-10-21_21h28.22.060,SurveyExpMetaMem,3.2.3,Win32,60
,,,,,,,,,,,,,,,,,,,,5,0.660000086,5,0.188000202,1,0,1200,7,1,1199,duet,11116,2019-10-21_21h28.22.060,SurveyExpMetaMem,3.2.3,Win32,60
,,,,,,,,,,,,,,,,,,,,5,0.543000221,5,0.192000151,1,0,1200,442,1,1199,foolish,11116,2019-10-21_21h28.22.060,SurveyExpMetaMem,3.2.3,Win32,60
,,,,,,,,,,,,,,,,,,,,5,0.728000164,5,0.205000162,1,0,1200,280,1,1199,cookout,11116,2019-10-21_21h28.22.060,SurveyExpMetaMem,3.2.3,Win32,60
,,,,,,,,,,,,,,,,,,,,5,0.82400012,5,0.166000366,1,0,1200,278,1,1199,king,11116,2019-10-21_21h28.22.060,SurveyExpMetaMem,3.2.3,Win32,60
,,,,,,,,,,,,,,,,,,,,5,0.670000076,5,0.194000006,1,0,1200,649,1,1199,donkey,11116,2019-10-21_21h28.22.060,SurveyExpMetaMem,3.2.3,Win32,60
,,,,,,,,,,,,,,,,,,,,5,0.657000065,5,0.174000025,1,0,1200,158,1,1199,engage,11116,2019-10-21_21h28.22.060,SurveyExpMetaMem,3.2.3,Win32,60
,,,,,,,,,,,,,,,,,,,,6,2.285000086,3,0.683000088,1,0,1200,919,1,1199,loss,11116,2019-10-21_21h28.22.060,SurveyExpMetaMem,3.2.3,Win32,60
,,,,,,,,,,,,,,,,,,,,5,1.588999987,5,0.370000124,1,0,1200,423,1,1199,stain,11116,2019-10-21_21h28.22.060,SurveyExpMetaMem,3.2.3,Win32,60
,,,,,,,,,,,,,,,,,,,,5,1.364000082,9,0.52699995,1,0,1200,731,1,1199,decency,11116,2019-10-21_21h28.22.060,SurveyExpMetaMem,3.2.3,Win32,60
,,,,,,,,,,,,,,,,,,,,5,0.886000156,4,1.861000061,1,0,1200,477,1,1199,separate,11116,2019-10-21_21h28.22.060,SurveyExpMetaMem,3.2.3,Win32,60
,,,,,,,,,,,,,,,,,,,,5,1.118000269,7,0.492000341,1,0,1200,872,1,1199,dignified,11116,2019-10-21_21h28.22.060,SurveyExpMetaMem,3.2.3,Win32,60
,,,,,,,,,,,,,,,,,,,,5,0.93900013,5,0.357000351,1,0,1200,542,1,1199,loose,11116,2019-10-21_21h28.22.060,SurveyExpMetaMem,3.2.3,Win32,60
,,,,,,,,,,,,,,,,,,,,5,1.058000088,5,0.209000349,1,0,1200,212,1,1199,belief,11116,2019-10-21_21h28.22.060,SurveyExpMetaMem,3.2.3,Win32,60
,,,,,,,,,,,,,,,,,,,,5,0.67200017,5,0.173000336,1,0,1200,1145,1,1199,officer,11116,2019-10-21_21h28.22.060,SurveyExpMetaMem,3.2.3,Win32,60
,,,,,,,,,,,,,,,,,,,,5,0.638000011,5,0.058000088,1,0,1200,992,1,1199,addict,11116,2019-10-21_21h28.22.060,SurveyExpMetaMem,3.2.3,Win32,60
,,,,,,,,,,,,,,,,,,,,5,0.200000048,5,0.56400013,1,0,1200,555,1,1199,school,11116,2019-10-21_21h28.22.060,SurveyExpMetaMem,3.2.3,Win32,60
,,,,,,,,,,,,,,,,,,,,8,3.739000082,2,0.343000174,1,0,1200,912,1,1199,rabies,11116,2019-10-21_21h28.22.060,SurveyExpMetaMem,3.2.3,Win32,60
,,,,,,,,,,,,,,,,,,,,5,1.352000237,5,0.177999973,1,0,1200,375,1,1199,manure,11116,2019-10-21_21h28.22.060,SurveyExpMetaMem,3.2.3,Win32,60
,,,,,,,,,,,,,,,,,,,,5,0.657000065,5,0.177000046,1,0,1200,621,1,1199,chew,11116,2019-10-21_21h28.22.060,SurveyExpMetaMem,3.2.3,Win32,60
,,,,,,,,,,,,,,,,,,,,5,0.654000282,5,0.160000324,1,0,1200,1103,1,1199,mob,11116,2019-10-21_21h28.22.060,SurveyExpMetaMem,3.2.3,Win32,60
,,,,,,,,,,,,,,,,,,,,5,0.770000219,5,0.190000057,1,0,1200,955,1,1199,drown,11116,2019-10-21_21h28.22.060,SurveyExpMetaMem,3.2.3,Win32,60
,,,,,,,,,,,,,,,,,,,,5,3.325999975,5,1.489000082,1,0,1200,608,1,1199,carrot,11116,2019-10-21_21h28.22.060,SurveyExpMetaMem,3.2.3,Win32,60
,,,,,,,,,,,,,,,,,,,,5,8.641000271,1,1.334000349,1,0,1200,923,1,1199,punish,11116,2019-10-21_21h28.22.060,SurveyExpMetaMem,3.2.3,Win32,60
,,,,,,,,,,,,,,,,,,,,5,1.6650002,8,0.418000221,1,0,1200,268,1,1199,tickle,11116,2019-10-21_21h28.22.060,SurveyExpMetaMem,3.2.3,Win32,60
,,,,,,,,,,,,,,,,,,,,5,4.675000191,5,0.651000261,1,0,1200,334,1,1199,trash,11116,2019-10-21_21h28.22.060,SurveyExpMetaMem,3.2.3,Win32,60
,,,,,,,,,,,,,,,,,,,,5,0.819000244,5,0.221000195,1,0,1200,613,1,1199,cup,11116,2019-10-21_21h28.22.060,SurveyExpMetaMem,3.2.3,Win32,60
,,,,,,,,,,,,,,,,,,,,5,0.705000162,5,0.159000158,1,0,1200,611,1,1199,herring,11116,2019-10-21_21h28.22.060,SurveyExpMetaMem,3.2.3,Win32,60
,,,,,,,,,,,,,,,,,,,,5,0.455000162,5,0.193000078,1,0,1200,249,1,1199,award,11116,2019-10-21_21h28.22.060,SurveyExpMetaMem,3.2.3,Win32,60
,,,,,,,,,,,,,,,,,,,,5,0.87100029,5,0.140000105,1,0,1200,512,1,1199,insect,11116,2019-10-21_21h28.22.060,SurveyExpMetaMem,3.2.3,Win32,60
,,,,,,,,,,,,,,,,,,,,5,0.762000084,5,0.174000263,1,0,1200,110,1,1199,animal,11116,2019-10-21_21h28.22.060,SurveyExpMetaMem,3.2.3,Win32,60
,,,,,,,,,,,,,,,,,,,,5,1.024000168,5,0.181000233,1,0,1200,791,1,1199,shoes,11116,2019-10-21_21h28.22.060,SurveyExpMetaMem,3.2.3,Win32,60
,,,,,,,,,,,,,,,,,,,,5,2.588999987,7,1.548000097,1,0,1200,775,1,1199,pancakes,11116,2019-10-21_21h28.22.060,SurveyExpMetaMem,3.2.3,Win32,60
,,,,,,,,,,,,,,,,,,,,5,1.241000175,5,0.265000105,1,0,1200,522,1,1199,cleft,11116,2019-10-21_21h28.22.060,SurveyExpMetaMem,3.2.3,Win32,60
,,,,,,,,,,,,,,,,,,,,5,1.603000164,5,0.205000162,1,0,1200,46,1,1199,god,11116,2019-10-21_21h28.22.060,SurveyExpMetaMem,3.2.3,Win32,60
,,,,,,,,,,,,,,,,,,,,5,1.453999996,5,0.256000042,1,0,1200,50,1,1199,bolt,11116,2019-10-21_21h28.22.060,SurveyExpMetaMem,3.2.3,Win32,60
,,,,,,,,,,,,,,,,,,,,5,4.451000214,7,2.174000025,1,0,1200,420,1,1199,smoke,11116,2019-10-21_21h28.22.060,SurveyExpMetaMem,3.2.3,Win32,60
,,,,,,,,,,,,,,,,,,,,5,2.302000046,5,0.235000372,1,0,1200,687,1,1199,skinny,11116,2019-10-21_21h28.22.060,SurveyExpMetaMem,3.2.3,Win32,60
,,,,,,,,,,,,,,,,,,,,7,3.745000124,3,1.027000189,1,0,1200,1064,1,1199,sinful,11116,2019-10-21_21h28.22.060,SurveyExpMetaMem,3.2.3,Win32,60
,,,,,,,,,,,,,,,,,,,,7,2.376000166,5,0.815999985,1,0,1200,204,1,1199,crazy,11116,2019-10-21_21h28.22.060,SurveyExpMetaMem,3.2.3,Win32,60
,,,,,,,,,,,,,,,,,,,,3,3.718000174,3,5.738000154,1,0,1200,541,1,1199,apathy,11116,2019-10-21_21h28.22.060,SurveyExpMetaMem,3.2.3,Win32,60
,,,,,,,,,,,,,,,,,,,,7,2.474000216,3,0.90500021,1,0,1200,1076,1,1199,embarrassed,11116,2019-10-21_21h28.22.060,SurveyExpMetaMem,3.2.3,Win32,60
,,,,,,,,,,,,,,,,,,,,5,1.249000072,5,0.190000057,1,0,1200,101,1,1199,alien,11116,2019-10-21_21h28.22.060,SurveyExpMetaMem,3.2.3,Win32,60
,,,,,,,,,,,,,,,,,,,,6,3.254000187,3,0.640000105,1,0,1200,927,1,1199,jail,11116,2019-10-21_21h28.22.060,SurveyExpMetaMem,3.2.3,Win32,60
,,,,,,,,,,,,,,,,,,,,8,2.860000372,7,2.743000031,1,0,1200,10,1,1199,cheerleader,11116,2019-10-21_21h28.22.060,SurveyExpMetaMem,3.2.3,Win32,60
,,,,,,,,,,,,,,,,,,,,5,1.303000212,5,0.188000202,1,0,1200,34,1,1199,personality,11116,2019-10-21_21h28.22.060,SurveyExpMetaMem,3.2.3,Win32,60
,,,,,,,,,,,,,,,,,,,,5,1.041000128,5,0.239000082,1,0,1200,1109,1,1199,germ,11116,2019-10-21_21h28.22.060,SurveyExpMetaMem,3.2.3,Win32,60
,,,,,,,,,,,,,,,,,,,,5,0.705000162,5,0.188000202,1,0,1200,702,1,1199,den,11116,2019-10-21_21h28.22.060,SurveyExpMetaMem,3.2.3,Win32,60
,,,,,,,,,,,,,,,,,,,,5,0.579000235,5,0.196000338,1,0,1200,732,1,1199,humble,11116,2019-10-21_21h28.22.060,SurveyExpMetaMem,3.2.3,Win32,60
,,,,,,,,,,,,,,,,,,,,7,2.471000195,7,1.354000092,1,0,1200,1129,1,1199,spanking,11116,2019-10-21_21h28.22.060,SurveyExpMetaMem,3.2.3,Win32,60
,,,,,,,,,,,,,,,,,,,,8,1.631000042,8,0.413000107,1,0,1200,276,1,1199,pastry,11116,2019-10-21_21h28.22.060,SurveyExpMetaMem,3.2.3,Win32,60
,,,,,,,,,,,,,,,,,,,,8,2.935000181,1,0.953000307,1,0,1200,926,1,1199,dead,11116,2019-10-21_21h28.22.060,SurveyExpMetaMem,3.2.3,Win32,60
,,,,,,,,,,,,,,,,,,,,5,1.722000122,5,0.190000296,1,0,1200,1119,1,1199,confusion,11116,2019-10-21_21h28.22.060,SurveyExpMetaMem,3.2.3,Win32,60
,,,,,,,,,,,,,,,,,,,,5,0.670000076,5,0.160000086,1,0,1200,877,1,1199,bless,11116,2019-10-21_21h28.22.060,SurveyExpMetaMem,3.2.3,Win32,60
,,,,,,,,,,,,,,,,,,,,5,0.521000147,5,0.204000235,1,0,1200,514,1,1199,defer,11116,2019-10-21_21h28.22.060,SurveyExpMetaMem,3.2.3,Win32,60
,,,,,,,,,,,,,,,,,,,,5,0.616000175,5,0.200000286,1,0,1200,257,1,1199,cockpit,11116,2019-10-21_21h28.22.060,SurveyExpMetaMem,3.2.3,Win32,60
,,,,,,,,,,,,,,,,,,,,8,2.019000053,1,0.622000217,1,0,1200,1058,1,1199,bloody,11116,2019-10-21_21h28.22.060,SurveyExpMetaMem,3.2.3,Win32,60
,,,,,,,,,,,,,,,,,,,,5,0.989000082,5,0.190000057,1,0,1200,741,1,1199,wheat,11116,2019-10-21_21h28.22.060,SurveyExpMetaMem,3.2.3,Win32,60
,,,,,,,,,,,,,,,,,,,,5,0.712000132,5,0.196000099,1,0,1200,266,1,1199,juice,11116,2019-10-21_21h28.22.060,SurveyExpMetaMem,3.2.3,Win32,60
,,,,,,,,,,,,,,,,,,,,5,0.839000225,5,0.210000277,1,0,1200,386,1,1199,pale,11116,2019-10-21_21h28.22.060,SurveyExpMetaMem,3.2.3,Win32,60
,,,,,,,,,,,,,,,,,,,,8,1.285000324,2,0.970000029,1,0,1200,976,1,1199,tumor,11116,2019-10-21_21h28.22.060,SurveyExpMetaMem,3.2.3,Win32,60
,,,,,,,,,,,,,,,,,,,,7,3.001000166,3,0.887000322,1,0,1200,1161,1,1199,shock,11116,2019-10-21_21h28.22.060,SurveyExpMetaMem,3.2.3,Win32,60
,,,,,,,,,,,,,,,,,,,,5,1.171000004,5,0.151000261,1,0,1200,251,1,1199,meteor,11116,2019-10-21_21h28.22.060,SurveyExpMetaMem,3.2.3,Win32,60
,,,,,,,,,,,,,,,,,,,,5,0.595999956,5,0.180000305,1,0,1200,831,1,1199,sofa,11116,2019-10-21_21h28.22.060,SurveyExpMetaMem,3.2.3,Win32,60
,,,,,,,,,,,,,,,,,,,,5,0.492000103,5,0.183000088,1,0,1200,178,1,1199,alive,11116,2019-10-21_21h28.22.060,SurveyExpMetaMem,3.2.3,Win32,60
,,,,,,,,,,,,,,,,,,,,5,0.518000126,5,0.389000177,1,0,1200,282,1,1199,luck,11116,2019-10-21_21h28.22.060,SurveyExpMetaMem,3.2.3,Win32,60
,,,,,,,,,,,,,,,,,,,,5,0.610000134,5,0.175000191,1,0,1200,672,1,1199,ketchup,11116,2019-10-21_21h28.22.060,SurveyExpMetaMem,3.2.3,Win32,60
,,,,,,,,,,,,,,,,,,,,5,0.455000162,5,0.139000177,1,0,1200,696,1,1199,rink,11116,2019-10-21_21h28.22.060,SurveyExpMetaMem,3.2.3,Win32,60
,,,,,,,,,,,,,,,,,,,,5,0.623000145,5,0.162000179,1,0,1200,640,1,1199,cabin,11116,2019-10-21_21h28.22.060,SurveyExpMetaMem,3.2.3,Win32,60
,,,,,,,,,,,,,,,,,,,,5,1.854000092,5,0.196000338,1,0,1200,174,1,1199,snow,11116,2019-10-21_21h28.22.060,SurveyExpMetaMem,3.2.3,Win32,60
,,,,,,,,,,,,,,,,,,,,5,2.518000126,5,0.207000256,1,0,1200,937,1,1199,prison,11116,2019-10-21_21h28.22.060,SurveyExpMetaMem,3.2.3,Win32,60
,,,,,,,,,,,,,,,,,,,,5,1.241000175,5,0.206000328,1,0,1200,602,1,1199,vegetable,11116,2019-10-21_21h28.22.060,SurveyExpMetaMem,3.2.3,Win32,60
,,,,,,,,,,,,,,,,,,,,5,0.534000158,5,0.203000307,1,0,1200,726,1,1199,crackers,11116,2019-10-21_21h28.22.060,SurveyExpMetaMem,3.2.3,Win32,60
,,,,,,,,,,,,,,,,,,,,5,0.707000256,5,0.224000216,1,0,1200,396,1,1199,unpopular,11116,2019-10-21_21h28.22.060,SurveyExpMetaMem,3.2.3,Win32,60
,,,,,,,,,,,,,,,,,,,,5,0.527000189,5,0.200000048,1,0,1200,738,1,1199,horse,11116,2019-10-21_21h28.22.060,SurveyExpMetaMem,3.2.3,Win32,60
,,,,,,,,,,,,,,,,,,,,5,0.494000196,5,0.203999996,1,0,1200,913,1,1199,ulcer,11116,2019-10-21_21h28.22.060,SurveyExpMetaMem,3.2.3,Win32,60
,,,,,,,,,,,,,,,,,,,,5,0.940000057,5,0.173000336,1,0,1200,430,1,1199,cancel,11116,2019-10-21_21h28.22.060,SurveyExpMetaMem,3.2.3,Win32,60
,,,,,,,,,,,,,,,,,,,,7,1.353000164,7,0.242000103,1,0,1200,95,1,1199,giggle,11116,2019-10-21_21h28.22.060,SurveyExpMetaMem,3.2.3,Win32,60
,,,,,,,,,,,,,,,,,,,,5,2.861000061,7,1.156000137,1,0,1200,150,1,1199,vodka,11116,2019-10-21_21h28.22.060,SurveyExpMetaMem,3.2.3,Win32,60
,,,,,,,,,,,,,,,,,,,,5,0.7900002,5,0.25,1,0,1200,1012,1,1199,gunshot,11116,2019-10-21_21h28.22.060,SurveyExpMetaMem,3.2.3,Win32,60
,,,,,,,,,,,,,,,,,,,,5,0.721000195,5,0.195000172,1,0,1200,327,1,1199,misfortune,11116,2019-10-21_21h28.22.060,SurveyExpMetaMem,3.2.3,Win32,60
,,,,,,,,,,,,,,,,,,,,6,2.406000137,3,0.357000113,1,0,1200,1138,1,1199,wail,11116,2019-10-21_21h28.22.060,SurveyExpMetaMem,3.2.3,Win32,60
,,,,,,,,,,,,,,,,,,,,5,1.01300025,5,0.192000151,1,0,1200,134,1,1199,dollar,11116,2019-10-21_21h28.22.060,SurveyExpMetaMem,3.2.3,Win32,60
,,,,,,,,,,,,,,,,,,,,5,0.573000193,5,0.193000317,1,0,1200,368,1,1199,dreary,11116,2019-10-21_21h28.22.060,SurveyExpMetaMem,3.2.3,Win32,60
,,,,,,,,,,,,,,,,,,,,5,0.577000141,5,0.177000046,1,0,1200,186,1,1199,holiday,11116,2019-10-21_21h28.22.060,SurveyExpMetaMem,3.2.3,Win32,60
,,,,,,,,,,,,,,,,,,,,5,0.99600029,5,0.163000107,1,0,1200,273,1,1199,worthwhile,11116,2019-10-21_21h28.22.060,SurveyExpMetaMem,3.2.3,Win32,60
,,,,,,,,,,,,,,,,,,,,5,0.697999954,5,0.191000223,1,0,1200,466,1,1199,gnaw,11116,2019-10-21_21h28.22.060,SurveyExpMetaMem,3.2.3,Win32,60
,,,,,,,,,,,,,,,,,,,,5,0.753000259,5,0.173000097,1,0,1200,743,1,1199,herbal,11116,2019-10-21_21h28.22.060,SurveyExpMetaMem,3.2.3,Win32,60
,,,,,,,,,,,,,,,,,,,,8,1.25600028,8,0.227000237,1,0,1200,199,1,1199,laughter,11116,2019-10-21_21h28.22.060,SurveyExpMetaMem,3.2.3,Win32,60
,,,,,,,,,,,,,,,,,,,,8,1.588000059,5,0.493000269,1,0,1200,37,1,1199,magnificence,11116,2019-10-21_21h28.22.060,SurveyExpMetaMem,3.2.3,Win32,60
,,,,,,,,,,,,,,,,,,,,5,3.037000179,5,0.230000019,1,0,1200,1106,1,1199,pushy,11116,2019-10-21_21h28.22.060,SurveyExpMetaMem,3.2.3,Win32,60
,,,,,,,,,,,,,,,,,,,,2,1.373000145,2,0.857000113,1,0,1200,968,1,1199,insult,11116,2019-10-21_21h28.22.060,SurveyExpMetaMem,3.2.3,Win32,60
,,,,,,,,,,,,,,,,,,,,7,186.4960003,8,1.65500021,1,0,1200,275,1,1199,brilliant,11116,2019-10-21_21h28.22.060,SurveyExpMetaMem,3.2.3,Win32,60
,,,,,,,,,,,,,,,,,,,,7,2.345000029,7,0.580000162,1,0,1200,270,1,1199,toddler,11116,2019-10-21_21h28.22.060,SurveyExpMetaMem,3.2.3,Win32,60
,,,,,,,,,,,,,,,,,,,,8,2.538000107,5,1.473000288,1,0,1200,499,1,1199,stop,11116,2019-10-21_21h28.22.060,SurveyExpMetaMem,3.2.3,Win32,60
,,,,,,,,,,,,,,,,,,,,7,1.987000227,3,1.007000208,1,0,1200,300,1,1199,unhappy,11116,2019-10-21_21h28.22.060,SurveyExpMetaMem,3.2.3,Win32,60
,,,,,,,,,,,,,,,,,,,,5,1.095000267,5,0.169000149,1,0,1200,274,1,1199,song,11116,2019-10-21_21h28.22.060,SurveyExpMetaMem,3.2.3,Win32,60
,,,,,,,,,,,,,,,,,,,,5,0.714000225,5,0.177000284,1,0,1200,359,1,1199,bored,11116,2019-10-21_21h28.22.060,SurveyExpMetaMem,3.2.3,Win32,60
,,,,,,,,,,,,,,,,,,,,5,0.511000156,5,0.257000208,1,0,1200,682,1,1199,camel,11116,2019-10-21_21h28.22.060,SurveyExpMetaMem,3.2.3,Win32,60
,,,,,,,,,,,,,,,,,,,,5,0.621000051,5,0.207000017,1,0,1200,742,1,1199,window,11116,2019-10-21_21h28.22.060,SurveyExpMetaMem,3.2.3,Win32,60
,,,,,,,,,,,,,,,,,,,,9,1.950000286,8,1.209000111,1,0,1200,233,1,1199,exhilaration,11116,2019-10-21_21h28.22.060,SurveyExpMetaMem,3.2.3,Win32,60
,,,,,,,,,,,,,,,,,,,,3,4.607000113,5,1392.629,1,0,1200,1083,1,1199,delayed,11116,2019-10-21_21h28.22.060,SurveyExpMetaMem,3.2.3,Win32,60
,,,,,,,,,,,,,,,,,,,,5,0.470000029,5,0.897000313,1,0,1200,802,1,1199,familiar,11116,2019-10-21_21h28.22.060,SurveyExpMetaMem,3.2.3,Win32,60
,,,,,,,,,,,,,,,,,,,,7,2.5400002,5,1.052000284,1,0,1200,112,1,1199,jaguar,11116,2019-10-21_21h28.22.060,SurveyExpMetaMem,3.2.3,Win32,60
,,,,,,,,,,,,,,,,,,,,5,0.859000206,5,0.440000057,1,0,1200,479,1,1199,period,11116,2019-10-21_21h28.22.060,SurveyExpMetaMem,3.2.3,Win32,60
,,,,,,,,,,,,,,,,,,,,5,1.534000158,5,0.176000118,1,0,1200,859,1,1199,serene,11116,2019-10-21_21h28.22.060,SurveyExpMetaMem,3.2.3,Win32,60
,,,,,,,,,,,,,,,,,,,,5,0.788000107,5,0.154000282,1,0,1200,760,1,1199,shrimp,11116,2019-10-21_21h28.22.060,SurveyExpMetaMem,3.2.3,Win32,60
,,,,,,,,,,,,,,,,,,,,5,0.462000132,5,0.18900013,1,0,1200,958,1,1199,traitor,11116,2019-10-21_21h28.22.060,SurveyExpMetaMem,3.2.3,Win32,60
,,,,,,,,,,,,,,,,,,,,5,0.609000206,5,0.122000217,1,0,1200,557,1,1199,class,11116,2019-10-21_21h28.22.060,SurveyExpMetaMem,3.2.3,Win32,60
,,,,,,,,,,,,,,,,,,,,5,0.770000219,5,0.141000271,1,0,1200,637,1,1199,flock,11116,2019-10-21_21h28.22.060,SurveyExpMetaMem,3.2.3,Win32,60
,,,,,,,,,,,,,,,,,,,,5,0.724000216,5,0.15500021,1,0,1200,513,1,1199,bland,11116,2019-10-21_21h28.22.060,SurveyExpMetaMem,3.2.3,Win32,60
,,,,,,,,,,,,,,,,,,,,5,3.604000092,7,0.273000002,1,0,1200,759,1,1199,prefer,11116,2019-10-21_21h28.22.060,SurveyExpMetaMem,3.2.3,Win32,60
,,,,,,,,,,,,,,,,,,,,5,0.985000134,3,0.25,1,0,1200,432,1,1199,resign,11116,2019-10-21_21h28.22.060,SurveyExpMetaMem,3.2.3,Win32,60
,,,,,,,,,,,,,,,,,,,,5,0.886000156,5,0.190000296,1,0,1200,222,1,1199,waterskiing,11116,2019-10-21_21h28.22.060,SurveyExpMetaMem,3.2.3,Win32,60
,,,,,,,,,,,,,,,,,,,,8,1.620000124,5,0.582000256,1,0,1200,1137,1,1199,knife,11116,2019-10-21_21h28.22.060,SurveyExpMetaMem,3.2.3,Win32,60
,,,,,,,,,,,,,,,,,,,,5,1.038000107,5,0.192000151,1,0,1200,843,1,1199,garden,11116,2019-10-21_21h28.22.060,SurveyExpMetaMem,3.2.3,Win32,60
,,,,,,,,,,,,,,,,,,,,5,1.411000013,5,0.228000164,1,0,1200,584,1,1199,anus,11116,2019-10-21_21h28.22.060,SurveyExpMetaMem,3.2.3,Win32,60
,,,,,,,,,,,,,,,,,,,,5,2.096000195,5,0.19900012,1,0,1200,823,1,1199,nourish,11116,2019-10-21_21h28.22.060,SurveyExpMetaMem,3.2.3,Win32,60
,,,,,,,,,,,,,,,,,,,,5,0.84100008,5,0.194000244,1,0,1200,878,1,1199,sleep,11116,2019-10-21_21h28.22.060,SurveyExpMetaMem,3.2.3,Win32,60
,,,,,,,,,,,,,,,,,,,,5,0.79700017,5,0.206000328,1,0,1200,556,1,1199,allege,11116,2019-10-21_21h28.22.060,SurveyExpMetaMem,3.2.3,Win32,60
,,,,,,,,,,,,,,,,,,,,5,0.639000177,5,0.208000183,1,0,1200,918,1,1199,gunpoint,11116,2019-10-21_21h28.22.060,SurveyExpMetaMem,3.2.3,Win32,60
,,,,,,,,,,,,,,,,,,,,5,1.877000093,7,0.18900013,1,0,1200,362,1,1199,despair,11116,2019-10-21_21h28.22.060,SurveyExpMetaMem,3.2.3,Win32,60
,,,,,,,,,,,,,,,,,,,,5,0.988000154,5,0.157000065,1,0,1200,209,1,1199,husband,11116,2019-10-21_21h28.22.060,SurveyExpMetaMem,3.2.3,Win32,60
,,,,,,,,,,,,,,,,,,,,5,0.526000023,5,0.17200017,1,0,1200,258,1,1199,children,11116,2019-10-21_21h28.22.060,SurveyExpMetaMem,3.2.3,Win32,60
,,,,,,,,,,,,,,,,,,,,5,0.911000252,5,0.188000202,1,0,1200,286,1,1199,superstar,11116,2019-10-21_21h28.22.060,SurveyExpMetaMem,3.2.3,Win32,60
,,,,,,,,,,,,,,,,,,,,5,0.827000141,5,0.204000235,1,0,1200,515,1,1199,blues,11116,2019-10-21_21h28.22.060,SurveyExpMetaMem,3.2.3,Win32,60
,,,,,,,,,,,,,,,,,,,,5,0.845000267,5,0.185000181,1,0,1200,395,1,1199,lack,11116,2019-10-21_21h28.22.060,SurveyExpMetaMem,3.2.3,Win32,60
,,,,,,,,,,,,,,,,,,,,5,3.327000141,7,0.260000229,1,0,1200,1,1,1199,fuck,11116,2019-10-21_21h28.22.060,SurveyExpMetaMem,3.2.3,Win32,60
,,,,,,,,,,,,,,,,,,,,5,1.423000097,7,0.33700037,1,0,1200,49,1,1199,ecstatic,11116,2019-10-21_21h28.22.060,SurveyExpMetaMem,3.2.3,Win32,60
,,,,,,,,,,,,,,,,,,,,5,1.778000116,7,0.124000072,1,0,1200,694,1,1199,pecan,11116,2019-10-21_21h28.22.060,SurveyExpMetaMem,3.2.3,Win32,60
,,,,,,,,,,,,,,,,,,,,5,3.286000252,5,3.123000145,1,0,1200,225,1,1199,strong,11116,2019-10-21_21h28.22.060,SurveyExpMetaMem,3.2.3,Win32,60
,,,,,,,,,,,,,,,,,,,,5,0.871999979,5,0.196000099,1,0,1200,851,1,1199,cool,11116,2019-10-21_21h28.22.060,SurveyExpMetaMem,3.2.3,Win32,60
,,,,,,,,,,,,,,,,,,,,5,0.660000086,5,0.209000349,1,0,1200,389,1,1199,gloomy,11116,2019-10-21_21h28.22.060,SurveyExpMetaMem,3.2.3,Win32,60
,,,,,,,,,,,,,,,,,,,,5,0.521000147,5,0.139000177,1,0,1200,373,1,1199,ignorance,11116,2019-10-21_21h28.22.060,SurveyExpMetaMem,3.2.3,Win32,60
,,,,,,,,,,,,,,,,,,,,5,1.822000027,5,0.273000002,1,0,1200,750,1,1199,porpoise,11116,2019-10-21_21h28.22.060,SurveyExpMetaMem,3.2.3,Win32,60
,,,,,,,,,,,,,,,,,,,,5,0.72900033,5,0.636000156,1,0,1200,1088,1,1199,forbid,11116,2019-10-21_21h28.22.060,SurveyExpMetaMem,3.2.3,Win32,60
,,,,,,,,,,,,,,,,,,,,5,5.253000021,5,0.174000025,1,0,1200,829,1,1199,innocent,11116,2019-10-21_21h28.22.060,SurveyExpMetaMem,3.2.3,Win32,60
,,,,,,,,,,,,,,,,,,,,5,1.037000179,5,0.132000208,1,0,1200,11,1,1199,astonished,11116,2019-10-21_21h28.22.060,SurveyExpMetaMem,3.2.3,Win32,60
,,,,,,,,,,,,,,,,,,,,5,0.848000288,5,0.17200017,1,0,1200,932,1,1199,bankrupt,11116,2019-10-21_21h28.22.060,SurveyExpMetaMem,3.2.3,Win32,60
,,,,,,,,,,,,,,,,,,,,5,0.143000126,5,0.156000137,1,0,1200,713,1,1199,mobile,11116,2019-10-21_21h28.22.060,SurveyExpMetaMem,3.2.3,Win32,60
,,,,,,,,,,,,,,,,,,,,5,0.141000032,5,0.153000355,1,0,1200,1168,1,1199,financial,11116,2019-10-21_21h28.22.060,SurveyExpMetaMem,3.2.3,Win32,60
,,,,,,,,,,,,,,,,,,,,5,0.135000229,5,0.145000219,1,0,1200,692,1,1199,medicine,11116,2019-10-21_21h28.22.060,SurveyExpMetaMem,3.2.3,Win32,60
,,,,,,,,,,,,,,,,,,,,5,0.154000282,5,0.167999983,1,0,1200,631,1,1199,delicate,11116,2019-10-21_21h28.22.060,SurveyExpMetaMem,3.2.3,Win32,60
,,,,,,,,,,,,,,,,,,,,5,0.159000158,5,0.159000158,1,0,1200,1010,1,1199,arson,11116,2019-10-21_21h28.22.060,SurveyExpMetaMem,3.2.3,Win32,60
,,,,,,,,,,,,,,,,,,,,5,0.15500021,5,0.122000217,1,0,1200,486,1,1199,fool,11116,2019-10-21_21h28.22.060,SurveyExpMetaMem,3.2.3,Win32,60
,,,,,,,,,,,,,,,,,,,,5,0.205000162,5,0.174000025,1,0,1200,271,1,1199,applaud,11116,2019-10-21_21h28.22.060,SurveyExpMetaMem,3.2.3,Win32,60
,,,,,,,,,,,,,,,,,,,,5,0.192000151,5,0.177000046,1,0,1200,890,1,1199,carefree,11116,2019-10-21_21h28.22.060,SurveyExpMetaMem,3.2.3,Win32,60
,,,,,,,,,,,,,,,,,,,,5,0.177000284,5,0.174000263,1,0,1200,56,1,1199,spice,11116,2019-10-21_21h28.22.060,SurveyExpMetaMem,3.2.3,Win32,60
,,,,,,,,,,,,,,,,,,,,5,0.17200017,5,0.1650002,1,0,1200,583,1,1199,obey,11116,2019-10-21_21h28.22.060,SurveyExpMetaMem,3.2.3,Win32,60
,,,,,,,,,,,,,,,,,,,,5,0.175000191,5,0.175000191,1,0,1200,108,1,1199,naked,11116,2019-10-21_21h28.22.060,SurveyExpMetaMem,3.2.3,Win32,60
,,,,,,,,,,,,,,,,,,,,5,0.171000242,5,0.192000151,1,0,1200,820,1,1199,oxygen,11116,2019-10-21_21h28.22.060,SurveyExpMetaMem,3.2.3,Win32,60
,,,,,,,,,,,,,,,,,,,,5,0.180999994,5,0.163000107,1,0,1200,221,1,1199,sparkle,11116,2019-10-21_21h28.22.060,SurveyExpMetaMem,3.2.3,Win32,60
,,,,,,,,,,,,,,,,,,,,5,0.192000151,5,0.174000263,1,0,1200,768,1,1199,trait,11116,2019-10-21_21h28.22.060,SurveyExpMetaMem,3.2.3,Win32,60
,,,,,,,,,,,,,,,,,,,,5,0.17200017,5,0.159000158,1,0,1200,577,1,1199,retreat,11116,2019-10-21_21h28.22.060,SurveyExpMetaMem,3.2.3,Win32,60
,,,,,,,,,,,,,,,,,,,,5,0.168000221,5,0.158000231,1,0,1200,888,1,1199,refreshment,11116,2019-10-21_21h28.22.060,SurveyExpMetaMem,3.2.3,Win32,60
,,,,,,,,,,,,,,,,,,,,5,0.163000107,5,0.164000273,1,0,1200,691,1,1199,circle,11116,2019-10-21_21h28.22.060,SurveyExpMetaMem,3.2.3,Win32,60
,,,,,,,,,,,,,,,,,,,,5,0.176000118,5,0.179000378,1,0,1200,571,1,1199,marrow,11116,2019-10-21_21h28.22.060,SurveyExpMetaMem,3.2.3,Win32,60
,,,,,,,,,,,,,,,,,,,,5,0.187000036,5,0.17200017,1,0,1200,896,1,1199,cuddle,11116,2019-10-21_21h28.22.060,SurveyExpMetaMem,3.2.3,Win32,60
,,,,,,,,,,,,,,,,,,,,5,0.153000355,5,0.173000336,1,0,1200,461,1,1199,ail,11116,2019-10-21_21h28.22.060,SurveyExpMetaMem,3.2.3,Win32,60
,,,,,,,,,,,,,,,,,,,,5,0.156000137,5,0.174000263,1,0,1200,736,1,1199,hawk,11116,2019-10-21_21h28.22.060,SurveyExpMetaMem,3.2.3,Win32,60
,,,,,,,,,,,,,,,,,,,,5,0.177000046,5,0.173000097,1,0,1200,733,1,1199,poetry,11116,2019-10-21_21h28.22.060,SurveyExpMetaMem,3.2.3,Win32,60
,,,,,,,,,,,,,,,,,,,,5,0.158000231,5,0.173000097,1,0,1200,1046,1,1199,unsafe,11116,2019-10-21_21h28.22.060,SurveyExpMetaMem,3.2.3,Win32,60
,,,,,,,,,,,,,,,,,,,,5,0.171000004,5,0.171000004,1,0,1200,337,1,1199,stinks,11116,2019-10-21_21h28.22.060,SurveyExpMetaMem,3.2.3,Win32,60
,,,,,,,,,,,,,,,,,,,,5,0.163000345,5,0.171000242,1,0,1200,525,1,1199,stagnant,11116,2019-10-21_21h28.22.060,SurveyExpMetaMem,3.2.3,Win32,60
,,,,,,,,,,,,,,,,,,,,5,0.161000013,5,0.166000128,1,0,1200,945,1,1199,demon,11116,2019-10-21_21h28.22.060,SurveyExpMetaMem,3.2.3,Win32,60
,,,,,,,,,,,,,,,,,,,,5,0.171000242,5,0.157000303,1,0,1200,594,1,1199,moss,11116,2019-10-21_21h28.22.060,SurveyExpMetaMem,3.2.3,Win32,60
,,,,,,,,,,,,,,,,,,,,5,0.161000013,5,0.160000086,1,0,1200,597,1,1199,drool,11116,2019-10-21_21h28.22.060,SurveyExpMetaMem,3.2.3,Win32,60
,,,,,,,,,,,,,,,,,,,,5,0.164000273,5,0.162000179,1,0,1200,830,1,1199,pear,11116,2019-10-21_21h28.22.060,SurveyExpMetaMem,3.2.3,Win32,60
,,,,,,,,,,,,,,,,,,,,5,0.185000181,5,0.141000032,1,0,1200,24,1,1199,model,11116,2019-10-21_21h28.22.060,SurveyExpMetaMem,3.2.3,Win32,60
,,,,,,,,,,,,,,,,,,,,5,0.156000376,5,0.170000076,1,0,1200,223,1,1199,fashion,11116,2019-10-21_21h28.22.060,SurveyExpMetaMem,3.2.3,Win32,60
,,,,,,,,,,,,,,,,,,,,5,0.130000353,5,0.17200017,1,0,1200,684,1,1199,send,11116,2019-10-21_21h28.22.060,SurveyExpMetaMem,3.2.3,Win32,60
,,,,,,,,,,,,,,,,,,,,5,0.153000116,5,0.164000273,1,0,1200,873,1,1199,useful,11116,2019-10-21_21h28.22.060,SurveyExpMetaMem,3.2.3,Win32,60
,,,,,,,,,,,,,,,,,,,,5,0.171000004,5,0.15500021,1,0,1200,1098,1,1199,confused,11116,2019-10-21_21h28.22.060,SurveyExpMetaMem,3.2.3,Win32,60
,,,,,,,,,,,,,,,,,,,,5,0.17200017,5,0.157000303,1,0,1200,535,1,1199,ramble,11116,2019-10-21_21h28.22.060,SurveyExpMetaMem,3.2.3,Win32,60
,,,,,,,,,,,,,,,,,,,,5,0.162000179,5,0.192000151,1,0,1200,106,1,1199,voyage,11116,2019-10-21_21h28.22.060,SurveyExpMetaMem,3.2.3,Win32,60
,,,,,,,,,,,,,,,,,,,,5,0.156000137,5,0.163000107,1,0,1200,1175,1,1199,prostitute,11116,2019-10-21_21h28.22.060,SurveyExpMetaMem,3.2.3,Win32,60
,,,,,,,,,,,,,,,,,,,,5,0.174000263,5,0.188000202,1,0,1200,889,1,1199,wise,11116,2019-10-21_21h28.22.060,SurveyExpMetaMem,3.2.3,Win32,60
,,,,,,,,,,,,,,,,,,,,5,0.170000076,5,0.192000151,1,0,1200,511,1,1199,slouch,11116,2019-10-21_21h28.22.060,SurveyExpMetaMem,3.2.3,Win32,60
,,,,,,,,,,,,,,,,,,,,5,0.185000181,5,0.183000326,1,0,1200,340,1,1199,coward,11116,2019-10-21_21h28.22.060,SurveyExpMetaMem,3.2.3,Win32,60
,,,,,,,,,,,,,,,,,,,,5,0.237000227,3,1.393000126,1,0,1200,1047,1,1199,psycho,11116,2019-10-21_21h28.22.060,SurveyExpMetaMem,3.2.3,Win32,60
,,,,,,,,,,,,,,,,,,,,5,0.524000168,5,0.223999977,1,0,1200,59,1,1199,sports,11116,2019-10-21_21h28.22.060,SurveyExpMetaMem,3.2.3,Win32,60
,,,,,,,,,,,,,,,,,,,,5,0.588000059,5,0.183000088,1,0,1200,219,1,1199,know,11116,2019-10-21_21h28.22.060,SurveyExpMetaMem,3.2.3,Win32,60
,,,,,,,,,,,,,,,,,,,,5,0.304000139,5,0.161000013,1,0,1200,720,1,1199,stable,11116,2019-10-21_21h28.22.060,SurveyExpMetaMem,3.2.3,Win32,60
,,,,,,,,,,,,,,,,,,,,5,0.476999998,5,0.183000088,1,0,1200,773,1,1199,rational,11116,2019-10-21_21h28.22.060,SurveyExpMetaMem,3.2.3,Win32,60
,,,,,,,,,,,,,,,,,,,,5,0.373000145,5,0.173000097,1,0,1200,1095,1,1199,fright,11116,2019-10-21_21h28.22.060,SurveyExpMetaMem,3.2.3,Win32,60
,,,,,,,,,,,,,,,,,,,,5,0.5400002,5,0.139000177,1,0,1200,902,1,1199,rejected,11116,2019-10-21_21h28.22.060,SurveyExpMetaMem,3.2.3,Win32,60
,,,,,,,,,,,,,,,,,,,,5,0.538000107,5,0.620000362,1,0,1200,721,1,1199,contemporary,11116,2019-10-21_21h28.22.060,SurveyExpMetaMem,3.2.3,Win32,60
,,,,,,,,,,,,,,,,,,,,5,0.490000248,5,0.158000231,1,0,1200,683,1,1199,scarf,11116,2019-10-21_21h28.22.060,SurveyExpMetaMem,3.2.3,Win32,60
,,,,,,,,,,,,,,,,,,,,5,0.390000343,5,0.164000034,1,0,1200,490,1,1199,detached,11116,2019-10-21_21h28.22.060,SurveyExpMetaMem,3.2.3,Win32,60
,,,,,,,,,,,,,,,,,,,,5,0.404000282,5,0.173000097,1,0,1200,126,1,1199,rich,11116,2019-10-21_21h28.22.060,SurveyExpMetaMem,3.2.3,Win32,60
,,,,,,,,,,,,,,,,,,,,5,0.456000328,5,0.166000128,1,0,1200,366,1,1199,fatigue,11116,2019-10-21_21h28.22.060,SurveyExpMetaMem,3.2.3,Win32,60
,,,,,,,,,,,,,,,,,,,,5,0.485000372,5,0.121000051,1,0,1200,520,1,1199,gullible,11116,2019-10-21_21h28.22.060,SurveyExpMetaMem,3.2.3,Win32,60
,,,,,,,,,,,,,,,,,,,,5,61754.801,5,0.668000221,1,0,1200,267,1,1199,bold,11116,2019-10-21_21h28.22.060,SurveyExpMetaMem,3.2.3,Win32,60
,,,,,,,,,,,,,,,,,,,,5,1.267000198,5,0.246999979,1,0,1200,530,1,1199,erase,11116,2019-10-21_21h28.22.060,SurveyExpMetaMem,3.2.3,Win32,60
,,,,,,,,,,,,,,,,,,,,5,0.517000198,5,0.261000156,1,0,1200,237,1,1199,beautiful,11116,2019-10-21_21h28.22.060,SurveyExpMetaMem,3.2.3,Win32,60
,,,,,,,,,,,,,,,,,,,,5,0.604000092,5,0.22200036,1,0,1200,194,1,1199,celebration,11116,2019-10-21_21h28.22.060,SurveyExpMetaMem,3.2.3,Win32,60
,,,,,,,,,,,,,,,,,,,,5,0.488000393,5,0.191000223,1,0,1200,409,1,1199,old,11116,2019-10-21_21h28.22.060,SurveyExpMetaMem,3.2.3,Win32,60
,,,,,,,,,,,,,,,,,,,,5,0.279999971,5,0.255000114,1,0,1200,887,1,1199,elegant,11116,2019-10-21_21h28.22.060,SurveyExpMetaMem,3.2.3,Win32,60
,,,,,,,,,,,,,,,,,,,,5,0.788000345,5,0.264000177,1,0,1200,676,1,1199,straighten,11116,2019-10-21_21h28.22.060,SurveyExpMetaMem,3.2.3,Win32,60
,,,,,,,,,,,,,,,,,,,,5,0.281000137,5,0.176000118,1,0,1200,574,1,1199,distracted,11116,2019-10-21_21h28.22.060,SurveyExpMetaMem,3.2.3,Win32,60
,,,,,,,,,,,,,,,,,,,,5,0.437000036,5,0.175000191,1,0,1200,971,1,1199,crash,11116,2019-10-21_21h28.22.060,SurveyExpMetaMem,3.2.3,Win32,60
,,,,,,,,,,,,,,,,,,,,5,0.504000187,5,0.146000147,1,0,1200,895,1,1199,peace,11116,2019-10-21_21h28.22.060,SurveyExpMetaMem,3.2.3,Win32,60
,,,,,,,,,,,,,,,,,,,,7,4.458000183,2,0.989000082,1,0,1200,983,1,1199,demonic,11116,2019-10-21_21h28.22.060,SurveyExpMetaMem,3.2.3,Win32,60
,,,,,,,,,,,,,,,,,,,,5,1.942000151,3,0.52300024,1,0,1200,934,1,1199,sob,11116,2019-10-21_21h28.22.060,SurveyExpMetaMem,3.2.3,Win32,60
,,,,,,,,,,,,,,,,,,,,5,1.004000187,5,0.161000252,1,0,1200,566,1,1199,obscure,11116,2019-10-21_21h28.22.060,SurveyExpMetaMem,3.2.3,Win32,60
,,,,,,,,,,,,,,,,,,,,7,1.220999956,1,0.890000343,1,0,1200,950,1,1199,murder,11116,2019-10-21_21h28.22.060,SurveyExpMetaMem,3.2.3,Win32,60
,,,,,,,,,,,,,,,,,,,,5,1.825000048,5,0.161000252,1,0,1200,161,1,1199,limousine,11116,2019-10-21_21h28.22.060,SurveyExpMetaMem,3.2.3,Win32,60
,,,,,,,,,,,,,,,,,,,,5,0.555000305,5,0.162000179,1,0,1200,585,1,1199,tatter,11116,2019-10-21_21h28.22.060,SurveyExpMetaMem,3.2.3,Win32,60
,,,,,,,,,,,,,,,,,,,,5,0.426000357,5,0.149000168,1,0,1200,980,1,1199,liar,11116,2019-10-21_21h28.22.060,SurveyExpMetaMem,3.2.3,Win32,60
,,,,,,,,,,,,,,,,,,,,5,0.38800025,5,0.106000185,1,0,1200,1033,1,1199,horror,11116,2019-10-21_21h28.22.060,SurveyExpMetaMem,3.2.3,Win32,60
,,,,,,,,,,,,,,,,,,,,6,1.311000109,3,0.393000364,1,0,1200,1139,1,1199,scare,11116,2019-10-21_21h28.22.060,SurveyExpMetaMem,3.2.3,Win32,60
,,,,,,,,,,,,,,,,,,,,5,0.988000154,5,0.157000065,1,0,1200,1121,1,1199,ban,11116,2019-10-21_21h28.22.060,SurveyExpMetaMem,3.2.3,Win32,60
,,,,,,,,,,,,,,,,,,,,5,0.561000109,5,0.141000032,1,0,1200,65,1,1199,restaurant,11116,2019-10-21_21h28.22.060,SurveyExpMetaMem,3.2.3,Win32,60
,,,,,,,,,,,,,,,,,,,,5,0.504000187,5,0.125000238,1,0,1200,655,1,1199,name,11116,2019-10-21_21h28.22.060,SurveyExpMetaMem,3.2.3,Win32,60
,,,,,,,,,,,,,,,,,,,,5,0.50600028,5,0.538000107,1,0,1200,245,1,1199,beach,11116,2019-10-21_21h28.22.060,SurveyExpMetaMem,3.2.3,Win32,60
,,,,,,,,,,,,,,,,,,,,5,0.203000069,5,0.372000217,1,0,1200,301,1,1199,sad,11116,2019-10-21_21h28.22.060,SurveyExpMetaMem,3.2.3,Win32,60
,,,,,,,,,,,,,,,,,,,,5,0.53000021,5,0.146000147,1,0,1200,457,1,1199,confuse,11116,2019-10-21_21h28.22.060,SurveyExpMetaMem,3.2.3,Win32,60
,,,,,,,,,,,,,,,,,,,,5,0.526000261,5,0.13800025,1,0,1200,388,1,1199,mildew,11116,2019-10-21_21h28.22.060,SurveyExpMetaMem,3.2.3,Win32,60
,,,,,,,,,,,,,,,,,,,,5,0.455000162,5,0.128000259,1,0,1200,801,1,1199,noon,11116,2019-10-21_21h28.22.060,SurveyExpMetaMem,3.2.3,Win32,60
,,,,,,,,,,,,,,,,,,,,5,0.744000196,5,0.147000074,1,0,1200,418,1,1199,cheapskate,11116,2019-10-21_21h28.22.060,SurveyExpMetaMem,3.2.3,Win32,60
,,,,,,,,,,,,,,,,,,,,5,0.771000147,3,1.091000319,1,0,1200,494,1,1199,butcher,11116,2019-10-21_21h28.22.060,SurveyExpMetaMem,3.2.3,Win32,60
,,,,,,,,,,,,,,,,,,,,5,0.739000082,5,0.194000006,1,0,1200,86,1,1199,talent,11116,2019-10-21_21h28.22.060,SurveyExpMetaMem,3.2.3,Win32,60
,,,,,,,,,,,,,,,,,,,,5,0.577000141,3,0.761000395,1,0,1200,903,1,1199,cancer,11116,2019-10-21_21h28.22.060,SurveyExpMetaMem,3.2.3,Win32,60
,,,,,,,,,,,,,,,,,,,,5,1.671000004,5,0.323000193,1,0,1200,678,1,1199,lightbulb,11116,2019-10-21_21h28.22.060,SurveyExpMetaMem,3.2.3,Win32,60
,,,,,,,,,,,,,,,,,,,,5,0.49600029,5,0.220999956,1,0,1200,882,1,1199,gentle,11116,2019-10-21_21h28.22.060,SurveyExpMetaMem,3.2.3,Win32,60
,,,,,,,,,,,,,,,,,,,,5,1.362000227,5,0.27300024,1,0,1200,544,1,1199,snail,11116,2019-10-21_21h28.22.060,SurveyExpMetaMem,3.2.3,Win32,60
,,,,,,,,,,,,,,,,,,,,5,0.819000244,5,0.20600009,1,0,1200,93,1,1199,smiling,11116,2019-10-21_21h28.22.060,SurveyExpMetaMem,3.2.3,Win32,60
,,,,,,,,,,,,,,,,,,,,5,0.904000282,5,0.156000137,1,0,1200,1019,1,1199,fraud,11116,2019-10-21_21h28.22.060,SurveyExpMetaMem,3.2.3,Win32,60
,,,,,,,,,,,,,,,,,,,,5,0.744000196,5,0.176000118,1,0,1200,365,1,1199,discouraged,11116,2019-10-21_21h28.22.060,SurveyExpMetaMem,3.2.3,Win32,60
,,,,,,,,,,,,,,,,,,,,5,0.320000172,5,0.29700017,1,0,1200,588,1,1199,bandage,11116,2019-10-21_21h28.22.060,SurveyExpMetaMem,3.2.3,Win32,60
,,,,,,,,,,,,,,,,,,,,5,0.486000061,5,0.011000156,1,0,1200,652,1,1199,tend,11116,2019-10-21_21h28.22.060,SurveyExpMetaMem,3.2.3,Win32,60
,,,,,,,,,,,,,,,,,,,,5,0.022000313,5,0.015000105,1,0,1200,32,1,1199,festival,11116,2019-10-21_21h28.22.060,SurveyExpMetaMem,3.2.3,Win32,60
,,,,,,,,,,,,,,,,,,,,5,0.02300024,5,0.021000147,1,0,1200,654,1,1199,brief,11116,2019-10-21_21h28.22.060,SurveyExpMetaMem,3.2.3,Win32,60
,,,,,,,,,,,,,,,,,,,,5,0.012000322,5,0.024000168,1,0,1200,762,1,1199,orchestra,11116,2019-10-21_21h28.22.060,SurveyExpMetaMem,3.2.3,Win32,60
,,,,,,,,,,,,,,,,,,,,5,0.019000053,5,0.01300025,1,0,1200,797,1,1199,hamburger,11116,2019-10-21_21h28.22.060,SurveyExpMetaMem,3.2.3,Win32,60
,,,,,,,,,,,,,,,,,,,,5,0.020000219,5,0.021000147,1,0,1200,358,1,1199,waste,11116,2019-10-21_21h28.22.060,SurveyExpMetaMem,3.2.3,Win32,60
,,,,,,,,,,,,,,,,,,,,5,0.011000156,5,0.021000147,1,0,1200,915,1,1199,abuse,11116,2019-10-21_21h28.22.060,SurveyExpMetaMem,3.2.3,Win32,60
,,,,,,,,,,,,,,,,,,,,5,0.014000177,5,0.025000095,1,0,1200,90,1,1199,satisfaction,11116,2019-10-21_21h28.22.060,SurveyExpMetaMem,3.2.3,Win32,60
,,,,,,,,,,,,,,,,,,,,5,0.020000219,5,0.01300025,1,0,1200,264,1,1199,thong,11116,2019-10-21_21h28.22.060,SurveyExpMetaMem,3.2.3,Win32,60
,,,,,,,,,,,,,,,,,,,,5,0.022000313,5,0.021000147,1,0,1200,816,1,1199,hippotamus,11116,2019-10-21_21h28.22.060,SurveyExpMetaMem,3.2.3,Win32,60
,,,,,,,,,,,,,,,,,,,,5,0.009000063,5,0.021000147,1,0,1200,562,1,1199,average,11116,2019-10-21_21h28.22.060,SurveyExpMetaMem,3.2.3,Win32,60
,,,,,,,,,,,,,,,,,,,,5,0.017000198,5,0.024000168,1,0,1200,630,1,1199,website,11116,2019-10-21_21h28.22.060,SurveyExpMetaMem,3.2.3,Win32,60
,,,,,,,,,,,,,,,,,,,,5,0.027000189,5,0.01300025,1,0,1200,329,1,1199,worse,11116,2019-10-21_21h28.22.060,SurveyExpMetaMem,3.2.3,Win32,60
,,,,,,,,,,,,,,,,,,,,5,0.021000385,5,0.021000147,1,0,1200,244,1,1199,sexy,11116,2019-10-21_21h28.22.060,SurveyExpMetaMem,3.2.3,Win32,60
,,,,,,,,,,,,,,,,,,,,5,0.010000229,5,0.020000219,1,0,1200,796,1,1199,rose,11116,2019-10-21_21h28.22.060,SurveyExpMetaMem,3.2.3,Win32,60
,,,,,,,,,,,,,,,,,,,,5,0.011000156,5,0.024000168,1,0,1200,764,1,1199,coin,11116,2019-10-21_21h28.22.060,SurveyExpMetaMem,3.2.3,Win32,60
,,,,,,,,,,,,,,,,,,,,5,0.019000292,5,0.009000063,1,0,1200,922,1,1199,nightmare,11116,2019-10-21_21h28.22.060,SurveyExpMetaMem,3.2.3,Win32,60
,,,,,,,,,,,,,,,,,,,,5,0.021000147,5,0.01300025,1,0,1200,591,1,1199,bereavement,11116,2019-10-21_21h28.22.060,SurveyExpMetaMem,3.2.3,Win32,60
,,,,,,,,,,,,,,,,,,,,5,0.022000074,5,0.024000168,1,0,1200,328,1,1199,disgrace,11116,2019-10-21_21h28.22.060,SurveyExpMetaMem,3.2.3,Win32,60
,,,,,,,,,,,,,,,,,,,,5,0.009000301,5,0.02300024,1,0,1200,618,1,1199,ceiling,11116,2019-10-21_21h28.22.060,SurveyExpMetaMem,3.2.3,Win32,60
,,,,,,,,,,,,,,,,,,,,5,0.012000322,5,0.024000168,1,0,1200,778,1,1199,adorn,11116,2019-10-21_21h28.22.060,SurveyExpMetaMem,3.2.3,Win32,60
,,,,,,,,,,,,,,,,,,,,5,0.022000074,5,0.014000177,1,0,1200,986,1,1199,mad,11116,2019-10-21_21h28.22.060,SurveyExpMetaMem,3.2.3,Win32,60
,,,,,,,,,,,,,,,,,,,,5,0.022000074,5,0.024000168,1,0,1200,239,1,1199,compassionate,11116,2019-10-21_21h28.22.060,SurveyExpMetaMem,3.2.3,Win32,60
,,,,,,,,,,,,,,,,,,,,5,0.009000301,5,0.022000074,1,0,1200,864,1,1199,blanket,11116,2019-10-21_21h28.22.060,SurveyExpMetaMem,3.2.3,Win32,60
,,,,,,,,,,,,,,,,,,,,5,0.022000313,5,0.00999999,1,0,1200,776,1,1199,doll,11116,2019-10-21_21h28.22.060,SurveyExpMetaMem,3.2.3,Win32,60
,,,,,,,,,,,,,,,,,,,,5,0.02300024,5,0.012000322,1,0,1200,117,1,1199,powerful,11116,2019-10-21_21h28.22.060,SurveyExpMetaMem,3.2.3,Win32,60
,,,,,,,,,,,,,,,,,,,,5,0.022000074,5,0.024000168,1,0,1200,553,1,1199,corner,11116,2019-10-21_21h28.22.060,SurveyExpMetaMem,3.2.3,Win32,60
,,,,,,,,,,,,,,,,,,,,5,0.009000063,5,0.02300024,1,0,1200,1100,1,1199,evil,11116,2019-10-21_21h28.22.060,SurveyExpMetaMem,3.2.3,Win32,60
,,,,,,,,,,,,,,,,,,,,5,0.021000147,5,0.009000063,1,0,1200,894,1,1199,sunset,11116,2019-10-21_21h28.22.060,SurveyExpMetaMem,3.2.3,Win32,60
,,,,,,,,,,,,,,,,,,,,5,0.022000313,5,0.013000011,1,0,1200,628,1,1199,chess,11116,2019-10-21_21h28.22.060,SurveyExpMetaMem,3.2.3,Win32,60
,,,,,,,,,,,,,,,,,,,,5,0.022000074,5,0.025000095,1,0,1200,1028,1,1199,terror,11116,2019-10-21_21h28.22.060,SurveyExpMetaMem,3.2.3,Win32,60
,,,,,,,,,,,,,,,,,,,,5,0.008000135,5,0.024000168,1,0,1200,916,1,1199,starvation,11116,2019-10-21_21h28.22.060,SurveyExpMetaMem,3.2.3,Win32,60
,,,,,,,,,,,,,,,,,,,,5,0.010000229,5,0.024000168,1,0,1200,959,1,1199,divorce,11116,2019-10-21_21h28.22.060,SurveyExpMetaMem,3.2.3,Win32,60
,,,,,,,,,,,,,,,,,,,,5,0.021000147,5,0.00999999,1,0,1200,941,1,1199,leprosy,11116,2019-10-21_21h28.22.060,SurveyExpMetaMem,3.2.3,Win32,60
,,,,,,,,,,,,,,,,,,,,5,0.021000385,5,0.015000105,1,0,1200,656,1,1199,number,11116,2019-10-21_21h28.22.060,SurveyExpMetaMem,3.2.3,Win32,60
,,,,,,,,,,,,,,,,,,,,5,0.021000147,5,0.021000147,1,0,1200,379,1,1199,slob,11116,2019-10-21_21h28.22.060,SurveyExpMetaMem,3.2.3,Win32,60
,,,,,,,,,,,,,,,,,,,,5,0.009000063,5,0.025000095,1,0,1200,1086,1,1199,irritate,11116,2019-10-21_21h28.22.060,SurveyExpMetaMem,3.2.3,Win32,60
,,,,,,,,,,,,,,,,,,,,5,0.013000011,5,0.026000023,1,0,1200,900,1,1199,suicide,11116,2019-10-21_21h28.22.060,SurveyExpMetaMem,3.2.3,Win32,60
,,,,,,,,,,,,,,,,,,,,5,0.024000168,5,0.019000292,1,0,1200,1066,1,1199,annoy,11116,2019-10-21_21h28.22.060,SurveyExpMetaMem,3.2.3,Win32,60
,,,,,,,,,,,,,,,,,,,,5,0.021000147,5,0.021000147,1,0,1200,302,1,1199,loneliness,11116,2019-10-21_21h28.22.060,SurveyExpMetaMem,3.2.3,Win32,60
,,,,,,,,,,,,,,,,,,,,5,0.008000135,5,0.02300024,1,0,1200,623,1,1199,suburban,11116,2019-10-21_21h28.22.060,SurveyExpMetaMem,3.2.3,Win32,60
,,,,,,,,,,,,,,,,,,,,5,0.014000177,5,0.025000095,1,0,1200,846,1,1199,able,11116,2019-10-21_21h28.22.060,SurveyExpMetaMem,3.2.3,Win32,60
,,,,,,,,,,,,,,,,,,,,5,0.019000292,5,0.013000011,1,0,1200,33,1,1199,sister,11116,2019-10-21_21h28.22.060,SurveyExpMetaMem,3.2.3,Win32,60
,,,,,,,,,,,,,,,,,,,,5,0.021000147,5,0.023000002,1,0,1200,55,1,1199,rare,11116,2019-10-21_21h28.22.060,SurveyExpMetaMem,3.2.3,Win32,60
,,,,,,,,,,,,,,,,,,,,5,0.008000135,5,0.029000044,1,0,1200,384,1,1199,idiot,11116,2019-10-21_21h28.22.060,SurveyExpMetaMem,3.2.3,Win32,60
,,,,,,,,,,,,,,,,,,,,5,0.010000229,5,0.022000313,1,0,1200,593,1,1199,errand,11116,2019-10-21_21h28.22.060,SurveyExpMetaMem,3.2.3,Win32,60
,,,,,,,,,,,,,,,,,,,,5,0.021000147,5,0.010000229,1,0,1200,51,1,1199,body,11116,2019-10-21_21h28.22.060,SurveyExpMetaMem,3.2.3,Win32,60
,,,,,,,,,,,,,,,,,,,,5,0.019999981,5,0.014000177,1,0,1200,1041,1,1199,sin,11116,2019-10-21_21h28.22.060,SurveyExpMetaMem,3.2.3,Win32,60
,,,,,,,,,,,,,,,,,,,,5,0.022000074,5,0.022000313,1,0,1200,330,1,1199,sunburn,11116,2019-10-21_21h28.22.060,SurveyExpMetaMem,3.2.3,Win32,60
,,,,,,,,,,,,,,,,,,,,5,0.008000135,5,0.022000074,1,0,1200,154,1,1199,race,11116,2019-10-21_21h28.22.060,SurveyExpMetaMem,3.2.3,Win32,60
,,,,,,,,,,,,,,,,,,,,5,0.01300025,5,0.025000095,1,0,1200,730,1,1199,slogan,11116,2019-10-21_21h28.22.060,SurveyExpMetaMem,3.2.3,Win32,60
,,,,,,,,,,,,,,,,,,,,5,0.016000032,5,0.011000156,1,0,1200,440,1,1199,forgot,11116,2019-10-21_21h28.22.060,SurveyExpMetaMem,3.2.3,Win32,60
,,,,,,,,,,,,,,,,,,,,5,0.020000219,5,0.015000343,1,0,1200,43,1,1199,diamond,11116,2019-10-21_21h28.22.060,SurveyExpMetaMem,3.2.3,Win32,60
,,,,,,,,,,,,,,,,,,,,5,0.023000002,5,0.021000385,1,0,1200,307,1,1199,sick,11116,2019-10-21_21h28.22.060,SurveyExpMetaMem,3.2.3,Win32,60
,,,,,,,,,,,,,,,,,,,,5,0.011000156,5,0.022000074,1,0,1200,909,1,1199,terrified,11116,2019-10-21_21h28.22.060,SurveyExpMetaMem,3.2.3,Win32,60
,,,,,,,,,,,,,,,,,,,,5,0.019000053,5,0.008000135,1,0,1200,921,1,1199,humiliation,11116,2019-10-21_21h28.22.060,SurveyExpMetaMem,3.2.3,Win32,60
,,,,,,,,,,,,,,,,,,,,5,0.019999981,5,0.012000322,1,0,1200,622,1,1199,revere,11116,2019-10-21_21h28.22.060,SurveyExpMetaMem,3.2.3,Win32,60
,,,,,,,,,,,,,,,,,,,,5,0.02300024,5,0.025000095,1,0,1200,410,1,1199,tarnish,11116,2019-10-21_21h28.22.060,SurveyExpMetaMem,3.2.3,Win32,60
,,,,,,,,,,,,,,,,,,,,5,0.009000301,5,0.024000168,1,0,1200,498,1,1199,alimony,11116,2019-10-21_21h28.22.060,SurveyExpMetaMem,3.2.3,Win32,60
,,,,,,,,,,,,,,,,,,,,5,0.021000147,5,0.009000063,1,0,1200,948,1,1199,pain,11116,2019-10-21_21h28.22.060,SurveyExpMetaMem,3.2.3,Win32,60
,,,,,,,,,,,,,,,,,,,,5,0.022000074,5,0.013000011,1,0,1200,378,1,1199,dislike,11116,2019-10-21_21h28.22.060,SurveyExpMetaMem,3.2.3,Win32,60
,,,,,,,,,,,,,,,,,,,,5,0.022000074,5,0.023000002,1,0,1200,143,1,1199,weekend,11116,2019-10-21_21h28.22.060,SurveyExpMetaMem,3.2.3,Win32,60
,,,,,,,,,,,,,,,,,,,,5,0.009000301,5,0.024000168,1,0,1200,860,1,1199,silk,11116,2019-10-21_21h28.22.060,SurveyExpMetaMem,3.2.3,Win32,60
,,,,,,,,,,,,,,,,,,,,5,0.014000177,5,0.026000261,1,0,1200,813,1,1199,walking,11116,2019-10-21_21h28.22.060,SurveyExpMetaMem,3.2.3,Win32,60
,,,,,,,,,,,,,,,,,,,,5,0.020000219,5,0.014000177,1,0,1200,188,1,1199,profit,11116,2019-10-21_21h28.22.060,SurveyExpMetaMem,3.2.3,Win32,60
,,,,,,,,,,,,,,,,,,,,5,0.022000074,5,0.024000168,1,0,1200,766,1,1199,flag,11116,2019-10-21_21h28.22.060,SurveyExpMetaMem,3.2.3,Win32,60
,,,,,,,,,,,,,,,,,,,,5,0.012000084,5,0.025000095,1,0,1200,48,1,1199,excellence,11116,2019-10-21_21h28.22.060,SurveyExpMetaMem,3.2.3,Win32,60
,,,,,,,,,,,,,,,,,,,,5,0.019999981,5,0.012000084,1,0,1200,1173,1,1199,lurk,11116,2019-10-21_21h28.22.060,SurveyExpMetaMem,3.2.3,Win32,60
,,,,,,,,,,,,,,,,,,,,5,0.022000074,5,0.02300024,1,0,1200,1000,1,1199,threat,11116,2019-10-21_21h28.22.060,SurveyExpMetaMem,3.2.3,Win32,60
,,,,,,,,,,,,,,,,,,,,5,0.009000063,5,0.024000168,1,0,1200,18,1,1199,mail,11116,2019-10-21_21h28.22.060,SurveyExpMetaMem,3.2.3,Win32,60
,,,,,,,,,,,,,,,,,,,,5,0.022000074,5,0.010000229,1,0,1200,749,1,1199,glasses,11116,2019-10-21_21h28.22.060,SurveyExpMetaMem,3.2.3,Win32,60
,,,,,,,,,,,,,,,,,,,,5,0.020000219,5,0.016000032,1,0,1200,853,1,1199,breeze,11116,2019-10-21_21h28.22.060,SurveyExpMetaMem,3.2.3,Win32,60
,,,,,,,,,,,,,,,,,,,,5,0.022000074,5,0.024000168,1,0,1200,517,1,1199,habit,11116,2019-10-21_21h28.22.060,SurveyExpMetaMem,3.2.3,Win32,60
,,,,,,,,,,,,,,,,,,,,5,0.00999999,5,0.024000168,1,0,1200,1167,1,1199,bribe,11116,2019-10-21_21h28.22.060,SurveyExpMetaMem,3.2.3,Win32,60
,,,,,,,,,,,,,,,,,,,,5,0.02300024,5,0.010000229,1,0,1200,38,1,1199,cheeseburger,11116,2019-10-21_21h28.22.060,SurveyExpMetaMem,3.2.3,Win32,60
,,,,,,,,,,,,,,,,,,,,5,0.035000086,5,0.010000229,1,0,1200,982,1,1199,robbery,11116,2019-10-21_21h28.22.060,SurveyExpMetaMem,3.2.3,Win32,60
,,,,,,,,,,,,,,,,,,,,5,0.00600028,5,0.020000219,1,0,1200,551,1,1199,coal,11116,2019-10-21_21h28.22.060,SurveyExpMetaMem,3.2.3,Win32,60
,,,,,,,,,,,,,,,,,,,,5,0.010000229,5,0.021000147,1,0,1200,842,1,1199,breathe,11116,2019-10-21_21h28.22.060,SurveyExpMetaMem,3.2.3,Win32,60
,,,,,,,,,,,,,,,,,,,,5,0.015000105,5,0.02300024,1,0,1200,723,1,1199,cinnamon,11116,2019-10-21_21h28.22.060,SurveyExpMetaMem,3.2.3,Win32,60
,,,,,,,,,,,,,,,,,,,,5,0.019000053,5,0.009000063,1,0,1200,408,1,1199,bore,11116,2019-10-21_21h28.22.060,SurveyExpMetaMem,3.2.3,Win32,60
,,,,,,,,,,,,,,,,,,,,5,0.019000053,5,0.01300025,1,0,1200,392,1,1199,moody,11116,2019-10-21_21h28.22.060,SurveyExpMetaMem,3.2.3,Win32,60
,,,,,,,,,,,,,,,,,,,,5,0.025000095,5,0.020000219,1,0,1200,617,1,1199,tomato,11116,2019-10-21_21h28.22.060,SurveyExpMetaMem,3.2.3,Win32,60
,,,,,,,,,,,,,,,,,,,,5,0.011000156,5,0.025000095,1,0,1200,491,1,1199,meek,11116,2019-10-21_21h28.22.060,SurveyExpMetaMem,3.2.3,Win32,60
,,,,,,,,,,,,,,,,,,,,5,0.020000219,5,0.012000084,1,0,1200,1074,1,1199,detain,11116,2019-10-21_21h28.22.060,SurveyExpMetaMem,3.2.3,Win32,60
,,,,,,,,,,,,,,,,,,,,5,0.019000053,5,0.016000032,1,0,1200,636,1,1199,refine,11116,2019-10-21_21h28.22.060,SurveyExpMetaMem,3.2.3,Win32,60
,,,,,,,,,,,,,,,,,,,,5,0.023000002,5,0.022000074,1,0,1200,930,1,1199,poison,11116,2019-10-21_21h28.22.060,SurveyExpMetaMem,3.2.3,Win32,60
,,,,,,,,,,,,,,,,,,,,5,0.010000229,5,0.022000074,1,0,1200,1087,1,1199,affair,11116,2019-10-21_21h28.22.060,SurveyExpMetaMem,3.2.3,Win32,60
,,,,,,,,,,,,,,,,,,,,5,0.020000219,5,0.00999999,1,0,1200,569,1,1199,onion,11116,2019-10-21_21h28.22.060,SurveyExpMetaMem,3.2.3,Win32,60
,,,,,,,,,,,,,,,,,,,,5,0.020000219,5,0.00999999,1,0,1200,115,1,1199,sexual,11116,2019-10-21_21h28.22.060,SurveyExpMetaMem,3.2.3,Win32,60
,,,,,,,,,,,,,,,,,,,,5,0.021000147,5,0.022000074,1,0,1200,595,1,1199,vacuum,11116,2019-10-21_21h28.22.060,SurveyExpMetaMem,3.2.3,Win32,60
,,,,,,,,,,,,,,,,,,,,5,0.00600028,5,0.022000074,1,0,1200,6,1,1199,chest,11116,2019-10-21_21h28.22.060,SurveyExpMetaMem,3.2.3,Win32,60
,,,,,,,,,,,,,,,,,,,,5,0.00999999,5,0.024000168,1,0,1200,496,1,1199,slow,11116,2019-10-21_21h28.22.060,SurveyExpMetaMem,3.2.3,Win32,60
,,,,,,,,,,,,,,,,,,,,5,0.021000147,5,0.011000156,1,0,1200,469,1,1199,resent,11116,2019-10-21_21h28.22.060,SurveyExpMetaMem,3.2.3,Win32,60
,,,,,,,,,,,,,,,,,,,,5,0.022000074,5,0.013000011,1,0,1200,260,1,1199,control,11116,2019-10-21_21h28.22.060,SurveyExpMetaMem,3.2.3,Win32,60
,,,,,,,,,,,,,,,,,,,,5,0.02300024,5,0.023000002,1,0,1200,911,1,1199,rejection,11116,2019-10-21_21h28.22.060,SurveyExpMetaMem,3.2.3,Win32,60
,,,,,,,,,,,,,,,,,,,,5,0.010000229,5,0.025000095,1,0,1200,1015,1,1199,frighten,11116,2019-10-21_21h28.22.060,SurveyExpMetaMem,3.2.3,Win32,60
,,,,,,,,,,,,,,,,,,,,5,0.021000147,5,0.011000156,1,0,1200,810,1,1199,polite,11116,2019-10-21_21h28.22.060,SurveyExpMetaMem,3.2.3,Win32,60
,,,,,,,,,,,,,,,,,,,,5,0.021000147,5,0.015000105,1,0,1200,990,1,1199,enraged,11116,2019-10-21_21h28.22.060,SurveyExpMetaMem,3.2.3,Win32,60
,,,,,,,,,,,,,,,,,,,,5,0.022000074,5,0.023000002,1,0,1200,792,1,1199,moral,11116,2019-10-21_21h28.22.060,SurveyExpMetaMem,3.2.3,Win32,60
,,,,,,,,,,,,,,,,,,,,5,0.010000229,5,0.024000168,1,0,1200,698,1,1199,oven,11116,2019-10-21_21h28.22.060,SurveyExpMetaMem,3.2.3,Win32,60
,,,,,,,,,,,,,,,,,,,,5,0.01300025,5,0.025000095,1,0,1200,863,1,1199,fireplace,11116,2019-10-21_21h28.22.060,SurveyExpMetaMem,3.2.3,Win32,60
,,,,,,,,,,,,,,,,,,,,5,0.020000219,5,0.012000322,1,0,1200,946,1,1199,amputate,11116,2019-10-21_21h28.22.060,SurveyExpMetaMem,3.2.3,Win32,60
,,,,,,,,,,,,,,,,,,,,5,0.02300024,5,0.022000313,1,0,1200,206,1,1199,comet,11116,2019-10-21_21h28.22.060,SurveyExpMetaMem,3.2.3,Win32,60
,,,,,,,,,,,,,,,,,,,,5,0.010000229,5,0.021000147,1,0,1200,787,1,1199,dawn,11116,2019-10-21_21h28.22.060,SurveyExpMetaMem,3.2.3,Win32,60
,,,,,,,,,,,,,,,,,,,,5,0.011000156,5,0.021000147,1,0,1200,572,1,1199,cast,11116,2019-10-21_21h28.22.060,SurveyExpMetaMem,3.2.3,Win32,60
,,,,,,,,,,,,,,,,,,,,5,0.024000168,5,0.013000011,1,0,1200,403,1,1199,wither,11116,2019-10-21_21h28.22.060,SurveyExpMetaMem,3.2.3,Win32,60
,,,,,,,,,,,,,,,,,,,,5,0.020000219,5,0.022000074,1,0,1200,317,1,1199,cry,11116,2019-10-21_21h28.22.060,SurveyExpMetaMem,3.2.3,Win32,60
,,,,,,,,,,,,,,,,,,,,5,0.009000063,5,0.022000313,1,0,1200,303,1,1199,death,11116,2019-10-21_21h28.22.060,SurveyExpMetaMem,3.2.3,Win32,60
,,,,,,,,,,,,,,,,,,,,5,0.011000156,5,0.023000002,1,0,1200,1068,1,1199,riot,11116,2019-10-21_21h28.22.060,SurveyExpMetaMem,3.2.3,Win32,60
,,,,,,,,,,,,,,,,,,,,5,0.022000074,5,0.010000229,1,0,1200,758,1,1199,camera,11116,2019-10-21_21h28.22.060,SurveyExpMetaMem,3.2.3,Win32,60
,,,,,,,,,,,,,,,,,,,,5,0.020000219,5,0.014000177,1,0,1200,709,1,1199,ancestor,11116,2019-10-21_21h28.22.060,SurveyExpMetaMem,3.2.3,Win32,60
,,,,,,,,,,,,,,,,,,,,5,0.022000313,5,0.024000168,1,0,1200,940,1,1199,war,11116,2019-10-21_21h28.22.060,SurveyExpMetaMem,3.2.3,Win32,60
,,,,,,,,,,,,,,,,,,,,5,0.00999999,5,0.021000147,1,0,1200,1156,1,1199,weapon,11116,2019-10-21_21h28.22.060,SurveyExpMetaMem,3.2.3,Win32,60
,,,,,,,,,,,,,,,,,,,,5,0.055000067,5,0.011000156,1,0,1200,465,1,1199,void,11116,2019-10-21_21h28.22.060,SurveyExpMetaMem,3.2.3,Win32,60
,,,,,,,,,,,,,,,,,,,,5,0.010000229,5,0.009000063,1,0,1200,94,1,1199,engaged,11116,2019-10-21_21h28.22.060,SurveyExpMetaMem,3.2.3,Win32,60
,,,,,,,,,,,,,,,,,,,,5,0.019000292,5,0.009000063,1,0,1200,1187,1,1199,drill,11116,2019-10-21_21h28.22.060,SurveyExpMetaMem,3.2.3,Win32,60
,,,,,,,,,,,,,,,,,,,,5,0.022000313,5,0.012000084,1,0,1200,179,1,1199,star,11116,2019-10-21_21h28.22.060,SurveyExpMetaMem,3.2.3,Win32,60
,,,,,,,,,,,,,,,,,,,,5,0.022000074,5,0.023000002,1,0,1200,346,1,1199,alcoholism,11116,2019-10-21_21h28.22.060,SurveyExpMetaMem,3.2.3,Win32,60
,,,,,,,,,,,,,,,,,,,,5,0.009000301,5,0.023999929,1,0,1200,784,1,1199,logical,11116,2019-10-21_21h28.22.060,SurveyExpMetaMem,3.2.3,Win32,60
,,,,,,,,,,,,,,,,,,,,5,0.01300025,5,0.026000261,1,0,1200,1112,1,1199,pressure,11116,2019-10-21_21h28.22.060,SurveyExpMetaMem,3.2.3,Win32,60
,,,,,,,,,,,,,,,,,,,,5,0.021000147,5,0.01300025,1,0,1200,156,1,1199,gym,11116,2019-10-21_21h28.22.060,SurveyExpMetaMem,3.2.3,Win32,60
,,,,,,,,,,,,,,,,,,,,5,0.024000168,5,0.024000168,1,0,1200,145,1,1199,me,11116,2019-10-21_21h28.22.060,SurveyExpMetaMem,3.2.3,Win32,60
,,,,,,,,,,,,,,,,,,,,5,0.010000229,5,0.025000334,1,0,1200,906,1,1199,syphilis,11116,2019-10-21_21h28.22.060,SurveyExpMetaMem,3.2.3,Win32,60
,,,,,,,,,,,,,,,,,,,,5,0.020000219,5,0.011000156,1,0,1200,36,1,1199,puppy,11116,2019-10-21_21h28.22.060,SurveyExpMetaMem,3.2.3,Win32,60
,,,,,,,,,,,,,,,,,,,,5,0.021000147,5,0.017000198,1,0,1200,845,1,1199,honey,11116,2019-10-21_21h28.22.060,SurveyExpMetaMem,3.2.3,Win32,60
,,,,,,,,,,,,,,,,,,,,5,0.025000095,5,0.024000168,1,0,1200,168,1,1199,mate,11116,2019-10-21_21h28.22.060,SurveyExpMetaMem,3.2.3,Win32,60
,,,,,,,,,,,,,,,,,,,,5,0.014000177,5,0.024000168,1,0,1200,111,1,1199,band,11116,2019-10-21_21h28.22.060,SurveyExpMetaMem,3.2.3,Win32,60
,,,,,,,,,,,,,,,,,,,,5,0.024000168,5,0.014000177,1,0,1200,858,1,1199,donate,11116,2019-10-21_21h28.22.060,SurveyExpMetaMem,3.2.3,Win32,60
,,,,,,,,,,,,,,,,,,,,5,0.02300024,5,0.025000095,1,0,1200,287,1,1199,optimistic,11116,2019-10-21_21h28.22.060,SurveyExpMetaMem,3.2.3,Win32,60
,,,,,,,,,,,,,,,,,,,,5,0.009000063,5,0.024000168,1,0,1200,929,1,1199,mutilation,11116,2019-10-21_21h28.22.060,SurveyExpMetaMem,3.2.3,Win32,60
,,,,,,,,,,,,,,,,,,,,5,0.014000177,5,0.024000168,1,0,1200,412,1,1199,mucus,11116,2019-10-21_21h28.22.060,SurveyExpMetaMem,3.2.3,Win32,60
,,,,,,,,,,,,,,,,,,,,5,0.022000074,5,0.014000177,1,0,1200,369,1,1199,blind,11116,2019-10-21_21h28.22.060,SurveyExpMetaMem,3.2.3,Win32,60
,,,,,,,,,,,,,,,,,,,,5,0.022000074,5,0.024000168,1,0,1200,1133,1,1199,slip,11116,2019-10-21_21h28.22.060,SurveyExpMetaMem,3.2.3,Win32,60
,,,,,,,,,,,,,,,,,,,,5,0.013000011,5,0.009000063,1,0,1200,861,1,1199,nectar,11116,2019-10-21_21h28.22.060,SurveyExpMetaMem,3.2.3,Win32,60
,,,,,,,,,,,,,,,,,,,,5,0.012000084,5,0.024000168,1,0,1200,1172,1,1199,overwhelmed,11116,2019-10-21_21h28.22.060,SurveyExpMetaMem,3.2.3,Win32,60
,,,,,,,,,,,,,,,,,,,,5,0.022000074,5,0.00999999,1,0,1200,558,1,1199,punk,11116,2019-10-21_21h28.22.060,SurveyExpMetaMem,3.2.3,Win32,60
,,,,,,,,,,,,,,,,,,,,5,0.021000147,5,0.022000074,1,0,1200,716,1,1199,blouse,11116,2019-10-21_21h28.22.060,SurveyExpMetaMem,3.2.3,Win32,60
,,,,,,,,,,,,,,,,,,,,5,0.009000301,5,0.025000095,1,0,1200,1125,1,1199,outrage,11116,2019-10-21_21h28.22.060,SurveyExpMetaMem,3.2.3,Win32,60
,,,,,,,,,,,,,,,,,,,,5,0.010000229,5,0.024000168,1,0,1200,185,1,1199,flirt,11116,2019-10-21_21h28.22.060,SurveyExpMetaMem,3.2.3,Win32,60
,,,,,,,,,,,,,,,,,,,,5,0.014000177,5,0.024000168,1,0,1200,1189,1,1199,lava,11116,2019-10-21_21h28.22.060,SurveyExpMetaMem,3.2.3,Win32,60
,,,,,,,,,,,,,,,,,,,,5,0.020000219,5,0.011000156,1,0,1200,265,1,1199,invent,11116,2019-10-21_21h28.22.060,SurveyExpMetaMem,3.2.3,Win32,60
,,,,,,,,,,,,,,,,,,,,5,0.021000147,5,0.025000095,1,0,1200,170,1,1199,entertainment,11116,2019-10-21_21h28.22.060,SurveyExpMetaMem,3.2.3,Win32,60
,,,,,,,,,,,,,,,,,,,,5,0.009000063,5,0.022000074,1,0,1200,105,1,1199,curious,11116,2019-10-21_21h28.22.060,SurveyExpMetaMem,3.2.3,Win32,60
,,,,,,,,,,,,,,,,,,,,5,0.014000177,5,0.024000168,1,0,1200,869,1,1199,assure,11116,2019-10-21_21h28.22.060,SurveyExpMetaMem,3.2.3,Win32,60
,,,,,,,,,,,,,,,,,,,,5,0.022000074,5,0.012000084,1,0,1200,1018,1,1199,distress,11116,2019-10-21_21h28.22.060,SurveyExpMetaMem,3.2.3,Win32,60
,,,,,,,,,,,,,,,,,,,,5,0.021000147,5,0.024000168,1,0,1200,1118,1,1199,frantic,11116,2019-10-21_21h28.22.060,SurveyExpMetaMem,3.2.3,Win32,60
,,,,,,,,,,,,,,,,,,,,5,0.008000135,5,0.02300024,1,0,1200,667,1,1199,dew,11116,2019-10-21_21h28.22.060,SurveyExpMetaMem,3.2.3,Win32,60
,,,,,,,,,,,,,,,,,,,,5,0.009000063,5,0.024000168,1,0,1200,961,1,1199,crucify,11116,2019-10-21_21h28.22.060,SurveyExpMetaMem,3.2.3,Win32,60
,,,,,,,,,,,,,,,,,,,,5,0.022000074,5,0.012000084,1,0,1200,746,1,1199,proper,11116,2019-10-21_21h28.22.060,SurveyExpMetaMem,3.2.3,Win32,60
,,,,,,,,,,,,,,,,,,,,5,0.016000271,5,0.01699996,1,0,1200,184,1,1199,surprised,11116,2019-10-21_21h28.22.060,SurveyExpMetaMem,3.2.3,Win32,60
,,,,,,,,,,,,,,,,,,,,5,0.031000137,5,0.011000156,1,0,1200,291,1,1199,fantastic,11116,2019-10-21_21h28.22.060,SurveyExpMetaMem,3.2.3,Win32,60
,,,,,,,,,,,,,,,,,,,,5,0.022000074,5,0.024000168,1,0,1200,632,1,1199,avenue,11116,2019-10-21_21h28.22.060,SurveyExpMetaMem,3.2.3,Win32,60
,,,,,,,,,,,,,,,,,,,,5,0.008000135,5,0.025000095,1,0,1200,540,1,1199,derelict,11116,2019-10-21_21h28.22.060,SurveyExpMetaMem,3.2.3,Win32,60
,,,,,,,,,,,,,,,,,,,,5,0.00999999,5,0.022000074,1,0,1200,1164,1,1199,battle,11116,2019-10-21_21h28.22.060,SurveyExpMetaMem,3.2.3,Win32,60
,,,,,,,,,,,,,,,,,,,,5,0.020000219,5,0.009000063,1,0,1200,964,1,1199,grieve,11116,2019-10-21_21h28.22.060,SurveyExpMetaMem,3.2.3,Win32,60
,,,,,,,,,,,,,,,,,,,,5,0.020000219,5,0.013000011,1,0,1200,374,1,1199,sluggish,11116,2019-10-21_21h28.22.060,SurveyExpMetaMem,3.2.3,Win32,60
,,,,,,,,,,,,,,,,,,,,5,0.02300024,5,0.024000168,1,0,1200,1097,1,1199,bees,11116,2019-10-21_21h28.22.060,SurveyExpMetaMem,3.2.3,Win32,60
,,,,,,,,,,,,,,,,,,,,5,0.009000063,5,0.02300024,1,0,1200,431,1,1199,itch,11116,2019-10-21_21h28.22.060,SurveyExpMetaMem,3.2.3,Win32,60
,,,,,,,,,,,,,,,,,,,,5,0.021000147,5,0.011000156,1,0,1200,646,1,1199,wear,11116,2019-10-21_21h28.22.060,SurveyExpMetaMem,3.2.3,Win32,60
,,,,,,,,,,,,,,,,,,,,5,0.021000147,5,0.012000084,1,0,1200,357,1,1199,whine,11116,2019-10-21_21h28.22.060,SurveyExpMetaMem,3.2.3,Win32,60
,,,,,,,,,,,,,,,,,,,,5,0.022000313,5,0.02300024,1,0,1200,189,1,1199,thoughtful,11116,2019-10-21_21h28.22.060,SurveyExpMetaMem,3.2.3,Win32,60
,,,,,,,,,,,,,,,,,,,,5,0.015000105,5,0.010000229,1,0,1200,786,1,1199,afternoon,11116,2019-10-21_21h28.22.060,SurveyExpMetaMem,3.2.3,Win32,60
,,,,,,,,,,,,,,,,,,,,5,0.022000074,5,0.009000063,1,0,1200,828,1,1199,cooperative,11116,2019-10-21_21h28.22.060,SurveyExpMetaMem,3.2.3,Win32,60
,,,,,,,,,,,,,,,,,,,,5,0.021000147,5,0.01300025,1,0,1200,516,1,1199,smug,11116,2019-10-21_21h28.22.060,SurveyExpMetaMem,3.2.3,Win32,60
,,,,,,,,,,,,,,,,,,,,5,0.022000074,5,0.024000168,1,0,1200,411,1,1199,bitter,11116,2019-10-21_21h28.22.060,SurveyExpMetaMem,3.2.3,Win32,60
,,,,,,,,,,,,,,,,,,,,5,0.009000301,5,0.022000074,1,0,1200,407,1,1199,handicap,11116,2019-10-21_21h28.22.060,SurveyExpMetaMem,3.2.3,Win32,60
,,,,,,,,,,,,,,,,,,,,5,0.012000322,5,0.022000074,1,0,1200,1067,1,1199,wicked,11116,2019-10-21_21h28.22.060,SurveyExpMetaMem,3.2.3,Win32,60
,,,,,,,,,,,,,,,,,,,,5,0.020000219,5,0.011000156,1,0,1200,400,1,1199,urine,11116,2019-10-21_21h28.22.060,SurveyExpMetaMem,3.2.3,Win32,60
,,,,,,,,,,,,,,,,,,,,5,0.020000219,5,0.015000343,1,0,1200,952,1,1199,troubled,11116,2019-10-21_21h28.22.060,SurveyExpMetaMem,3.2.3,Win32,60
,,,,,,,,,,,,,,,,,,,,5,0.02300024,5,0.024000168,1,0,1200,263,1,1199,answer,11116,2019-10-21_21h28.22.060,SurveyExpMetaMem,3.2.3,Win32,60
,,,,,,,,,,,,,,,,,,,,5,0.009000301,5,0.02300024,1,0,1200,157,1,1199,reveal,11116,2019-10-21_21h28.22.060,SurveyExpMetaMem,3.2.3,Win32,60
,,,,,,,,,,,,,,,,,,,,5,0.011000156,5,0.024000168,1,0,1200,651,1,1199,bathroom,11116,2019-10-21_21h28.22.060,SurveyExpMetaMem,3.2.3,Win32,60
,,,,,,,,,,,,,,,,,,,,5,0.022000074,5,0.01300025,1,0,1200,136,1,1199,dog,11116,2019-10-21_21h28.22.060,SurveyExpMetaMem,3.2.3,Win32,60
,,,,,,,,,,,,,,,,,,,,5,0.020000219,5,0.014000177,1,0,1200,269,1,1199,extravagant,11116,2019-10-21_21h28.22.060,SurveyExpMetaMem,3.2.3,Win32,60
,,,,,,,,,,,,,,,,,,,,5,0.022000074,5,0.022000313,1,0,1200,587,1,1199,dissolve,11116,2019-10-21_21h28.22.060,SurveyExpMetaMem,3.2.3,Win32,60
,,,,,,,,,,,,,,,,,,,,5,0.009000063,5,0.022000074,1,0,1200,1024,1,1199,burn,11116,2019-10-21_21h28.22.060,SurveyExpMetaMem,3.2.3,Win32,60
,,,,,,,,,,,,,,,,,,,,5,0.014000177,5,0.025000095,1,0,1200,417,1,1199,dummy,11116,2019-10-21_21h28.22.060,SurveyExpMetaMem,3.2.3,Win32,60
,,,,,,,,,,,,,,,,,,,,5,0.021000147,5,0.01300025,1,0,1200,196,1,1199,smile,11116,2019-10-21_21h28.22.060,SurveyExpMetaMem,3.2.3,Win32,60
,,,,,,,,,,,,,,,,,,,,5,0.022000074,5,0.021000147,1,0,1200,688,1,1199,jelly,11116,2019-10-21_21h28.22.060,SurveyExpMetaMem,3.2.3,Win32,60
,,,,,,,,,,,,,,,,,,,,5,0.011000156,5,0.02300024,1,0,1200,837,1,1199,responsible,11116,2019-10-21_21h28.22.060,SurveyExpMetaMem,3.2.3,Win32,60
,,,,,,,,,,,,,,,,,,,,5,0.015000105,5,0.026000023,1,0,1200,195,1,1199,laughing,11116,2019-10-21_21h28.22.060,SurveyExpMetaMem,3.2.3,Win32,60
,,,,,,,,,,,,,,,,,,,,5,0.021000147,5,0.013000011,1,0,1200,739,1,1199,seagull,11116,2019-10-21_21h28.22.060,SurveyExpMetaMem,3.2.3,Win32,60
,,,,,,,,,,,,,,,,,,,,5,0.022000313,5,0.021000147,1,0,1200,503,1,1199,sludge,11116,2019-10-21_21h28.22.060,SurveyExpMetaMem,3.2.3,Win32,60
,,,,,,,,,,,,,,,,,,,,5,0.008000135,5,0.029000282,1,0,1200,171,1,1199,imagination,11116,2019-10-21_21h28.22.060,SurveyExpMetaMem,3.2.3,Win32,60
,,,,,,,,,,,,,,,,,,,,5,0.017000198,5,0.025000095,1,0,1200,419,1,1199,immature,11116,2019-10-21_21h28.22.060,SurveyExpMetaMem,3.2.3,Win32,60
,,,,,,,,,,,,,,,,,,,,5,0.020000219,5,0.01300025,1,0,1200,122,1,1199,prince,11116,2019-10-21_21h28.22.060,SurveyExpMetaMem,3.2.3,Win32,60
,,,,,,,,,,,,,,,,,,,,5,0.019999981,5,0.019000053,1,0,1200,805,1,1199,autumn,11116,2019-10-21_21h28.22.060,SurveyExpMetaMem,3.2.3,Win32,60
,,,,,,,,,,,,,,,,,,,,5,0.008000135,5,0.024000168,1,0,1200,717,1,1199,modest,11116,2019-10-21_21h28.22.060,SurveyExpMetaMem,3.2.3,Win32,60
,,,,,,,,,,,,,,,,,,,,5,0.010000229,5,0.023000002,1,0,1200,885,1,1199,cozy,11116,2019-10-21_21h28.22.060,SurveyExpMetaMem,3.2.3,Win32,60
,,,,,,,,,,,,,,,,,,,,5,0.020000219,5,0.010000229,1,0,1200,995,1,1199,cult,11116,2019-10-21_21h28.22.060,SurveyExpMetaMem,3.2.3,Win32,60
,,,,,,,,,,,,,,,,,,,,5,0.022000074,5,0.015000105,1,0,1200,401,1,1199,feeble,11116,2019-10-21_21h28.22.060,SurveyExpMetaMem,3.2.3,Win32,60
,,,,,,,,,,,,,,,,,,,,5,0.022000074,5,0.02300024,1,0,1200,789,1,1199,green,11116,2019-10-21_21h28.22.060,SurveyExpMetaMem,3.2.3,Win32,60
,,,,,,,,,,,,,,,,,,,,5,0.009000063,5,0.023000002,1,0,1200,495,1,1199,dust,11116,2019-10-21_21h28.22.060,SurveyExpMetaMem,3.2.3,Win32,60
,,,,,,,,,,,,,,,,,,,,5,0.014000177,5,0.025000334,1,0,1200,599,1,1199,obstinate,11116,2019-10-21_21h28.22.060,SurveyExpMetaMem,3.2.3,Win32,60
,,,,,,,,,,,,,,,,,,,,5,0.021000147,5,0.013000011,1,0,1200,521,1,1199,laundry,11116,2019-10-21_21h28.22.060,SurveyExpMetaMem,3.2.3,Win32,60
,,,,,,,,,,,,,,,,,,,,5,0.021000147,5,0.02300024,1,0,1200,0,1,1199,dragon,11116,2019-10-21_21h28.22.060,SurveyExpMetaMem,3.2.3,Win32,60
,,,,,,,,,,,,,,,,,,,,5,0.010000229,5,0.024000168,1,0,1200,601,1,1199,roof,11116,2019-10-21_21h28.22.060,SurveyExpMetaMem,3.2.3,Win32,60
,,,,,,,,,,,,,,,,,,,,5,0.014000177,5,0.025000334,1,0,1200,700,1,1199,frog,11116,2019-10-21_21h28.22.060,SurveyExpMetaMem,3.2.3,Win32,60
,,,,,,,,,,,,,,,,,,,,5,0.020000219,5,0.01300025,1,0,1200,1162,1,1199,baffle,11116,2019-10-21_21h28.22.060,SurveyExpMetaMem,3.2.3,Win32,60
,,,,,,,,,,,,,,,,,,,,5,0.021000147,5,0.018000364,1,0,1200,45,1,1199,sex,11116,2019-10-21_21h28.22.060,SurveyExpMetaMem,3.2.3,Win32,60
,,,,,,,,,,,,,,,,,,,,5,0.024000168,5,0.022000313,1,0,1200,4,1,1199,night,11116,2019-10-21_21h28.22.060,SurveyExpMetaMem,3.2.3,Win32,60
,,,,,,,,,,,,,,,,,,,,5,0.011000156,5,0.02300024,1,0,1200,14,1,1199,attain,11116,2019-10-21_21h28.22.060,SurveyExpMetaMem,3.2.3,Win32,60
,,,,,,,,,,,,,,,,,,,,5,0.020000219,5,0.010000229,1,0,1200,681,1,1199,fig,11116,2019-10-21_21h28.22.060,SurveyExpMetaMem,3.2.3,Win32,60
,,,,,,,,,,,,,,,,,,,,5,0.022000074,5,0.014000177,1,0,1200,63,1,1199,clothes,11116,2019-10-21_21h28.22.060,SurveyExpMetaMem,3.2.3,Win32,60
,,,,,,,,,,,,,,,,,,,,5,0.022000074,5,0.022000313,1,0,1200,857,1,1199,thankful,11116,2019-10-21_21h28.22.060,SurveyExpMetaMem,3.2.3,Win32,60
,,,,,,,,,,,,,,,,,,,,5,0.009000063,5,0.024000168,1,0,1200,782,1,1199,open,11116,2019-10-21_21h28.22.060,SurveyExpMetaMem,3.2.3,Win32,60
,,,,,,,,,,,,,,,,,,,,5,0.014000177,5,0.024000168,1,0,1200,68,1,1199,perfect,11116,2019-10-21_21h28.22.060,SurveyExpMetaMem,3.2.3,Win32,60
,,,,,,,,,,,,,,,,,,,,5,0.020000219,5,0.012000322,1,0,1200,198,1,1199,comedy,11116,2019-10-21_21h28.22.060,SurveyExpMetaMem,3.2.3,Win32,60
,,,,,,,,,,,,,,,,,,,,5,0.021000147,5,0.024000168,1,0,1200,1197,1,1199,command,11116,2019-10-21_21h28.22.060,SurveyExpMetaMem,3.2.3,Win32,60
,,,,,,,,,,,,,,,,,,,,5,0.009000063,5,0.024000168,1,0,1200,985,1,1199,pollution,11116,2019-10-21_21h28.22.060,SurveyExpMetaMem,3.2.3,Win32,60
,,,,,,,,,,,,,,,,,,,,5,0.011000156,5,0.02300024,1,0,1200,943,1,1199,trauma,11116,2019-10-21_21h28.22.060,SurveyExpMetaMem,3.2.3,Win32,60
,,,,,,,,,,,,,,,,,,,,5,0.022000074,5,0.00999999,1,0,1200,605,1,1199,year,11116,2019-10-21_21h28.22.060,SurveyExpMetaMem,3.2.3,Win32,60
,,,,,,,,,,,,,,,,,,,,5,0.022000074,5,0.016000032,1,0,1200,492,1,1199,naive,11116,2019-10-21_21h28.22.060,SurveyExpMetaMem,3.2.3,Win32,60
,,,,,,,,,,,,,,,,,,,,5,0.023000002,5,0.022000074,1,0,1200,215,1,1199,salary,11116,2019-10-21_21h28.22.060,SurveyExpMetaMem,3.2.3,Win32,60
,,,,,,,,,,,,,,,,,,,,5,0.00999999,5,0.024000168,1,0,1200,1027,1,1199,criticism,11116,2019-10-21_21h28.22.060,SurveyExpMetaMem,3.2.3,Win32,60
,,,,,,,,,,,,,,,,,,,,5,0.021000147,5,0.010000229,1,0,1200,347,1,1199,unpleasant,11116,2019-10-21_21h28.22.060,SurveyExpMetaMem,3.2.3,Win32,60
,,,,,,,,,,,,,,,,,,,,5,0.021000147,5,0.014000177,1,0,1200,642,1,1199,newspaper,11116,2019-10-21_21h28.22.060,SurveyExpMetaMem,3.2.3,Win32,60
,,,,,,,,,,,,,,,,,,,,5,0.022000074,5,0.022000074,1,0,1200,1196,1,1199,breathless,11116,2019-10-21_21h28.22.060,SurveyExpMetaMem,3.2.3,Win32,60
,,,,,,,,,,,,,,,,,,,,5,0.009000301,5,0.022000074,1,0,1200,718,1,1199,flow,11116,2019-10-21_21h28.22.060,SurveyExpMetaMem,3.2.3,Win32,60
,,,,,,,,,,,,,,,,,,,,5,0.013000011,5,0.025000095,1,0,1200,220,1,1199,reef,11116,2019-10-21_21h28.22.060,SurveyExpMetaMem,3.2.3,Win32,60
,,,,,,,,,,,,,,,,,,,,5,0.019000053,5,0.011000156,1,0,1200,391,1,1199,detach,11116,2019-10-21_21h28.22.060,SurveyExpMetaMem,3.2.3,Win32,60
,,,,,,,,,,,,,,,,,,,,5,0.019000053,5,0.023000002,1,0,1200,892,1,1199,untroubled,11116,2019-10-21_21h28.22.060,SurveyExpMetaMem,3.2.3,Win32,60
,,,,,,,,,,,,,,,,,,,,5,0.009000301,5,0.027000189,1,0,1200,528,1,1199,dirt,11116,2019-10-21_21h28.22.060,SurveyExpMetaMem,3.2.3,Win32,60
,,,,,,,,,,,,,,,,,,,,5,0.026000261,5,0.006999969,1,0,1200,323,1,1199,ungrateful,11116,2019-10-21_21h28.22.060,SurveyExpMetaMem,3.2.3,Win32,60
,,,,,,,,,,,,,,,,,,,,5,0.00600028,5,0.00999999,1,0,1200,470,1,1199,cynical,11116,2019-10-21_21h28.22.060,SurveyExpMetaMem,3.2.3,Win32,60
,,,,,,,,,,,,,,,,,,,,5,0.019000292,5,0.013000011,1,0,1200,996,1,1199,sting,11116,2019-10-21_21h28.22.060,SurveyExpMetaMem,3.2.3,Win32,60
,,,,,,,,,,,,,,,,,,,,5,0.024000168,5,0.024000168,1,0,1200,277,1,1199,cupcake,11116,2019-10-21_21h28.22.060,SurveyExpMetaMem,3.2.3,Win32,60
,,,,,,,,,,,,,,,,,,,,5,0.009000301,5,0.023000002,1,0,1200,1123,1,1199,haunt,11116,2019-10-21_21h28.22.060,SurveyExpMetaMem,3.2.3,Win32,60
,,,,,,,,,,,,,,,,,,,,5,0.012000084,5,0.026000261,1,0,1200,152,1,1199,hire,11116,2019-10-21_21h28.22.060,SurveyExpMetaMem,3.2.3,Win32,60
,,,,,,,,,,,,,,,,,,,,5,0.019000053,5,0.011000156,1,0,1200,754,1,1199,reflection,11116,2019-10-21_21h28.22.060,SurveyExpMetaMem,3.2.3,Win32,60
,,,,,,,,,,,,,,,,,,,,5,0.021000147,5,0.024000168,1,0,1200,881,1,1199,protected,11116,2019-10-21_21h28.22.060,SurveyExpMetaMem,3.2.3,Win32,60
,,,,,,,,,,,,,,,,,,,,5,0.009000301,5,0.024000168,1,0,1200,1169,1,1199,enforcement,11116,2019-10-21_21h28.22.060,SurveyExpMetaMem,3.2.3,Win32,60
,,,,,,,,,,,,,,,,,,,,5,0.011000156,5,0.024000168,1,0,1200,662,1,1199,bib,11116,2019-10-21_21h28.22.060,SurveyExpMetaMem,3.2.3,Win32,60
,,,,,,,,,,,,,,,,,,,,5,0.022000074,5,0.011000156,1,0,1200,443,1,1199,incorrect,11116,2019-10-21_21h28.22.060,SurveyExpMetaMem,3.2.3,Win32,60
,,,,,,,,,,,,,,,,,,,,5,0.021000147,5,0.013999939,1,0,1200,1105,1,1199,flee,11116,2019-10-21_21h28.22.060,SurveyExpMetaMem,3.2.3,Win32,60
,,,,,,,,,,,,,,,,,,,,5,0.024000168,5,0.02300024,1,0,1200,354,1,1199,cowardice,11116,2019-10-21_21h28.22.060,SurveyExpMetaMem,3.2.3,Win32,60
,,,,,,,,,,,,,,,,,,,,5,0.010000229,5,0.025000095,1,0,1200,1178,1,1199,weight,11116,2019-10-21_21h28.22.060,SurveyExpMetaMem,3.2.3,Win32,60
,,,,,,,,,,,,,,,,,,,,5,0.022000313,5,0.013000011,1,0,1200,288,1,1199,tasty,11116,2019-10-21_21h28.22.060,SurveyExpMetaMem,3.2.3,Win32,60
,,,,,,,,,,,,,,,,,,,,5,0.022000313,5,0.024000168,1,0,1200,197,1,1199,happy,11116,2019-10-21_21h28.22.060,SurveyExpMetaMem,3.2.3,Win32,60
,,,,,,,,,,,,,,,,,,,,5,0.012000084,5,0.024000168,1,0,1200,415,1,1199,grime,11116,2019-10-21_21h28.22.060,SurveyExpMetaMem,3.2.3,Win32,60
,,,,,,,,,,,,,,,,,,,,5,0.018000126,5,0.011000395,1,0,1200,753,1,1199,patience,11116,2019-10-21_21h28.22.060,SurveyExpMetaMem,3.2.3,Win32,60
,,,,,,,,,,,,,,,,,,,,5,0.022000313,5,0.014000177,1,0,1200,874,1,1199,butterfly,11116,2019-10-21_21h28.22.060,SurveyExpMetaMem,3.2.3,Win32,60
,,,,,,,,,,,,,,,,,,,,5,0.025000095,5,0.021000147,1,0,1200,549,1,1199,beet,11116,2019-10-21_21h28.22.060,SurveyExpMetaMem,3.2.3,Win32,60
,,,,,,,,,,,,,,,,,,,,5,0.010000229,5,0.021000147,1,0,1200,606,1,1199,easel,11116,2019-10-21_21h28.22.060,SurveyExpMetaMem,3.2.3,Win32,60
,,,,,,,,,,,,,,,,,,,,5,0.020000219,5,0.009000301,1,0,1200,30,1,1199,impressed,11116,2019-10-21_21h28.22.060,SurveyExpMetaMem,3.2.3,Win32,60
,,,,,,,,,,,,,,,,,,,,5,0.020000219,5,0.015000343,1,0,1200,745,1,1199,inform,11116,2019-10-21_21h28.22.060,SurveyExpMetaMem,3.2.3,Win32,60
,,,,,,,,,,,,,,,,,,,,5,0.024000168,5,0.022000074,1,0,1200,155,1,1199,ignite,11116,2019-10-21_21h28.22.060,SurveyExpMetaMem,3.2.3,Win32,60
,,,,,,,,,,,,,,,,,,,,5,0.011000156,5,0.024000168,1,0,1200,349,1,1199,mope,11116,2019-10-21_21h28.22.060,SurveyExpMetaMem,3.2.3,Win32,60
,,,,,,,,,,,,,,,,,,,,5,0.019000292,5,0.012000322,1,0,1200,550,1,1199,fart,11116,2019-10-21_21h28.22.060,SurveyExpMetaMem,3.2.3,Win32,60
,,,,,,,,,,,,,,,,,,,,5,0.021000147,5,0.022000074,1,0,1200,568,1,1199,therapy,11116,2019-10-21_21h28.22.060,SurveyExpMetaMem,3.2.3,Win32,60
,,,,,,,,,,,,,,,,,,,,5,0.008000135,5,0.022000313,1,0,1200,377,1,1199,complain,11116,2019-10-21_21h28.22.060,SurveyExpMetaMem,3.2.3,Win32,60
,,,,,,,,,,,,,,,,,,,,5,0.014000177,5,0.025000095,1,0,1200,899,1,1199,relax,11116,2019-10-21_21h28.22.060,SurveyExpMetaMem,3.2.3,Win32,60
,,,,,,,,,,,,,,,,,,,,5,0.019000292,5,0.015000105,1,0,1200,1020,1,1199,malice,11116,2019-10-21_21h28.22.060,SurveyExpMetaMem,3.2.3,Win32,60
,,,,,,,,,,,,,,,,,,,,5,0.02300024,5,0.024000168,1,0,1200,518,1,1199,report,11116,2019-10-21_21h28.22.060,SurveyExpMetaMem,3.2.3,Win32,60
,,,,,,,,,,,,,,,,,,,,5,0.012000084,5,0.023000002,1,0,1200,355,1,1199,graveyard,11116,2019-10-21_21h28.22.060,SurveyExpMetaMem,3.2.3,Win32,60
,,,,,,,,,,,,,,,,,,,,5,0.022000313,5,0.010000229,1,0,1200,1023,1,1199,disorder,11116,2019-10-21_21h28.22.060,SurveyExpMetaMem,3.2.3,Win32,60
,,,,,,,,,,,,,,,,,,,,5,0.021000147,5,0.023000002,1,0,1200,356,1,1199,mucous,11116,2019-10-21_21h28.22.060,SurveyExpMetaMem,3.2.3,Win32,60
,,,,,,,,,,,,,,,,,,,,5,0.019000292,5,0.016000271,1,0,1200,975,1,1199,insecure,11116,2019-10-21_21h28.22.060,SurveyExpMetaMem,3.2.3,Win32,60
,,,,,,,,,,,,,,,,,,,,5,0.024000168,5,0.024000168,1,0,1200,100,1,1199,intense,11116,2019-10-21_21h28.22.060,SurveyExpMetaMem,3.2.3,Win32,60
,,,,,,,,,,,,,,,,,,,,5,0.010000229,5,0.029000044,1,0,1200,140,1,1199,riches,11116,2019-10-21_21h28.22.060,SurveyExpMetaMem,3.2.3,Win32,60
,,,,,,,,,,,,,,,,,,,,5,0.019000053,5,0.013000011,1,0,1200,998,1,1199,virus,11116,2019-10-21_21h28.22.060,SurveyExpMetaMem,3.2.3,Win32,60
,,,,,,,,,,,,,,,,,,,,5,0.022000074,5,0.025000095,1,0,1200,701,1,1199,telephone,11116,2019-10-21_21h28.22.060,SurveyExpMetaMem,3.2.3,Win32,60
,,,,,,,,,,,,,,,,,,,,5,0.010000229,5,0.024000168,1,0,1200,1062,1,1199,shoplifter,11116,2019-10-21_21h28.22.060,SurveyExpMetaMem,3.2.3,Win32,60
,,,,,,,,,,,,,,,,,,,,5,0.022000074,5,0.012000084,1,0,1200,991,1,1199,harass,11116,2019-10-21_21h28.22.060,SurveyExpMetaMem,3.2.3,Win32,60
,,,,,,,,,,,,,,,,,,,,5,0.021000147,5,0.018000126,1,0,1200,464,1,1199,tick,11116,2019-10-21_21h28.22.060,SurveyExpMetaMem,3.2.3,Win32,60
,,,,,,,,,,,,,,,,,,,,5,0.019999981,5,0.02300024,1,0,1200,297,1,1199,pleasure,11116,2019-10-21_21h28.22.060,SurveyExpMetaMem,3.2.3,Win32,60
,,,,,,,,,,,,,,,,,,,,5,0.013000011,5,0.024000168,1,0,1200,966,1,1199,regretful,11116,2019-10-21_21h28.22.060,SurveyExpMetaMem,3.2.3,Win32,60
,,,,,,,,,,,,,,,,,,,,5,0.022000313,5,0.01300025,1,0,1200,201,1,1199,gorilla,11116,2019-10-21_21h28.22.060,SurveyExpMetaMem,3.2.3,Win32,60
,,,,,,,,,,,,,,,,,,,,5,0.021000147,5,0.014000177,1,0,1200,774,1,1199,leaves,11116,2019-10-21_21h28.22.060,SurveyExpMetaMem,3.2.3,Win32,60
,,,,,,,,,,,,,,,,,,,,5,59346.654,5,0.454000235,1,0,1200,710,1,1199,gender,11116,2019-10-21_21h28.22.060,SurveyExpMetaMem,3.2.3,Win32,60
,,,,,,,,,,,,,,,,,,,,5,0.010000229,5,0.013000011,1,0,1200,581,1,1199,dork,11116,2019-10-21_21h28.22.060,SurveyExpMetaMem,3.2.3,Win32,60
,,,,,,,,,,,,,,,,,,,,5,0.019000053,5,0.017000198,1,0,1200,1050,1,1199,scorn,11116,2019-10-21_21h28.22.060,SurveyExpMetaMem,3.2.3,Win32,60
,,,,,,,,,,,,,,,,,,,,5,0.010000229,5,0.020000219,1,0,1200,849,1,1199,blue,11116,2019-10-21_21h28.22.060,SurveyExpMetaMem,3.2.3,Win32,60
,,,,,,,,,,,,,,,,,,,,5,0.013000011,5,0.009000301,1,0,1200,666,1,1199,verify,11116,2019-10-21_21h28.22.060,SurveyExpMetaMem,3.2.3,Win32,60
,,,,,,,,,,,,,,,,,,,,5,0.021000147,5,0.014000177,1,0,1200,671,1,1199,windmill,11116,2019-10-21_21h28.22.060,SurveyExpMetaMem,3.2.3,Win32,60
,,,,,,,,,,,,,,,,,,,,5,0.020000219,5,0.024000168,1,0,1200,360,1,1199,dandruff,11116,2019-10-21_21h28.22.060,SurveyExpMetaMem,3.2.3,Win32,60
,,,,,,,,,,,,,,,,,,,,5,0.010000229,5,0.011000395,1,0,1200,458,1,1199,refuse,11116,2019-10-21_21h28.22.060,SurveyExpMetaMem,3.2.3,Win32,60
,,,,,,,,,,,,,,,,,,,,5,0.011000156,5,0.02300024,1,0,1200,627,1,1199,introductory,11116,2019-10-21_21h28.22.060,SurveyExpMetaMem,3.2.3,Win32,60
,,,,,,,,,,,,,,,,,,,,5,0.021000385,5,0.011000156,1,0,1200,343,1,1199,fever,11116,2019-10-21_21h28.22.060,SurveyExpMetaMem,3.2.3,Win32,60
,,,,,,,,,,,,,,,,,,,,5,0.01699996,5,0.012000322,1,0,1200,1021,1,1199,attack,11116,2019-10-21_21h28.22.060,SurveyExpMetaMem,3.2.3,Win32,60
,,,,,,,,,,,,,,,,,,,,5,0.022000074,5,0.024000168,1,0,1200,811,1,1199,tenderness,11116,2019-10-21_21h28.22.060,SurveyExpMetaMem,3.2.3,Win32,60
,,,,,,,,,,,,,,,,,,,,5,0.01300025,5,0.021000147,1,0,1200,1096,1,1199,flood,11116,2019-10-21_21h28.22.060,SurveyExpMetaMem,3.2.3,Win32,60
,,,,,,,,,,,,,,,,,,,,5,0.014000177,5,0.025000095,1,0,1200,1059,1,1199,harsh,11116,2019-10-21_21h28.22.060,SurveyExpMetaMem,3.2.3,Win32,60
,,,,,,,,,,,,,,,,,,,,5,0.021000147,5,0.015000105,1,0,1200,344,1,1199,pessimistic,11116,2019-10-21_21h28.22.060,SurveyExpMetaMem,3.2.3,Win32,60
,,,,,,,,,,,,,,,,,,,,5,0.022000074,5,0.024000168,1,0,1200,66,1,1199,zest,11116,2019-10-21_21h28.22.060,SurveyExpMetaMem,3.2.3,Win32,60
,,,,,,,,,,,,,,,,,,,,5,0.008000374,5,0.022000313,1,0,1200,372,1,1199,inferior,11116,2019-10-21_21h28.22.060,SurveyExpMetaMem,3.2.3,Win32,60
,,,,,,,,,,,,,,,,,,,,5,0.014000177,5,0.024000168,1,0,1200,524,1,1199,sigh,11116,2019-10-21_21h28.22.060,SurveyExpMetaMem,3.2.3,Win32,60
,,,,,,,,,,,,,,,,,,,,5,0.019999981,5,0.01300025,1,0,1200,740,1,1199,groceries,11116,2019-10-21_21h28.22.060,SurveyExpMetaMem,3.2.3,Win32,60
,,,,,,,,,,,,,,,,,,,,5,0.02300024,5,0.019000053,1,0,1200,1017,1,1199,aggravated,11116,2019-10-21_21h28.22.060,SurveyExpMetaMem,3.2.3,Win32,60
,,,,,,,,,,,,,,,,,,,,5,0.023000002,5,0.025000095,1,0,1200,567,1,1199,folly,11116,2019-10-21_21h28.22.060,SurveyExpMetaMem,3.2.3,Win32,60
,,,,,,,,,,,,,,,,,,,,5,0.011000156,5,0.024000168,1,0,1200,5,1,1199,drunk,11116,2019-10-21_21h28.22.060,SurveyExpMetaMem,3.2.3,Win32,60
,,,,,,,,,,,,,,,,,,,,5,0.017000198,5,0.022000074,1,0,1200,255,1,1199,ass,11116,2019-10-21_21h28.22.060,SurveyExpMetaMem,3.2.3,Win32,60
,,,,,,,,,,,,,,,,,,,,5,0.02300024,5,0.011000395,1,0,1200,169,1,1199,aid,11116,2019-10-21_21h28.22.060,SurveyExpMetaMem,3.2.3,Win32,60
,,,,,,,,,,,,,,,,,,,,5,0.024000168,5,0.016000271,1,0,1200,52,1,1199,dare,11116,2019-10-21_21h28.22.060,SurveyExpMetaMem,3.2.3,Win32,60
,,,,,,,,,,,,,,,,,,,,5,0.024000168,5,0.021000147,1,0,1200,939,1,1199,vomit,11116,2019-10-21_21h28.22.060,SurveyExpMetaMem,3.2.3,Win32,60
,,,,,,,,,,,,,,,,,,,,5,0.011000156,5,0.023000002,1,0,1200,1130,1,1199,slut,11116,2019-10-21_21h28.22.060,SurveyExpMetaMem,3.2.3,Win32,60
,,,,,,,,,,,,,,,,,,,,5,0.012000322,5,0.009000063,1,0,1200,217,1,1199,bravery,11116,2019-10-21_21h28.22.060,SurveyExpMetaMem,3.2.3,Win32,60
,,,,,,,,,,,,,,,,,,,,5,0.022000313,5,0.015000105,1,0,1200,183,1,1199,congratulate,11116,2019-10-21_21h28.22.060,SurveyExpMetaMem,3.2.3,Win32,60
,,,,,,,,,,,,,,,,,,,,5,0.024000168,5,0.02300024,1,0,1200,1089,1,1199,ridicule,11116,2019-10-21_21h28.22.060,SurveyExpMetaMem,3.2.3,Win32,60
,,,,,,,,,,,,,,,,,,,,5,0.010000229,5,0.028000116,1,0,1200,596,1,1199,factory,11116,2019-10-21_21h28.22.060,SurveyExpMetaMem,3.2.3,Win32,60
,,,,,,,,,,,,,,,,,,,,5,0.024000168,5,0.011000156,1,0,1200,989,1,1199,banish,11116,2019-10-21_21h28.22.060,SurveyExpMetaMem,3.2.3,Win32,60
,,,,,,,,,,,,,,,,,,,,5,0.017000198,5,0.011000156,1,0,1200,1043,1,1199,scold,11116,2019-10-21_21h28.22.060,SurveyExpMetaMem,3.2.3,Win32,60
,,,,,,,,,,,,,,,,,,,,5,0.022000313,5,0.015000105,1,0,1200,825,1,1199,swan,11116,2019-10-21_21h28.22.060,SurveyExpMetaMem,3.2.3,Win32,60
,,,,,,,,,,,,,,,,,,,,5,0.008000135,5,0.02300024,1,0,1200,987,1,1199,disgusted,11116,2019-10-21_21h28.22.060,SurveyExpMetaMem,3.2.3,Win32,60
,,,,,,,,,,,,,,,,,,,,5,0.015000343,5,0.02300024,1,0,1200,135,1,1199,applause,11116,2019-10-21_21h28.22.060,SurveyExpMetaMem,3.2.3,Win32,60
,,,,,,,,,,,,,,,,,,,,5,0.022000074,5,0.011000156,1,0,1200,253,1,1199,soldier,11116,2019-10-21_21h28.22.060,SurveyExpMetaMem,3.2.3,Win32,60
,,,,,,,,,,,,,,,,,,,,5,0.020000219,5,0.021000147,1,0,1200,534,1,1199,rules,11116,2019-10-21_21h28.22.060,SurveyExpMetaMem,3.2.3,Win32,60
,,,,,,,,,,,,,,,,,,,,5,0.010000229,5,0.023000002,1,0,1200,1101,1,1199,scary,11116,2019-10-21_21h28.22.060,SurveyExpMetaMem,3.2.3,Win32,60
,,,,,,,,,,,,,,,,,,,,5,0.011000156,5,0.027000189,1,0,1200,891,1,1199,kind,11116,2019-10-21_21h28.22.060,SurveyExpMetaMem,3.2.3,Win32,60
,,,,,,,,,,,,,,,,,,,,5,0.021000147,5,0.012000084,1,0,1200,434,1,1199,frail,11116,2019-10-21_21h28.22.060,SurveyExpMetaMem,3.2.3,Win32,60
,,,,,,,,,,,,,,,,,,,,5,0.020000219,5,0.013000011,1,0,1200,798,1,1199,crystal,11116,2019-10-21_21h28.22.060,SurveyExpMetaMem,3.2.3,Win32,60
,,,,,,,,,,,,,,,,,,,,5,0.022000313,5,0.024000168,1,0,1200,703,1,1199,book,11116,2019-10-21_21h28.22.060,SurveyExpMetaMem,3.2.3,Win32,60
,,,,,,,,,,,,,,,,,,,,5,0.010000229,5,0.02300024,1,0,1200,1113,1,1199,dagger,11116,2019-10-21_21h28.22.060,SurveyExpMetaMem,3.2.3,Win32,60
,,,,,,,,,,,,,,,,,,,,5,0.020000219,5,0.010000229,1,0,1200,20,1,1199,climax,11116,2019-10-21_21h28.22.060,SurveyExpMetaMem,3.2.3,Win32,60
,,,,,,,,,,,,,,,,,,,,5,0.017000198,5,0.015000105,1,0,1200,103,1,1199,conquest,11116,2019-10-21_21h28.22.060,SurveyExpMetaMem,3.2.3,Win32,60
,,,,,,,,,,,,,,,,,,,,5,0.022000074,5,0.019999981,1,0,1200,467,1,1199,FALSE,11116,2019-10-21_21h28.22.060,SurveyExpMetaMem,3.2.3,Win32,60
,,,,,,,,,,,,,,,,,,,,5,0.010000229,5,0.010000229,1,0,1200,248,1,1199,win,11116,2019-10-21_21h28.22.060,SurveyExpMetaMem,3.2.3,Win32,60
,,,,,,,,,,,,,,,,,,,,5,0.010000229,5,0.008000135,1,0,1200,988,1,1199,deserter,11116,2019-10-21_21h28.22.060,SurveyExpMetaMem,3.2.3,Win32,60
,,,,,,,,,,,,,,,,,,,,5,0.02300024,5,0.017000198,1,0,1200,200,1,1199,preach,11116,2019-10-21_21h28.22.060,SurveyExpMetaMem,3.2.3,Win32,60
,,,,,,,,,,,,,,,,,,,,5,0.022000074,5,0.023000002,1,0,1200,685,1,1199,makeup,11116,2019-10-21_21h28.22.060,SurveyExpMetaMem,3.2.3,Win32,60
,,,,,,,,,,,,,,,,,,,,5,0.012000084,5,0.025000095,1,0,1200,578,1,1199,govern,11116,2019-10-21_21h28.22.060,SurveyExpMetaMem,3.2.3,Win32,60
,,,,,,,,,,,,,,,,,,,,5,0.014000177,5,0.012000084,1,0,1200,824,1,1199,favor,11116,2019-10-21_21h28.22.060,SurveyExpMetaMem,3.2.3,Win32,60
,,,,,,,,,,,,,,,,,,,,5,0.016000271,5,0.014000177,1,0,1200,610,1,1199,miniature,11116,2019-10-21_21h28.22.060,SurveyExpMetaMem,3.2.3,Win32,60
,,,,,,,,,,,,,,,,,,,,5,0.024000168,5,0.016000032,1,0,1200,247,1,1199,graduate,11116,2019-10-21_21h28.22.060,SurveyExpMetaMem,3.2.3,Win32,60
,,,,,,,,,,,,,,,,,,,,5,0.024000168,5,0.022000313,1,0,1200,352,1,1199,negligent,11116,2019-10-21_21h28.22.060,SurveyExpMetaMem,3.2.3,Win32,60
,,,,,,,,,,,,,,,,,,,,5,0.015000105,5,0.023000002,1,0,1200,725,1,1199,checkerboard,11116,2019-10-21_21h28.22.060,SurveyExpMetaMem,3.2.3,Win32,60
,,,,,,,,,,,,,,,,,,,,5,0.022000313,5,0.012000084,1,0,1200,320,1,1199,deformed,11116,2019-10-21_21h28.22.060,SurveyExpMetaMem,3.2.3,Win32,60
,,,,,,,,,,,,,,,,,,,,5,0.023000002,5,0.026000261,1,0,1200,661,1,1199,cow,11116,2019-10-21_21h28.22.060,SurveyExpMetaMem,3.2.3,Win32,60
,,,,,,,,,,,,,,,,,,,,5,0.014000177,5,0.029999971,1,0,1200,142,1,1199,christmas,11116,2019-10-21_21h28.22.060,SurveyExpMetaMem,3.2.3,Win32,60
,,,,,,,,,,,,,,,,,,,,5,0.022000074,5,0.016000271,1,0,1200,385,1,1199,tiresome,11116,2019-10-21_21h28.22.060,SurveyExpMetaMem,3.2.3,Win32,60
,,,,,,,,,,,,,,,,,,,,5,0.02300024,5,0.020000219,1,0,1200,1049,1,1199,electrocute,11116,2019-10-21_21h28.22.060,SurveyExpMetaMem,3.2.3,Win32,60
,,,,,,,,,,,,,,,,,,,,5,0.015000105,5,0.02300024,1,0,1200,543,1,1199,gloat,11116,2019-10-21_21h28.22.060,SurveyExpMetaMem,3.2.3,Win32,60
,,,,,,,,,,,,,,,,,,,,5,0.019000292,5,0.009000063,1,0,1200,1110,1,1199,bastard,11116,2019-10-21_21h28.22.060,SurveyExpMetaMem,3.2.3,Win32,60
,,,,,,,,,,,,,,,,,,,,5,0.022000313,5,0.02300024,1,0,1200,138,1,1199,blessings,11116,2019-10-21_21h28.22.060,SurveyExpMetaMem,3.2.3,Win32,60
,,,,,,,,,,,,,,,,,,,,5,0.021000147,5,0.007000208,1,0,1200,771,1,1199,practical,11116,2019-10-21_21h28.22.060,SurveyExpMetaMem,3.2.3,Win32,60
,,,,,,,,,,,,,,,,,,,,5,0.013000011,5,0.02699995,1,0,1200,706,1,1199,cat,11116,2019-10-21_21h28.22.060,SurveyExpMetaMem,3.2.3,Win32,60
,,,,,,,,,,,,,,,,,,,,5,0.020000219,5,0.01300025,1,0,1200,1199,1,1199,expensive,11116,2019-10-21_21h28.22.060,SurveyExpMetaMem,3.2.3,Win32,60
,,,,,,,,,,,,,,,,,,,,5,0.024000168,5,0.022000074,1,0,1200,235,1,1199,cheery,11116,2019-10-21_21h28.22.060,SurveyExpMetaMem,3.2.3,Win32,60
,,,,,,,,,,,,,,,,,,,,5,0.012000084,5,0.025000334,1,0,1200,131,1,1199,treat,11116,2019-10-21_21h28.22.060,SurveyExpMetaMem,3.2.3,Win32,60
,,,,,,,,,,,,,,,,,,,,5,0.019999981,5,0.012000084,1,0,1200,25,1,1199,charisma,11116,2019-10-21_21h28.22.060,SurveyExpMetaMem,3.2.3,Win32,60
,,,,,,,,,,,,,,,,,,,,5,0.02300024,5,0.014000177,1,0,1200,1195,1,1199,speech,11116,2019-10-21_21h28.22.060,SurveyExpMetaMem,3.2.3,Win32,60
,,,,,,,,,,,,,,,,,,,,5,0.019000292,5,0.019000053,1,0,1200,149,1,1199,loved,11116,2019-10-21_21h28.22.060,SurveyExpMetaMem,3.2.3,Win32,60
,,,,,,,,,,,,,,,,,,,,5,0.009000301,5,0.025000334,1,0,1200,690,1,1199,similar,11116,2019-10-21_21h28.22.060,SurveyExpMetaMem,3.2.3,Win32,60
,,,,,,,,,,,,,,,,,,,,5,0.022000313,5,0.010000229,1,0,1200,485,1,1199,pinch,11116,2019-10-21_21h28.22.060,SurveyExpMetaMem,3.2.3,Win32,60
,,,,,,,,,,,,,,,,,,,,5,0.022000313,5,0.011000156,1,0,1200,1005,1,1199,pissed,11116,2019-10-21_21h28.22.060,SurveyExpMetaMem,3.2.3,Win32,60
,,,,,,,,,,,,,,,,,,,,5,0.02300024,5,0.02300024,1,0,1200,241,1,1199,car,11116,2019-10-21_21h28.22.060,SurveyExpMetaMem,3.2.3,Win32,60
,,,,,,,,,,,,,,,,,,,,5,0.009000063,5,0.024000168,1,0,1200,977,1,1199,choke,11116,2019-10-21_21h28.22.060,SurveyExpMetaMem,3.2.3,Win32,60
,,,,,,,,,,,,,,,,,,,,5,0.011000156,5,0.026000261,1,0,1200,788,1,1199,cook,11116,2019-10-21_21h28.22.060,SurveyExpMetaMem,3.2.3,Win32,60
,,,,,,,,,,,,,,,,,,,,5,0.021000147,5,0.012000322,1,0,1200,862,1,1199,ease,11116,2019-10-21_21h28.22.060,SurveyExpMetaMem,3.2.3,Win32,60
,,,,,,,,,,,,,,,,,,,,5,0.02300024,5,0.017000198,1,0,1200,133,1,1199,prosperous,11116,2019-10-21_21h28.22.060,SurveyExpMetaMem,3.2.3,Win32,60
,,,,,,,,,,,,,,,,,,,,5,0.021000147,5,0.024000168,1,0,1200,118,1,1199,conquer,11116,2019-10-21_21h28.22.060,SurveyExpMetaMem,3.2.3,Win32,60
,,,,,,,,,,,,,,,,,,,,5,0.00999999,5,0.008000135,1,0,1200,58,1,1199,boost,11116,2019-10-21_21h28.22.060,SurveyExpMetaMem,3.2.3,Win32,60
,,,,,,,,,,,,,,,,,,,,5,0.011000156,5,0.025000095,1,0,1200,699,1,1199,leg,11116,2019-10-21_21h28.22.060,SurveyExpMetaMem,3.2.3,Win32,60
,,,,,,,,,,,,,,,,,,,,5,0.025000095,5,0.014000177,1,0,1200,728,1,1199,patio,11116,2019-10-21_21h28.22.060,SurveyExpMetaMem,3.2.3,Win32,60
,,,,,,,,,,,,,,,,,,,,5,0.023000002,5,0.022000313,1,0,1200,944,1,1199,kill,11116,2019-10-21_21h28.22.060,SurveyExpMetaMem,3.2.3,Win32,60
,,,,,,,,,,,,,,,,,,,,5,0.014000177,5,0.025000334,1,0,1200,15,1,1199,curiosity,11116,2019-10-21_21h28.22.060,SurveyExpMetaMem,3.2.3,Win32,60
,,,,,,,,,,,,,,,,,,,,5,0.021000147,5,0.009000301,1,0,1200,19,1,1199,firefighter,11116,2019-10-21_21h28.22.060,SurveyExpMetaMem,3.2.3,Win32,60
,,,,,,,,,,,,,,,,,,,,5,0.024000168,5,0.02300024,1,0,1200,957,1,1199,debt,11116,2019-10-21_21h28.22.060,SurveyExpMetaMem,3.2.3,Win32,60
,,,,,,,,,,,,,,,,,,,,5,0.011000156,5,0.02300024,1,0,1200,833,1,1199,nice,11116,2019-10-21_21h28.22.060,SurveyExpMetaMem,3.2.3,Win32,60
,,,,,,,,,,,,,,,,,,,,5,0.022000074,5,0.011000156,1,0,1200,834,1,1199,crown,11116,2019-10-21_21h28.22.060,SurveyExpMetaMem,3.2.3,Win32,60
,,,,,,,,,,,,,,,,,,,,5,0.022000074,5,0.021000147,1,0,1200,1185,1,1199,shotgun,11116,2019-10-21_21h28.22.060,SurveyExpMetaMem,3.2.3,Win32,60
,,,,,,,,,,,,,,,,,,,,5,0.009000301,5,0.023000002,1,0,1200,643,1,1199,library,11116,2019-10-21_21h28.22.060,SurveyExpMetaMem,3.2.3,Win32,60
,,,,,,,,,,,,,,,,,,,,5,0.01300025,5,0.02300024,1,0,1200,635,1,1199,sensitive,11116,2019-10-21_21h28.22.060,SurveyExpMetaMem,3.2.3,Win32,60
,,,,,,,,,,,,,,,,,,,,5,0.022000313,5,0.017000198,1,0,1200,322,1,1199,widow,11116,2019-10-21_21h28.22.060,SurveyExpMetaMem,3.2.3,Win32,60
,,,,,,,,,,,,,,,,,,,,5,0.028000116,5,0.018000126,1,0,1200,107,1,1199,sandwich,11116,2019-10-21_21h28.22.060,SurveyExpMetaMem,3.2.3,Win32,60
,,,,,,,,,,,,,,,,,,,,5,0.019999981,5,0.012000084,1,0,1200,603,1,1199,mane,11116,2019-10-21_21h28.22.060,SurveyExpMetaMem,3.2.3,Win32,60
,,,,,,,,,,,,,,,,,,,,5,0.024000168,5,0.018000126,1,0,1200,472,1,1199,bald,11116,2019-10-21_21h28.22.060,SurveyExpMetaMem,3.2.3,Win32,60
,,,,,,,,,,,,,,,,,,,,5,0.009000301,5,0.021000147,1,0,1200,147,1,1199,cure,11116,2019-10-21_21h28.22.060,SurveyExpMetaMem,3.2.3,Win32,60
,,,,,,,,,,,,,,,,,,,,5,0.012000322,5,0.024000168,1,0,1200,214,1,1199,revive,11116,2019-10-21_21h28.22.060,SurveyExpMetaMem,3.2.3,Win32,60
,,,,,,,,,,,,,,,,,,,,5,0.019000053,5,0.012000084,1,0,1200,956,1,1199,crushed,11116,2019-10-21_21h28.22.060,SurveyExpMetaMem,3.2.3,Win32,60
,,,,,,,,,,,,,,,,,,,,5,0.019999981,5,0.015000343,1,0,1200,548,1,1199,vague,11116,2019-10-21_21h28.22.060,SurveyExpMetaMem,3.2.3,Win32,60
,,,,,,,,,,,,,,,,,,,,5,0.025000095,5,0.018000126,1,0,1200,641,1,1199,writer,11116,2019-10-21_21h28.22.060,SurveyExpMetaMem,3.2.3,Win32,60
,,,,,,,,,,,,,,,,,,,,5,0.010000229,5,0.022000313,1,0,1200,1045,1,1199,scalding,11116,2019-10-21_21h28.22.060,SurveyExpMetaMem,3.2.3,Win32,60
,,,,,,,,,,,,,,,,,,,,5,0.020000219,5,0.008000135,1,0,1200,507,1,1199,smudge,11116,2019-10-21_21h28.22.060,SurveyExpMetaMem,3.2.3,Win32,60
,,,,,,,,,,,,,,,,,,,,5,0.02300024,5,0.01300025,1,0,1200,826,1,1199,poem,11116,2019-10-21_21h28.22.060,SurveyExpMetaMem,3.2.3,Win32,60
,,,,,,,,,,,,,,,,,,,,5,0.02300024,5,0.019000053,1,0,1200,104,1,1199,freeway,11116,2019-10-21_21h28.22.060,SurveyExpMetaMem,3.2.3,Win32,60
,,,,,,,,,,,,,,,,,,,,5,0.011000156,5,0.023999929,1,0,1200,332,1,1199,sewage,11116,2019-10-21_21h28.22.060,SurveyExpMetaMem,3.2.3,Win32,60
,,,,,,,,,,,,,,,,,,,,5,0.015000343,5,0.023000002,1,0,1200,99,1,1199,funny,11116,2019-10-21_21h28.22.060,SurveyExpMetaMem,3.2.3,Win32,60
,,,,,,,,,,,,,,,,,,,,5,0.022000074,5,0.011000156,1,0,1200,60,1,1199,bikini,11116,2019-10-21_21h28.22.060,SurveyExpMetaMem,3.2.3,Win32,60
,,,,,,,,,,,,,,,,,,,,5,0.024000168,5,0.024000168,1,0,1200,844,1,1199,soul,11116,2019-10-21_21h28.22.060,SurveyExpMetaMem,3.2.3,Win32,60
,,,,,,,,,,,,,,,,,,,,5,0.009000301,5,0.020000219,1,0,1200,13,1,1199,mingle,11116,2019-10-21_21h28.22.060,SurveyExpMetaMem,3.2.3,Win32,60
,,,,,,,,,,,,,,,,,,,,5,0.011000156,5,0.025000095,1,0,1200,205,1,1199,outspoken,11116,2019-10-21_21h28.22.060,SurveyExpMetaMem,3.2.3,Win32,60
,,,,,,,,,,,,,,,,,,,,5,0.021000147,5,0.012000084,1,0,1200,1091,1,1199,cram,11116,2019-10-21_21h28.22.060,SurveyExpMetaMem,3.2.3,Win32,60
,,,,,,,,,,,,,,,,,,,,5,0.020000219,5,0.016000271,1,0,1200,573,1,1199,cease,11116,2019-10-21_21h28.22.060,SurveyExpMetaMem,3.2.3,Win32,60
,,,,,,,,,,,,,,,,,,,,5,0.022000313,5,0.023000002,1,0,1200,561,1,1199,plain,11116,2019-10-21_21h28.22.060,SurveyExpMetaMem,3.2.3,Win32,60
,,,,,,,,,,,,,,,,,,,,5,0.010000229,5,0.024000168,1,0,1200,224,1,1199,strengthen,11116,2019-10-21_21h28.22.060,SurveyExpMetaMem,3.2.3,Win32,60
,,,,,,,,,,,,,,,,,,,,5,0.022000313,5,0.010000229,1,0,1200,1026,1,1199,crisis,11116,2019-10-21_21h28.22.060,SurveyExpMetaMem,3.2.3,Win32,60
,,,,,,,,,,,,,,,,,,,,5,0.02300024,5,0.014000177,1,0,1200,406,1,1199,tired,11116,2019-10-21_21h28.22.060,SurveyExpMetaMem,3.2.3,Win32,60
,,,,,,,,,,,,,,,,,,,,5,0.022000074,5,0.02300024,1,0,1200,526,1,1199,dry,11116,2019-10-21_21h28.22.060,SurveyExpMetaMem,3.2.3,Win32,60
,,,,,,,,,,,,,,,,,,,,5,0.009000063,5,0.021000147,1,0,1200,16,1,1199,sing,11116,2019-10-21_21h28.22.060,SurveyExpMetaMem,3.2.3,Win32,60
,,,,,,,,,,,,,,,,,,,,5,0.011000156,5,0.025000095,1,0,1200,744,1,1199,village,11116,2019-10-21_21h28.22.060,SurveyExpMetaMem,3.2.3,Win32,60
,,,,,,,,,,,,,,,,,,,,5,0.023000002,5,0.012000322,1,0,1200,120,1,1199,imaginative,11116,2019-10-21_21h28.22.060,SurveyExpMetaMem,3.2.3,Win32,60
,,,,,,,,,,,,,,,,,,,,5,0.02300024,5,0.02300024,1,0,1200,425,1,1199,crutch,11116,2019-10-21_21h28.22.060,SurveyExpMetaMem,3.2.3,Win32,60
,,,,,,,,,,,,,,,,,,,,5,0.008000135,5,0.024000168,1,0,1200,315,1,1199,zit,11116,2019-10-21_21h28.22.060,SurveyExpMetaMem,3.2.3,Win32,60
,,,,,,,,,,,,,,,,,,,,5,0.01300025,5,0.025000334,1,0,1200,1153,1,1199,mangle,11116,2019-10-21_21h28.22.060,SurveyExpMetaMem,3.2.3,Win32,60
,,,,,,,,,,,,,,,,,,,,5,0.019000292,5,0.009000063,1,0,1200,765,1,1199,candid,11116,2019-10-21_21h28.22.060,SurveyExpMetaMem,3.2.3,Win32,60
,,,,,,,,,,,,,,,,,,,,5,0.021000147,5,0.015000343,1,0,1200,677,1,1199,handwriting,11116,2019-10-21_21h28.22.060,SurveyExpMetaMem,3.2.3,Win32,60
,,,,,,,,,,,,,,,,,,,,5,0.991000175,5,0.147000074,1,0,1200,799,1,1199,precise,11116,2019-10-21_21h28.22.060,SurveyExpMetaMem,3.2.3,Win32,60
,,,,,,,,,,,,,,,,,,,,5,0.638000011,5,0.100000381,1,0,1200,471,1,1199,chump,11116,2019-10-21_21h28.22.060,SurveyExpMetaMem,3.2.3,Win32,60
,,,,,,,,,,,,,,,,,,,,5,0.770000219,5,0.176000118,1,0,1200,554,1,1199,label,11116,2019-10-21_21h28.22.060,SurveyExpMetaMem,3.2.3,Win32,60
,,,,,,,,,,,,,,,,,,,,5,0.44900012,5,0.203000307,1,0,1200,250,1,1199,erupt,11116,2019-10-21_21h28.22.060,SurveyExpMetaMem,3.2.3,Win32,60
,,,,,,,,,,,,,,,,,,,,5,0.680000067,5,0.18900013,1,0,1200,480,1,1199,hinder,11116,2019-10-21_21h28.22.060,SurveyExpMetaMem,3.2.3,Win32,60
,,,,,,,,,,,,,,,,,,,,5,0.522000074,5,0.171000242,1,0,1200,668,1,1199,unit,11116,2019-10-21_21h28.22.060,SurveyExpMetaMem,3.2.3,Win32,60
,,,,,,,,,,,,,,,,,,,,5,0.955000162,5,0.242000103,1,0,1200,1193,1,1199,damn,11116,2019-10-21_21h28.22.060,SurveyExpMetaMem,3.2.3,Win32,60
,,,,,,,,,,,,,,,,,,,,5,0.840000153,5,0.214000225,1,0,1200,160,1,1199,reunion,11116,2019-10-21_21h28.22.060,SurveyExpMetaMem,3.2.3,Win32,60
,,,,,,,,,,,,,,,,,,,,5,0.822000265,5,0.214000225,1,0,1200,965,1,1199,traffic,11116,2019-10-21_21h28.22.060,SurveyExpMetaMem,3.2.3,Win32,60
,,,,,,,,,,,,,,,,,,,,7,1.93900013,3,0.217000246,1,0,1200,1094,1,1199,disruptive,11116,2019-10-21_21h28.22.060,SurveyExpMetaMem,3.2.3,Win32,60
,,,,,,,,,,,,,,,,,,,,5,0.704000235,5,0.179000139,1,0,1200,819,1,1199,sheep,11116,2019-10-21_21h28.22.060,SurveyExpMetaMem,3.2.3,Win32,60
,,,,,,,,,,,,,,,,,,,,5,0.475000143,5,0.291000128,1,0,1200,203,1,1199,seal,11116,2019-10-21_21h28.22.060,SurveyExpMetaMem,3.2.3,Win32,60
,,,,,,,,,,,,,,,,,,,,5,0.587000132,5,0.512000084,1,0,1200,468,1,1199,noose,11116,2019-10-21_21h28.22.060,SurveyExpMetaMem,3.2.3,Win32,60
,,,,,,,,,,,,,,,,,,,,5,0.561000109,5,0.121000051,1,0,1200,27,1,1199,gourmet,11116,2019-10-21_21h28.22.060,SurveyExpMetaMem,3.2.3,Win32,60
,,,,,,,,,,,,,,,,,,,,7,1.486000299,3,0.442000151,1,0,1200,1132,1,1199,anarchy,11116,2019-10-21_21h28.22.060,SurveyExpMetaMem,3.2.3,Win32,60
,,,,,,,,,,,,,,,,,,,,5,1.83100009,5,0.205000162,1,0,1200,880,1,1199,security,11116,2019-10-21_21h28.22.060,SurveyExpMetaMem,3.2.3,Win32,60
,,,,,,,,,,,,,,,,,,,,5,0.312000275,5,0.225000143,1,0,1200,1007,1,1199,tornado,11116,2019-10-21_21h28.22.060,SurveyExpMetaMem,3.2.3,Win32,60
,,,,,,,,,,,,,,,,,,,,7,2.288000107,5,0.20600009,1,0,1200,1157,1,1199,slayer,11116,2019-10-21_21h28.22.060,SurveyExpMetaMem,3.2.3,Win32,60
,,,,,,,,,,,,,,,,,,,,8,1.553000212,8,0.328000069,1,0,1200,711,1,1199,sympathetic,11116,2019-10-21_21h28.22.060,SurveyExpMetaMem,3.2.3,Win32,60
,,,,,,,,,,,,,,,,,,,,5,1.601999998,5,0.167000055,1,0,1200,1115,1,1199,invade,11116,2019-10-21_21h28.22.060,SurveyExpMetaMem,3.2.3,Win32,60
,,,,,,,,,,,,,,,,,,,,5,0.476000309,5,0.173000097,1,0,1200,1135,1,1199,thirsty,11116,2019-10-21_21h28.22.060,SurveyExpMetaMem,3.2.3,Win32,60
,,,,,,,,,,,,,,,,,,,,5,0.866000175,5,0.487000227,1,0,1200,781,1,1199,emerald,11116,2019-10-21_21h28.22.060,SurveyExpMetaMem,3.2.3,Win32,60
,,,,,,,,,,,,,,,,,,,,5,0.020000219,5,0.009000063,1,0,1200,693,1,1199,key,11116,2019-10-21_21h28.22.060,SurveyExpMetaMem,3.2.3,Win32,60
,,,,,,,,,,,,,,,,,,,,5,0.021000147,5,0.02300024,1,0,1200,285,1,1199,gold,11116,2019-10-21_21h28.22.060,SurveyExpMetaMem,3.2.3,Win32,60
,,,,,,,,,,,,,,,,,,,,5,0.009000063,5,0.021000147,1,0,1200,523,1,1199,witch,11116,2019-10-21_21h28.22.060,SurveyExpMetaMem,3.2.3,Win32,60
,,,,,,,,,,,,,,,,,,,,5,0.012000084,5,0.024000168,1,0,1200,836,1,1199,lounge,11116,2019-10-21_21h28.22.060,SurveyExpMetaMem,3.2.3,Win32,60
,,,,,,,,,,,,,,,,,,,,5,0.022000313,5,0.011000156,1,0,1200,281,1,1199,summer,11116,2019-10-21_21h28.22.060,SurveyExpMetaMem,3.2.3,Win32,60
,,,,,,,,,,,,,,,,,,,,5,0.021000147,5,0.012000084,1,0,1200,838,1,1199,nestle,11116,2019-10-21_21h28.22.060,SurveyExpMetaMem,3.2.3,Win32,60
,,,,,,,,,,,,,,,,,,,,5,0.02300024,5,0.024000168,1,0,1200,917,1,1199,slave,11116,2019-10-21_21h28.22.060,SurveyExpMetaMem,3.2.3,Win32,60
,,,,,,,,,,,,,,,,,,,,5,0.011000156,5,0.02300024,1,0,1200,345,1,1199,unfortunate,11116,2019-10-21_21h28.22.060,SurveyExpMetaMem,3.2.3,Win32,60
,,,,,,,,,,,,,,,,,,,,5,0.020000219,5,0.011000156,1,0,1200,1009,1,1199,frightened,11116,2019-10-21_21h28.22.060,SurveyExpMetaMem,3.2.3,Win32,60
,,,,,,,,,,,,,,,,,,,,5,0.021000147,5,0.016000271,1,0,1200,901,1,1199,rape,11116,2019-10-21_21h28.22.060,SurveyExpMetaMem,3.2.3,Win32,60
,,,,,,,,,,,,,,,,,,,,5,0.022000074,5,0.022000313,1,0,1200,1057,1,1199,deceit,11116,2019-10-21_21h28.22.060,SurveyExpMetaMem,3.2.3,Win32,60
,,,,,,,,,,,,,,,,,,,,5,0.00999999,5,0.028000116,1,0,1200,1071,1,1199,uncomfortable,11116,2019-10-21_21h28.22.060,SurveyExpMetaMem,3.2.3,Win32,60
,,,,,,,,,,,,,,,,,,,,5,0.006000042,5,0.032000065,1,0,1200,973,1,1199,anger,11116,2019-10-21_21h28.22.060,SurveyExpMetaMem,3.2.3,Win32,60
,,,,,,,,,,,,,,,,,,,,5,0.018000126,5,0.022000074,1,0,1200,954,1,1199,hostage,11116,2019-10-21_21h28.22.060,SurveyExpMetaMem,3.2.3,Win32,60
,,,,,,,,,,,,,,,,,,,,5,0.014000177,5,0.024000168,1,0,1200,1126,1,1199,offensive,11116,2019-10-21_21h28.22.060,SurveyExpMetaMem,3.2.3,Win32,60
,,,,,,,,,,,,,,,,,,,,5,0.021000147,5,0.014000177,1,0,1200,202,1,1199,mercy,11116,2019-10-21_21h28.22.060,SurveyExpMetaMem,3.2.3,Win32,60
,,,,,,,,,,,,,,,,,,,,5,0.020000219,5,0.026000261,1,0,1200,925,1,1199,disloyal,11116,2019-10-21_21h28.22.060,SurveyExpMetaMem,3.2.3,Win32,60
,,,,,,,,,,,,,,,,,,,,5,0.010000229,5,0.024000168,1,0,1200,22,1,1199,doughnut,11116,2019-10-21_21h28.22.060,SurveyExpMetaMem,3.2.3,Win32,60
,,,,,,,,,,,,,,,,,,,,5,0.024000168,5,0.010000229,1,0,1200,590,1,1199,stool,11116,2019-10-21_21h28.22.060,SurveyExpMetaMem,3.2.3,Win32,60
,,,,,,,,,,,,,,,,,,,,5,0.019000292,5,0.012000084,1,0,1200,575,1,1199,paragraph,11116,2019-10-21_21h28.22.060,SurveyExpMetaMem,3.2.3,Win32,60
,,,,,,,,,,,,,,,,,,,,5,0.019000292,5,0.019000292,1,0,1200,1186,1,1199,goddamn,11116,2019-10-21_21h28.22.060,SurveyExpMetaMem,3.2.3,Win32,60
,,,,,,,,,,,,,,,,,,,,5,0.009000063,5,0.022000313,1,0,1200,935,1,1199,despise,11116,2019-10-21_21h28.22.060,SurveyExpMetaMem,3.2.3,Win32,60
,,,,,,,,,,,,,,,,,,,,5,0.013000011,5,0.022000074,1,0,1200,1093,1,1199,hive,11116,2019-10-21_21h28.22.060,SurveyExpMetaMem,3.2.3,Win32,60
,,,,,,,,,,,,,,,,,,,,5,0.019999981,5,0.01300025,1,0,1200,978,1,1199,starving,11116,2019-10-21_21h28.22.060,SurveyExpMetaMem,3.2.3,Win32,60
,,,,,,,,,,,,,,,,,,,,5,0.021000147,5,0.011000156,1,0,1200,308,1,1199,worthless,11116,2019-10-21_21h28.22.060,SurveyExpMetaMem,3.2.3,Win32,60
,,,,,,,,,,,,,,,,,,,,5,0.022000074,5,0.022000313,1,0,1200,527,1,1199,passive,11116,2019-10-21_21h28.22.060,SurveyExpMetaMem,3.2.3,Win32,60
,,,,,,,,,,,,,,,,,,,,5,0.009000301,5,0.024000168,1,0,1200,532,1,1199,recede,11116,2019-10-21_21h28.22.060,SurveyExpMetaMem,3.2.3,Win32,60
,,,,,,,,,,,,,,,,,,,,5,0.020000219,5,0.009000063,1,0,1200,445,1,1199,bleak,11116,2019-10-21_21h28.22.060,SurveyExpMetaMem,3.2.3,Win32,60
,,,,,,,,,,,,,,,,,,,,5,0.02300024,5,0.013000011,1,0,1200,449,1,1199,egotistical,11116,2019-10-21_21h28.22.060,SurveyExpMetaMem,3.2.3,Win32,60
,,,,,,,,,,,,,,,,,,,,5,0.019000292,5,0.018000126,1,0,1200,1075,1,1199,apprehension,11116,2019-10-21_21h28.22.060,SurveyExpMetaMem,3.2.3,Win32,60
,,,,,,,,,,,,,,,,,,,,5,0.021000385,5,0.02300024,1,0,1200,1025,1,1199,deadly,11116,2019-10-21_21h28.22.060,SurveyExpMetaMem,3.2.3,Win32,60
,,,,,,,,,,,,,,,,,,,,5,0.010000229,5,0.025000095,1,0,1200,421,1,1199,stale,11116,2019-10-21_21h28.22.060,SurveyExpMetaMem,3.2.3,Win32,60
,,,,,,,,,,,,,,,,,,,,5,0.02300024,5,0.011000156,1,0,1200,953,1,1199,victim,11116,2019-10-21_21h28.22.060,SurveyExpMetaMem,3.2.3,Win32,60
,,,,,,,,,,,,,,,,,,,,5,0.02300024,5,0.021000147,1,0,1200,172,1,1199,potential,11116,2019-10-21_21h28.22.060,SurveyExpMetaMem,3.2.3,Win32,60
,,,,,,,,,,,,,,,,,,,,5,0.009000301,5,0.024000168,1,0,1200,441,1,1199,prohibit,11116,2019-10-21_21h28.22.060,SurveyExpMetaMem,3.2.3,Win32,60
,,,,,,,,,,,,,,,,,,,,5,0.016000271,5,0.024000168,1,0,1200,724,1,1199,owl,11116,2019-10-21_21h28.22.060,SurveyExpMetaMem,3.2.3,Win32,60
,,,,,,,,,,,,,,,,,,,,5,0.019000292,5,0.028000116,1,0,1200,756,1,1199,plant,11116,2019-10-21_21h28.22.060,SurveyExpMetaMem,3.2.3,Win32,60
,,,,,,,,,,,,,,,,,,,,5,0.007000208,5,0.022000313,1,0,1200,42,1,1199,accomplish,11116,2019-10-21_21h28.22.060,SurveyExpMetaMem,3.2.3,Win32,60
