mouse_4.x,mouse_4.y,mouse_4.leftButton,mouse_4.midButton,mouse_4.rightButton,mouse.x,mouse.y,mouse.leftButton,mouse.midButton,mouse.rightButton,mouse_2.x,mouse_2.y,mouse_2.leftButton,mouse_2.midButton,mouse_2.rightButton,mouse_3.x,mouse_3.y,mouse_3.leftButton,mouse_3.midButton,mouse_3.rightButton,A_key_resp.keys,A_key_resp.rt,key_resp.keys,key_resp.rt,trials.thisRepN,trials.thisTrialN,trials.thisN,trials.thisIndex,trials.ran,trials.order,word,ParticipantID,date,expName,psychopyVersion,OS,frameRate
0.24629633,-0.163888909,1,0,0,0.24629633,-0.163888909,1,0,0,0.24629633,-0.163888909,1,0,0,0.24629633,-0.163888909,1,0,0,4,9.48900032,3,2.715000153,1,0,1200,1142,1,1199,disturb,11137,2019-10-22_21h05.46.359,SurveyExpMetaMem,3.2.3,Win32,60
,,,,,,,,,,,,,,,,,,,,6,2.510000229,6,1.251000166,1,0,1200,71,1,1199,spirit,11137,2019-10-22_21h05.46.359,SurveyExpMetaMem,3.2.3,Win32,60
,,,,,,,,,,,,,,,,,,,,4,2.367000103,6,0.763000011,1,0,1200,843,1,1199,garden,11137,2019-10-22_21h05.46.359,SurveyExpMetaMem,3.2.3,Win32,60
,,,,,,,,,,,,,,,,,,,,4,5.276000023,2,0.696000099,1,0,1200,964,1,1199,grieve,11137,2019-10-22_21h05.46.359,SurveyExpMetaMem,3.2.3,Win32,60
,,,,,,,,,,,,,,,,,,,,5,3.636000156,5,0.260999918,1,0,1200,206,1,1199,comet,11137,2019-10-22_21h05.46.359,SurveyExpMetaMem,3.2.3,Win32,60
,,,,,,,,,,,,,,,,,,,,7,2.286000013,6,4.888999939,1,0,1200,17,1,1199,outgoing,11137,2019-10-22_21h05.46.359,SurveyExpMetaMem,3.2.3,Win32,60
,,,,,,,,,,,,,,,,,,,,5,1.163000107,5,0.127000093,1,0,1200,601,1,1199,roof,11137,2019-10-22_21h05.46.359,SurveyExpMetaMem,3.2.3,Win32,60
,,,,,,,,,,,,,,,,,,,,5,2.476000071,4,1.345000029,1,0,1200,927,1,1199,jail,11137,2019-10-22_21h05.46.359,SurveyExpMetaMem,3.2.3,Win32,60
,,,,,,,,,,,,,,,,,,,,5,2.285000086,5,0.137000322,1,0,1200,672,1,1199,ketchup,11137,2019-10-22_21h05.46.359,SurveyExpMetaMem,3.2.3,Win32,60
,,,,,,,,,,,,,,,,,,,,5,2.684000254,3,0.941000223,1,0,1200,919,1,1199,loss,11137,2019-10-22_21h05.46.359,SurveyExpMetaMem,3.2.3,Win32,60
,,,,,,,,,,,,,,,,,,,,5,1.417000055,5,0.125000238,1,0,1200,421,1,1199,stale,11137,2019-10-22_21h05.46.359,SurveyExpMetaMem,3.2.3,Win32,60
,,,,,,,,,,,,,,,,,,,,5,1.584000111,5,0.112000227,1,0,1200,464,1,1199,tick,11137,2019-10-22_21h05.46.359,SurveyExpMetaMem,3.2.3,Win32,60
,,,,,,,,,,,,,,,,,,,,6,3.647000313,4,0.79700017,1,0,1200,537,1,1199,absurd,11137,2019-10-22_21h05.46.359,SurveyExpMetaMem,3.2.3,Win32,60
,,,,,,,,,,,,,,,,,,,,7,3.072000027,4,0.5400002,1,0,1200,1122,1,1199,gossip,11137,2019-10-22_21h05.46.359,SurveyExpMetaMem,3.2.3,Win32,60
,,,,,,,,,,,,,,,,,,,,7,2.150000095,4,1.823000193,1,0,1200,52,1,1199,dare,11137,2019-10-22_21h05.46.359,SurveyExpMetaMem,3.2.3,Win32,60
,,,,,,,,,,,,,,,,,,,,5,1.380000114,5,0.128999949,1,0,1200,613,1,1199,cup,11137,2019-10-22_21h05.46.359,SurveyExpMetaMem,3.2.3,Win32,60
,,,,,,,,,,,,,,,,,,,,4,2.878000021,5,0.166000128,1,0,1200,829,1,1199,innocent,11137,2019-10-22_21h05.46.359,SurveyExpMetaMem,3.2.3,Win32,60
,,,,,,,,,,,,,,,,,,,,7,1.94900012,4,0.697000027,1,0,1200,1102,1,1199,nuclear,11137,2019-10-22_21h05.46.359,SurveyExpMetaMem,3.2.3,Win32,60
,,,,,,,,,,,,,,,,,,,,7,2.800000191,5,1.461000204,1,0,1200,251,1,1199,meteor,11137,2019-10-22_21h05.46.359,SurveyExpMetaMem,3.2.3,Win32,60
,,,,,,,,,,,,,,,,,,,,5,1.125000238,5,0.273999929,1,0,1200,681,1,1199,fig,11137,2019-10-22_21h05.46.359,SurveyExpMetaMem,3.2.3,Win32,60
,,,,,,,,,,,,,,,,,,,,5,2.225000143,5,0.142000198,1,0,1200,283,1,1199,elated,11137,2019-10-22_21h05.46.359,SurveyExpMetaMem,3.2.3,Win32,60
,,,,,,,,,,,,,,,,,,,,7,2.039000034,4,0.697999954,1,0,1200,1115,1,1199,invade,11137,2019-10-22_21h05.46.359,SurveyExpMetaMem,3.2.3,Win32,60
,,,,,,,,,,,,,,,,,,,,5,1.151000023,5,0.121000051,1,0,1200,702,1,1199,den,11137,2019-10-22_21h05.46.359,SurveyExpMetaMem,3.2.3,Win32,60
,,,,,,,,,,,,,,,,,,,,6,2.873000145,7,0.657999992,1,0,1200,833,1,1199,nice,11137,2019-10-22_21h05.46.359,SurveyExpMetaMem,3.2.3,Win32,60
,,,,,,,,,,,,,,,,,,,,6,2.15500021,5,0.997000217,1,0,1200,1053,1,1199,surgery,11137,2019-10-22_21h05.46.359,SurveyExpMetaMem,3.2.3,Win32,60
,,,,,,,,,,,,,,,,,,,,6,2.411000252,4,0.21600008,1,0,1200,1029,1,1199,abduction,11137,2019-10-22_21h05.46.359,SurveyExpMetaMem,3.2.3,Win32,60
,,,,,,,,,,,,,,,,,,,,5,1.775000095,5,0.124000072,1,0,1200,361,1,1199,glum,11137,2019-10-22_21h05.46.359,SurveyExpMetaMem,3.2.3,Win32,60
,,,,,,,,,,,,,,,,,,,,6,1.908000231,4,0.111999989,1,0,1200,550,1,1199,fart,11137,2019-10-22_21h05.46.359,SurveyExpMetaMem,3.2.3,Win32,60
,,,,,,,,,,,,,,,,,,,,5,1.102000237,5,0.119000196,1,0,1200,1060,1,1199,dent,11137,2019-10-22_21h05.46.359,SurveyExpMetaMem,3.2.3,Win32,60
,,,,,,,,,,,,,,,,,,,,5,1.102999926,5,0.111999989,1,0,1200,476,1,1199,warden,11137,2019-10-22_21h05.46.359,SurveyExpMetaMem,3.2.3,Win32,60
,,,,,,,,,,,,,,,,,,,,5,1.407999992,5,0.127000093,1,0,1200,872,1,1199,dignified,11137,2019-10-22_21h05.46.359,SurveyExpMetaMem,3.2.3,Win32,60
,,,,,,,,,,,,,,,,,,,,5,0.838999987,5,0.146000147,1,0,1200,873,1,1199,useful,11137,2019-10-22_21h05.46.359,SurveyExpMetaMem,3.2.3,Win32,60
,,,,,,,,,,,,,,,,,,,,5,0.930999994,5,0.140000105,1,0,1200,629,1,1199,barn,11137,2019-10-22_21h05.46.359,SurveyExpMetaMem,3.2.3,Win32,60
,,,,,,,,,,,,,,,,,,,,4,2.242000103,4,0.129000187,1,0,1200,408,1,1199,bore,11137,2019-10-22_21h05.46.359,SurveyExpMetaMem,3.2.3,Win32,60
,,,,,,,,,,,,,,,,,,,,5,1.039999962,5,0.138999939,1,0,1200,220,1,1199,reef,11137,2019-10-22_21h05.46.359,SurveyExpMetaMem,3.2.3,Win32,60
,,,,,,,,,,,,,,,,,,,,6,4.208000183,3,0.587000132,1,0,1200,963,1,1199,dreadful,11137,2019-10-22_21h05.46.359,SurveyExpMetaMem,3.2.3,Win32,60
,,,,,,,,,,,,,,,,,,,,5,1.073000193,5,0.111000299,1,0,1200,75,1,1199,actor,11137,2019-10-22_21h05.46.359,SurveyExpMetaMem,3.2.3,Win32,60
,,,,,,,,,,,,,,,,,,,,6,2.295000076,5,0.105999947,1,0,1200,1180,1,1199,heat,11137,2019-10-22_21h05.46.359,SurveyExpMetaMem,3.2.3,Win32,60
,,,,,,,,,,,,,,,,,,,,5,0.973999977,5,0.124000072,1,0,1200,393,1,1199,droop,11137,2019-10-22_21h05.46.359,SurveyExpMetaMem,3.2.3,Win32,60
,,,,,,,,,,,,,,,,,,,,5,0.838000298,5,0.101999998,1,0,1200,210,1,1199,elephant,11137,2019-10-22_21h05.46.359,SurveyExpMetaMem,3.2.3,Win32,60
,,,,,,,,,,,,,,,,,,,,4,2.210000038,4,0.119000196,1,0,1200,373,1,1199,ignorance,11137,2019-10-22_21h05.46.359,SurveyExpMetaMem,3.2.3,Win32,60
,,,,,,,,,,,,,,,,,,,,5,1.2900002,5,0.11500001,1,0,1200,588,1,1199,bandage,11137,2019-10-22_21h05.46.359,SurveyExpMetaMem,3.2.3,Win32,60
,,,,,,,,,,,,,,,,,,,,7,2.14199996,3,0.497000217,1,0,1200,994,1,1199,repulsed,11137,2019-10-22_21h05.46.359,SurveyExpMetaMem,3.2.3,Win32,60
,,,,,,,,,,,,,,,,,,,,5,1.559999943,5,0.131000042,1,0,1200,145,1,1199,me,11137,2019-10-22_21h05.46.359,SurveyExpMetaMem,3.2.3,Win32,60
,,,,,,,,,,,,,,,,,,,,5,2.610000134,5,0.13100028,1,0,1200,637,1,1199,flock,11137,2019-10-22_21h05.46.359,SurveyExpMetaMem,3.2.3,Win32,60
,,,,,,,,,,,,,,,,,,,,5,1.046000242,5,0.130000114,1,0,1200,685,1,1199,makeup,11137,2019-10-22_21h05.46.359,SurveyExpMetaMem,3.2.3,Win32,60
,,,,,,,,,,,,,,,,,,,,6,2.412000179,4,0.098999977,1,0,1200,912,1,1199,rabies,11137,2019-10-22_21h05.46.359,SurveyExpMetaMem,3.2.3,Win32,60
,,,,,,,,,,,,,,,,,,,,5,1.226000071,5,0.131999969,1,0,1200,1075,1,1199,apprehension,11137,2019-10-22_21h05.46.359,SurveyExpMetaMem,3.2.3,Win32,60
,,,,,,,,,,,,,,,,,,,,5,1.006999969,5,0.124000072,1,0,1200,10,1,1199,cheerleader,11137,2019-10-22_21h05.46.359,SurveyExpMetaMem,3.2.3,Win32,60
,,,,,,,,,,,,,,,,,,,,6,2.100000143,6,0.109999895,1,0,1200,190,1,1199,rescue,11137,2019-10-22_21h05.46.359,SurveyExpMetaMem,3.2.3,Win32,60
,,,,,,,,,,,,,,,,,,,,5,1.844000101,6,0.093000174,1,0,1200,13,1,1199,mingle,11137,2019-10-22_21h05.46.359,SurveyExpMetaMem,3.2.3,Win32,60
,,,,,,,,,,,,,,,,,,,,5,3.80700016,5,0.138000011,1,0,1200,623,1,1199,suburban,11137,2019-10-22_21h05.46.359,SurveyExpMetaMem,3.2.3,Win32,60
,,,,,,,,,,,,,,,,,,,,5,2.662000179,4,0.096000195,1,0,1200,1148,1,1199,suspicious,11137,2019-10-22_21h05.46.359,SurveyExpMetaMem,3.2.3,Win32,60
,,,,,,,,,,,,,,,,,,,,6,5.656000137,1,1.461000204,1,0,1200,901,1,1199,rape,11137,2019-10-22_21h05.46.359,SurveyExpMetaMem,3.2.3,Win32,60
,,,,,,,,,,,,,,,,,,,,7,4.628000021,9,0.641000271,1,0,1200,149,1,1199,loved,11137,2019-10-22_21h05.46.359,SurveyExpMetaMem,3.2.3,Win32,60
,,,,,,,,,,,,,,,,,,,,5,1.576000214,5,0.123000145,1,0,1200,684,1,1199,send,11137,2019-10-22_21h05.46.359,SurveyExpMetaMem,3.2.3,Win32,60
,,,,,,,,,,,,,,,,,,,,5,0.914000034,5,0.132000208,1,0,1200,710,1,1199,gender,11137,2019-10-22_21h05.46.359,SurveyExpMetaMem,3.2.3,Win32,60
,,,,,,,,,,,,,,,,,,,,5,0.993000031,5,0.13800025,1,0,1200,865,1,1199,bliss,11137,2019-10-22_21h05.46.359,SurveyExpMetaMem,3.2.3,Win32,60
,,,,,,,,,,,,,,,,,,,,7,2.975000143,4,0.565000057,1,0,1200,523,1,1199,witch,11137,2019-10-22_21h05.46.359,SurveyExpMetaMem,3.2.3,Win32,60
,,,,,,,,,,,,,,,,,,,,4,2.460999966,4,0.109000206,1,0,1200,318,1,1199,disappointment,11137,2019-10-22_21h05.46.359,SurveyExpMetaMem,3.2.3,Win32,60
,,,,,,,,,,,,,,,,,,,,5,1.106000185,5,0.101000071,1,0,1200,599,1,1199,obstinate,11137,2019-10-22_21h05.46.359,SurveyExpMetaMem,3.2.3,Win32,60
,,,,,,,,,,,,,,,,,,,,6,2.559999943,4,0.098999977,1,0,1200,968,1,1199,insult,11137,2019-10-22_21h05.46.359,SurveyExpMetaMem,3.2.3,Win32,60
,,,,,,,,,,,,,,,,,,,,7,1.602999926,2,0.970000029,1,0,1200,969,1,1199,whore,11137,2019-10-22_21h05.46.359,SurveyExpMetaMem,3.2.3,Win32,60
,,,,,,,,,,,,,,,,,,,,5,1.461000204,5,0.117000103,1,0,1200,593,1,1199,errand,11137,2019-10-22_21h05.46.359,SurveyExpMetaMem,3.2.3,Win32,60
,,,,,,,,,,,,,,,,,,,,4,2.430000067,4,0.110000134,1,0,1200,1076,1,1199,embarrassed,11137,2019-10-22_21h05.46.359,SurveyExpMetaMem,3.2.3,Win32,60
,,,,,,,,,,,,,,,,,,,,5,2.038000107,4,0.06400013,1,0,1200,300,1,1199,unhappy,11137,2019-10-22_21h05.46.359,SurveyExpMetaMem,3.2.3,Win32,60
,,,,,,,,,,,,,,,,,,,,5,1.414000034,5,0.14199996,1,0,1200,261,1,1199,windsurfers,11137,2019-10-22_21h05.46.359,SurveyExpMetaMem,3.2.3,Win32,60
,,,,,,,,,,,,,,,,,,,,8,2.578999996,5,1.09100008,1,0,1200,20,1,1199,climax,11137,2019-10-22_21h05.46.359,SurveyExpMetaMem,3.2.3,Win32,60
,,,,,,,,,,,,,,,,,,,,5,1.377000093,5,0.111000061,1,0,1200,568,1,1199,therapy,11137,2019-10-22_21h05.46.359,SurveyExpMetaMem,3.2.3,Win32,60
,,,,,,,,,,,,,,,,,,,,5,3.861000061,4,0.079000235,1,0,1200,985,1,1199,pollution,11137,2019-10-22_21h05.46.359,SurveyExpMetaMem,3.2.3,Win32,60
,,,,,,,,,,,,,,,,,,,,6,1.937999964,5,0.097000122,1,0,1200,278,1,1199,king,11137,2019-10-22_21h05.46.359,SurveyExpMetaMem,3.2.3,Win32,60
,,,,,,,,,,,,,,,,,,,,5,1.190000057,5,0.110000134,1,0,1200,538,1,1199,crumbs,11137,2019-10-22_21h05.46.359,SurveyExpMetaMem,3.2.3,Win32,60
,,,,,,,,,,,,,,,,,,,,8,2.09800005,5,1.011000156,1,0,1200,1171,1,1199,chaos,11137,2019-10-22_21h05.46.359,SurveyExpMetaMem,3.2.3,Win32,60
,,,,,,,,,,,,,,,,,,,,6,2.209000111,4,0.112000227,1,0,1200,1065,1,1199,slap,11137,2019-10-22_21h05.46.359,SurveyExpMetaMem,3.2.3,Win32,60
,,,,,,,,,,,,,,,,,,,,5,1.128999949,5,0.130000114,1,0,1200,163,1,1199,gem,11137,2019-10-22_21h05.46.359,SurveyExpMetaMem,3.2.3,Win32,60
,,,,,,,,,,,,,,,,,,,,6,2.25600028,6,0.111000061,1,0,1200,16,1,1199,sing,11137,2019-10-22_21h05.46.359,SurveyExpMetaMem,3.2.3,Win32,60
,,,,,,,,,,,,,,,,,,,,5,2.282999992,4,0.114000082,1,0,1200,305,1,1199,frown,11137,2019-10-22_21h05.46.359,SurveyExpMetaMem,3.2.3,Win32,60
,,,,,,,,,,,,,,,,,,,,5,1.90899992,5,0.130000114,1,0,1200,592,1,1199,sweep,11137,2019-10-22_21h05.46.359,SurveyExpMetaMem,3.2.3,Win32,60
,,,,,,,,,,,,,,,,,,,,5,2.058000088,4,0.114000082,1,0,1200,1023,1,1199,disorder,11137,2019-10-22_21h05.46.359,SurveyExpMetaMem,3.2.3,Win32,60
,,,,,,,,,,,,,,,,,,,,5,1.757000208,4,0.068000078,1,0,1200,398,1,1199,handicapped,11137,2019-10-22_21h05.46.359,SurveyExpMetaMem,3.2.3,Win32,60
,,,,,,,,,,,,,,,,,,,,5,2.631000042,5,0.119000196,1,0,1200,806,1,1199,tree,11137,2019-10-22_21h05.46.359,SurveyExpMetaMem,3.2.3,Win32,60
,,,,,,,,,,,,,,,,,,,,5,1.761000156,4,0.077000141,1,0,1200,1061,1,1199,difficult,11137,2019-10-22_21h05.46.359,SurveyExpMetaMem,3.2.3,Win32,60
,,,,,,,,,,,,,,,,,,,,5,1.384000301,5,0.15500021,1,0,1200,215,1,1199,salary,11137,2019-10-22_21h05.46.359,SurveyExpMetaMem,3.2.3,Win32,60
,,,,,,,,,,,,,,,,,,,,6,2.285000086,3,0.639000177,1,0,1200,992,1,1199,addict,11137,2019-10-22_21h05.46.359,SurveyExpMetaMem,3.2.3,Win32,60
,,,,,,,,,,,,,,,,,,,,4,2.227999926,5,0.158000231,1,0,1200,561,1,1199,plain,11137,2019-10-22_21h05.46.359,SurveyExpMetaMem,3.2.3,Win32,60
,,,,,,,,,,,,,,,,,,,,6,1.792999983,4,0.158000231,1,0,1200,1005,1,1199,pissed,11137,2019-10-22_21h05.46.359,SurveyExpMetaMem,3.2.3,Win32,60
,,,,,,,,,,,,,,,,,,,,6,2.703000069,5,0.078999996,1,0,1200,1092,1,1199,rattlesnake,11137,2019-10-22_21h05.46.359,SurveyExpMetaMem,3.2.3,Win32,60
,,,,,,,,,,,,,,,,,,,,6,2.01699996,4,0.425000191,1,0,1200,357,1,1199,whine,11137,2019-10-22_21h05.46.359,SurveyExpMetaMem,3.2.3,Win32,60
,,,,,,,,,,,,,,,,,,,,6,2.45600009,6,0.09800005,1,0,1200,11,1,1199,astonished,11137,2019-10-22_21h05.46.359,SurveyExpMetaMem,3.2.3,Win32,60
,,,,,,,,,,,,,,,,,,,,7,2.28000021,3,0.893000126,1,0,1200,584,1,1199,anus,11137,2019-10-22_21h05.46.359,SurveyExpMetaMem,3.2.3,Win32,60
,,,,,,,,,,,,,,,,,,,,5,1.622999907,5,0.111000061,1,0,1200,147,1,1199,cure,11137,2019-10-22_21h05.46.359,SurveyExpMetaMem,3.2.3,Win32,60
,,,,,,,,,,,,,,,,,,,,6,1.676000118,6,0.111000061,1,0,1200,299,1,1199,champion,11137,2019-10-22_21h05.46.359,SurveyExpMetaMem,3.2.3,Win32,60
,,,,,,,,,,,,,,,,,,,,6,1.677000046,5,0.094000101,1,0,1200,112,1,1199,jaguar,11137,2019-10-22_21h05.46.359,SurveyExpMetaMem,3.2.3,Win32,60
,,,,,,,,,,,,,,,,,,,,5,3.268000126,4,0.223999977,1,0,1200,475,1,1199,nameless,11137,2019-10-22_21h05.46.359,SurveyExpMetaMem,3.2.3,Win32,60
,,,,,,,,,,,,,,,,,,,,6,2.159000158,6,0.10400033,1,0,1200,295,1,1199,passion,11137,2019-10-22_21h05.46.359,SurveyExpMetaMem,3.2.3,Win32,60
,,,,,,,,,,,,,,,,,,,,6,1.262000084,6,0.126000166,1,0,1200,116,1,1199,carnival,11137,2019-10-22_21h05.46.359,SurveyExpMetaMem,3.2.3,Win32,60
,,,,,,,,,,,,,,,,,,,,6,1.877000093,3,0.916000128,1,0,1200,909,1,1199,terrified,11137,2019-10-22_21h05.46.359,SurveyExpMetaMem,3.2.3,Win32,60
,,,,,,,,,,,,,,,,,,,,5,1.094000101,5,0.127000093,1,0,1200,466,1,1199,gnaw,11137,2019-10-22_21h05.46.359,SurveyExpMetaMem,3.2.3,Win32,60
,,,,,,,,,,,,,,,,,,,,7,2.103000164,3,1.148000002,1,0,1200,1033,1,1199,horror,11137,2019-10-22_21h05.46.359,SurveyExpMetaMem,3.2.3,Win32,60
,,,,,,,,,,,,,,,,,,,,4,2.457000017,4,0.111000061,1,0,1200,490,1,1199,detached,11137,2019-10-22_21h05.46.359,SurveyExpMetaMem,3.2.3,Win32,60
,,,,,,,,,,,,,,,,,,,,6,2.22300005,6,0.378999949,1,0,1200,487,1,1199,junk,11137,2019-10-22_21h05.46.359,SurveyExpMetaMem,3.2.3,Win32,60
,,,,,,,,,,,,,,,,,,,,4,4.296000004,4,0.118000269,1,0,1200,392,1,1199,moody,11137,2019-10-22_21h05.46.359,SurveyExpMetaMem,3.2.3,Win32,60
,,,,,,,,,,,,,,,,,,,,5,2.880000114,6,0.111000299,1,0,1200,892,1,1199,untroubled,11137,2019-10-22_21h05.46.359,SurveyExpMetaMem,3.2.3,Win32,60
,,,,,,,,,,,,,,,,,,,,5,3.031000137,5,0.107000113,1,0,1200,673,1,1199,bedspread,11137,2019-10-22_21h05.46.359,SurveyExpMetaMem,3.2.3,Win32,60
,,,,,,,,,,,,,,,,,,,,3,2.976999998,6,1.671000242,1,0,1200,899,1,1199,relax,11137,2019-10-22_21h05.46.359,SurveyExpMetaMem,3.2.3,Win32,60
,,,,,,,,,,,,,,,,,,,,6,1.82400012,4,0.247000217,1,0,1200,1194,1,1199,obsession,11137,2019-10-22_21h05.46.359,SurveyExpMetaMem,3.2.3,Win32,60
,,,,,,,,,,,,,,,,,,,,7,2.375000238,6,0.691000223,1,0,1200,105,1,1199,curious,11137,2019-10-22_21h05.46.359,SurveyExpMetaMem,3.2.3,Win32,60
,,,,,,,,,,,,,,,,,,,,5,3.845000029,5,0.120000124,1,0,1200,480,1,1199,hinder,11137,2019-10-22_21h05.46.359,SurveyExpMetaMem,3.2.3,Win32,60
,,,,,,,,,,,,,,,,,,,,5,0.800000191,5,0.099000216,1,0,1200,734,1,1199,piano,11137,2019-10-22_21h05.46.359,SurveyExpMetaMem,3.2.3,Win32,60
,,,,,,,,,,,,,,,,,,,,5,0.757000208,5,0.117000103,1,0,1200,714,1,1199,courtyard,11137,2019-10-22_21h05.46.359,SurveyExpMetaMem,3.2.3,Win32,60
,,,,,,,,,,,,,,,,,,,,5,1.075000048,5,0.11500001,1,0,1200,380,1,1199,expire,11137,2019-10-22_21h05.46.359,SurveyExpMetaMem,3.2.3,Win32,60
,,,,,,,,,,,,,,,,,,,,5,0.990000248,5,0.127000093,1,0,1200,1160,1,1199,enlist,11137,2019-10-22_21h05.46.359,SurveyExpMetaMem,3.2.3,Win32,60
,,,,,,,,,,,,,,,,,,,,5,1.265000105,5,0.143000126,1,0,1200,636,1,1199,refine,11137,2019-10-22_21h05.46.359,SurveyExpMetaMem,3.2.3,Win32,60
,,,,,,,,,,,,,,,,,,,,6,1.614000082,5,0.086000204,1,0,1200,69,1,1199,special,11137,2019-10-22_21h05.46.359,SurveyExpMetaMem,3.2.3,Win32,60
,,,,,,,,,,,,,,,,,,,,5,2.281000137,5,0.141000032,1,0,1200,526,1,1199,dry,11137,2019-10-22_21h05.46.359,SurveyExpMetaMem,3.2.3,Win32,60
,,,,,,,,,,,,,,,,,,,,5,0.986000299,5,0.124000072,1,0,1200,778,1,1199,adorn,11137,2019-10-22_21h05.46.359,SurveyExpMetaMem,3.2.3,Win32,60
,,,,,,,,,,,,,,,,,,,,7,3.599000216,1,0.894999981,1,0,1200,916,1,1199,starvation,11137,2019-10-22_21h05.46.359,SurveyExpMetaMem,3.2.3,Win32,60
,,,,,,,,,,,,,,,,,,,,7,1.565000057,3,0.902000189,1,0,1200,921,1,1199,humiliation,11137,2019-10-22_21h05.46.359,SurveyExpMetaMem,3.2.3,Win32,60
,,,,,,,,,,,,,,,,,,,,8,2.74600029,9,0.181000233,1,0,1200,195,1,1199,laughing,11137,2019-10-22_21h05.46.359,SurveyExpMetaMem,3.2.3,Win32,60
,,,,,,,,,,,,,,,,,,,,5,1.300000191,5,0.114000082,1,0,1200,241,1,1199,car,11137,2019-10-22_21h05.46.359,SurveyExpMetaMem,3.2.3,Win32,60
,,,,,,,,,,,,,,,,,,,,6,2.657000065,3,0.677000046,1,0,1200,670,1,1199,urinate,11137,2019-10-22_21h05.46.359,SurveyExpMetaMem,3.2.3,Win32,60
,,,,,,,,,,,,,,,,,,,,4,32.14100003,5,1.84100008,1,0,1200,803,1,1199,tidy,11137,2019-10-22_21h05.46.359,SurveyExpMetaMem,3.2.3,Win32,60
,,,,,,,,,,,,,,,,,,,,5,3.217999935,5,0.143000126,1,0,1200,557,1,1199,class,11137,2019-10-22_21h05.46.359,SurveyExpMetaMem,3.2.3,Win32,60
,,,,,,,,,,,,,,,,,,,,5,1.065000057,5,0.142000198,1,0,1200,531,1,1199,omit,11137,2019-10-22_21h05.46.359,SurveyExpMetaMem,3.2.3,Win32,60
,,,,,,,,,,,,,,,,,,,,5,0.99000001,5,0.137000084,1,0,1200,760,1,1199,shrimp,11137,2019-10-22_21h05.46.359,SurveyExpMetaMem,3.2.3,Win32,60
,,,,,,,,,,,,,,,,,,,,5,1.18200016,5,0.163000107,1,0,1200,368,1,1199,dreary,11137,2019-10-22_21h05.46.359,SurveyExpMetaMem,3.2.3,Win32,60
,,,,,,,,,,,,,,,,,,,,5,1.209000111,5,0.153000116,1,0,1200,759,1,1199,prefer,11137,2019-10-22_21h05.46.359,SurveyExpMetaMem,3.2.3,Win32,60
,,,,,,,,,,,,,,,,,,,,5,0.942000151,5,0.159000158,1,0,1200,600,1,1199,parlor,11137,2019-10-22_21h05.46.359,SurveyExpMetaMem,3.2.3,Win32,60
,,,,,,,,,,,,,,,,,,,,5,1.327000141,5,0.145000219,1,0,1200,223,1,1199,fashion,11137,2019-10-22_21h05.46.359,SurveyExpMetaMem,3.2.3,Win32,60
,,,,,,,,,,,,,,,,,,,,5,3.059000015,5,0.127000093,1,0,1200,239,1,1199,compassionate,11137,2019-10-22_21h05.46.359,SurveyExpMetaMem,3.2.3,Win32,60
,,,,,,,,,,,,,,,,,,,,5,0.892000198,5,0.123000145,1,0,1200,1187,1,1199,drill,11137,2019-10-22_21h05.46.359,SurveyExpMetaMem,3.2.3,Win32,60
,,,,,,,,,,,,,,,,,,,,5,0.773000002,5,0.106000185,1,0,1200,686,1,1199,phone,11137,2019-10-22_21h05.46.359,SurveyExpMetaMem,3.2.3,Win32,60
,,,,,,,,,,,,,,,,,,,,5,1.421000004,5,0.138000011,1,0,1200,750,1,1199,porpoise,11137,2019-10-22_21h05.46.359,SurveyExpMetaMem,3.2.3,Win32,60
,,,,,,,,,,,,,,,,,,,,5,0.935000181,5,0.128000259,1,0,1200,696,1,1199,rink,11137,2019-10-22_21h05.46.359,SurveyExpMetaMem,3.2.3,Win32,60
,,,,,,,,,,,,,,,,,,,,5,0.680999994,5,0.137000084,1,0,1200,59,1,1199,sports,11137,2019-10-22_21h05.46.359,SurveyExpMetaMem,3.2.3,Win32,60
,,,,,,,,,,,,,,,,,,,,4,2.901000261,6,1.936000109,1,0,1200,894,1,1199,sunset,11137,2019-10-22_21h05.46.359,SurveyExpMetaMem,3.2.3,Win32,60
,,,,,,,,,,,,,,,,,,,,5,1.459000111,5,0.110000134,1,0,1200,483,1,1199,condescension,11137,2019-10-22_21h05.46.359,SurveyExpMetaMem,3.2.3,Win32,60
,,,,,,,,,,,,,,,,,,,,6,2.294000149,2,0.79700017,1,0,1200,1009,1,1199,frightened,11137,2019-10-22_21h05.46.359,SurveyExpMetaMem,3.2.3,Win32,60
,,,,,,,,,,,,,,,,,,,,6,2.802000284,6,0.136000156,1,0,1200,218,1,1199,charming,11137,2019-10-22_21h05.46.359,SurveyExpMetaMem,3.2.3,Win32,60
,,,,,,,,,,,,,,,,,,,,5,1.023000002,5,0.128000021,1,0,1200,668,1,1199,unit,11137,2019-10-22_21h05.46.359,SurveyExpMetaMem,3.2.3,Win32,60
,,,,,,,,,,,,,,,,,,,,5,0.739000082,5,0.130000114,1,0,1200,767,1,1199,civil,11137,2019-10-22_21h05.46.359,SurveyExpMetaMem,3.2.3,Win32,60
,,,,,,,,,,,,,,,,,,,,4,2.335000277,4,0.139000177,1,0,1200,365,1,1199,discouraged,11137,2019-10-22_21h05.46.359,SurveyExpMetaMem,3.2.3,Win32,60
,,,,,,,,,,,,,,,,,,,,7,3.380000114,7,0.143000126,1,0,1200,146,1,1199,congratulations,11137,2019-10-22_21h05.46.359,SurveyExpMetaMem,3.2.3,Win32,60
,,,,,,,,,,,,,,,,,,,,5,1.328000069,5,0.128000021,1,0,1200,109,1,1199,new,11137,2019-10-22_21h05.46.359,SurveyExpMetaMem,3.2.3,Win32,60
,,,,,,,,,,,,,,,,,,,,5,2.811000109,3,0.400000095,1,0,1200,396,1,1199,unpopular,11137,2019-10-22_21h05.46.359,SurveyExpMetaMem,3.2.3,Win32,60
,,,,,,,,,,,,,,,,,,,,4,2.654000044,7,0.532999992,1,0,1200,810,1,1199,polite,11137,2019-10-22_21h05.46.359,SurveyExpMetaMem,3.2.3,Win32,60
,,,,,,,,,,,,,,,,,,,,5,2.743000031,5,0.134000301,1,0,1200,471,1,1199,chump,11137,2019-10-22_21h05.46.359,SurveyExpMetaMem,3.2.3,Win32,60
,,,,,,,,,,,,,,,,,,,,7,4.686000109,8,0.177000284,1,0,1200,96,1,1199,joke,11137,2019-10-22_21h05.46.359,SurveyExpMetaMem,3.2.3,Win32,60
,,,,,,,,,,,,,,,,,,,,7,1.775000095,8,0.096000195,1,0,1200,99,1,1199,funny,11137,2019-10-22_21h05.46.359,SurveyExpMetaMem,3.2.3,Win32,60
,,,,,,,,,,,,,,,,,,,,7,1.727000237,2,1.126000166,1,0,1200,922,1,1199,nightmare,11137,2019-10-22_21h05.46.359,SurveyExpMetaMem,3.2.3,Win32,60
,,,,,,,,,,,,,,,,,,,,5,3.13499999,6,0.112999916,1,0,1200,287,1,1199,optimistic,11137,2019-10-22_21h05.46.359,SurveyExpMetaMem,3.2.3,Win32,60
,,,,,,,,,,,,,,,,,,,,6,4.393000126,3,0.983000278,1,0,1200,367,1,1199,pathetic,11137,2019-10-22_21h05.46.359,SurveyExpMetaMem,3.2.3,Win32,60
,,,,,,,,,,,,,,,,,,,,5,1.09800005,5,0.137000084,1,0,1200,776,1,1199,doll,11137,2019-10-22_21h05.46.359,SurveyExpMetaMem,3.2.3,Win32,60
,,,,,,,,,,,,,,,,,,,,5,3.722000122,4,0.243999958,1,0,1200,427,1,1199,doubt,11137,2019-10-22_21h05.46.359,SurveyExpMetaMem,3.2.3,Win32,60
,,,,,,,,,,,,,,,,,,,,7,4.055000067,5,0.925000191,1,0,1200,1104,1,1199,avalanche,11137,2019-10-22_21h05.46.359,SurveyExpMetaMem,3.2.3,Win32,60
,,,,,,,,,,,,,,,,,,,,6,3.09100008,4,0.378000021,1,0,1200,1008,1,1199,gang,11137,2019-10-22_21h05.46.359,SurveyExpMetaMem,3.2.3,Win32,60
,,,,,,,,,,,,,,,,,,,,6,1.75600028,5,0.171999931,1,0,1200,7,1,1199,duet,11137,2019-10-22_21h05.46.359,SurveyExpMetaMem,3.2.3,Win32,60
,,,,,,,,,,,,,,,,,,,,5,1.894999981,5,0.128999949,1,0,1200,1173,1,1199,lurk,11137,2019-10-22_21h05.46.359,SurveyExpMetaMem,3.2.3,Win32,60
,,,,,,,,,,,,,,,,,,,,5,2.46600008,2,0.815999985,1,0,1200,1056,1,1199,crime,11137,2019-10-22_21h05.46.359,SurveyExpMetaMem,3.2.3,Win32,60
,,,,,,,,,,,,,,,,,,,,5,1.752000093,5,0.127000093,1,0,1200,321,1,1199,wart,11137,2019-10-22_21h05.46.359,SurveyExpMetaMem,3.2.3,Win32,60
,,,,,,,,,,,,,,,,,,,,4,2.157999992,8,1.18200016,1,0,1200,891,1,1199,kind,11137,2019-10-22_21h05.46.359,SurveyExpMetaMem,3.2.3,Win32,60
,,,,,,,,,,,,,,,,,,,,6,2.725000143,4,0.193000078,1,0,1200,1107,1,1199,snake,11137,2019-10-22_21h05.46.359,SurveyExpMetaMem,3.2.3,Win32,60
,,,,,,,,,,,,,,,,,,,,5,1.167000055,5,0.134000063,1,0,1200,50,1,1199,bolt,11137,2019-10-22_21h05.46.359,SurveyExpMetaMem,3.2.3,Win32,60
,,,,,,,,,,,,,,,,,,,,5,2.500999928,4,0.177000046,1,0,1200,952,1,1199,troubled,11137,2019-10-22_21h05.46.359,SurveyExpMetaMem,3.2.3,Win32,60
,,,,,,,,,,,,,,,,,,,,6,2.323000193,2,0.428000212,1,0,1200,929,1,1199,mutilation,11137,2019-10-22_21h05.46.359,SurveyExpMetaMem,3.2.3,Win32,60
,,,,,,,,,,,,,,,,,,,,5,1.575999975,5,0.123000145,1,0,1200,703,1,1199,book,11137,2019-10-22_21h05.46.359,SurveyExpMetaMem,3.2.3,Win32,60
,,,,,,,,,,,,,,,,,,,,5,1.289000034,5,0.160000086,1,0,1200,62,1,1199,interested,11137,2019-10-22_21h05.46.359,SurveyExpMetaMem,3.2.3,Win32,60
,,,,,,,,,,,,,,,,,,,,5,1.355999947,5,0.145999908,1,0,1200,724,1,1199,owl,11137,2019-10-22_21h05.46.359,SurveyExpMetaMem,3.2.3,Win32,60
,,,,,,,,,,,,,,,,,,,,5,0.800000191,5,0.151000023,1,0,1200,213,1,1199,fair,11137,2019-10-22_21h05.46.359,SurveyExpMetaMem,3.2.3,Win32,60
,,,,,,,,,,,,,,,,,,,,5,2.163000345,4,0.200000048,1,0,1200,462,1,1199,shallow,11137,2019-10-22_21h05.46.359,SurveyExpMetaMem,3.2.3,Win32,60
,,,,,,,,,,,,,,,,,,,,5,1.89800024,6,0.124000311,1,0,1200,31,1,1199,brownie,11137,2019-10-22_21h05.46.359,SurveyExpMetaMem,3.2.3,Win32,60
,,,,,,,,,,,,,,,,,,,,7,5.545000076,5,0.876000166,1,0,1200,1198,1,1199,lightning,11137,2019-10-22_21h05.46.359,SurveyExpMetaMem,3.2.3,Win32,60
,,,,,,,,,,,,,,,,,,,,5,1.926000118,5,0.145999908,1,0,1200,572,1,1199,cast,11137,2019-10-22_21h05.46.359,SurveyExpMetaMem,3.2.3,Win32,60
,,,,,,,,,,,,,,,,,,,,6,1.977000237,6,0.130000114,1,0,1200,183,1,1199,congratulate,11137,2019-10-22_21h05.46.359,SurveyExpMetaMem,3.2.3,Win32,60
,,,,,,,,,,,,,,,,,,,,6,1.536000013,6,0.147000074,1,0,1200,306,1,1199,gloom,11137,2019-10-22_21h05.46.359,SurveyExpMetaMem,3.2.3,Win32,60
,,,,,,,,,,,,,,,,,,,,6,2.860000134,3,0.829999924,1,0,1200,908,1,1199,suffer,11137,2019-10-22_21h05.46.359,SurveyExpMetaMem,3.2.3,Win32,60
,,,,,,,,,,,,,,,,,,,,6,2.209000111,5,0.202000141,1,0,1200,798,1,1199,crystal,11137,2019-10-22_21h05.46.359,SurveyExpMetaMem,3.2.3,Win32,60
,,,,,,,,,,,,,,,,,,,,6,2.259000063,6,0.127000093,1,0,1200,81,1,1199,best,11137,2019-10-22_21h05.46.359,SurveyExpMetaMem,3.2.3,Win32,60
,,,,,,,,,,,,,,,,,,,,6,1.016000032,6,0.128000021,1,0,1200,77,1,1199,adore,11137,2019-10-22_21h05.46.359,SurveyExpMetaMem,3.2.3,Win32,60
,,,,,,,,,,,,,,,,,,,,5,1.325000048,5,0.121000051,1,0,1200,463,1,1199,limp,11137,2019-10-22_21h05.46.359,SurveyExpMetaMem,3.2.3,Win32,60
,,,,,,,,,,,,,,,,,,,,6,2.503999949,3,0.608999968,1,0,1200,1054,1,1199,jealous,11137,2019-10-22_21h05.46.359,SurveyExpMetaMem,3.2.3,Win32,60
,,,,,,,,,,,,,,,,,,,,6,2.220999956,5,0.195000172,1,0,1200,1163,1,1199,python,11137,2019-10-22_21h05.46.359,SurveyExpMetaMem,3.2.3,Win32,60
,,,,,,,,,,,,,,,,,,,,5,2.393000126,5,0.128000021,1,0,1200,819,1,1199,sheep,11137,2019-10-22_21h05.46.359,SurveyExpMetaMem,3.2.3,Win32,60
,,,,,,,,,,,,,,,,,,,,7,3.798000097,3,0.776000261,1,0,1200,1139,1,1199,scare,11137,2019-10-22_21h05.46.359,SurveyExpMetaMem,3.2.3,Win32,60
,,,,,,,,,,,,,,,,,,,,5,1.529000044,5,0.154000044,1,0,1200,53,1,1199,lotion,11137,2019-10-22_21h05.46.359,SurveyExpMetaMem,3.2.3,Win32,60
,,,,,,,,,,,,,,,,,,,,5,2.21600008,5,0.174000263,1,0,1200,360,1,1199,dandruff,11137,2019-10-22_21h05.46.359,SurveyExpMetaMem,3.2.3,Win32,60
,,,,,,,,,,,,,,,,,,,,5,1.391000271,5,0.196000099,1,0,1200,611,1,1199,herring,11137,2019-10-22_21h05.46.359,SurveyExpMetaMem,3.2.3,Win32,60
,,,,,,,,,,,,,,,,,,,,5,1.180000067,5,0.187000036,1,0,1200,356,1,1199,mucous,11137,2019-10-22_21h05.46.359,SurveyExpMetaMem,3.2.3,Win32,60
,,,,,,,,,,,,,,,,,,,,6,2.32400012,3,0.844000101,1,0,1200,1011,1,1199,robber,11137,2019-10-22_21h05.46.359,SurveyExpMetaMem,3.2.3,Win32,60
,,,,,,,,,,,,,,,,,,,,6,4.482000113,4,0.782000065,1,0,1200,1039,1,1199,stalk,11137,2019-10-22_21h05.46.359,SurveyExpMetaMem,3.2.3,Win32,60
,,,,,,,,,,,,,,,,,,,,5,1.328000069,5,0.131000042,1,0,1200,757,1,1199,sentiment,11137,2019-10-22_21h05.46.359,SurveyExpMetaMem,3.2.3,Win32,60
,,,,,,,,,,,,,,,,,,,,7,5.325000048,5,0.28399992,1,0,1200,1169,1,1199,enforcement,11137,2019-10-22_21h05.46.359,SurveyExpMetaMem,3.2.3,Win32,60
,,,,,,,,,,,,,,,,,,,,5,1.137000084,5,0.122999907,1,0,1200,733,1,1199,poetry,11137,2019-10-22_21h05.46.359,SurveyExpMetaMem,3.2.3,Win32,60
,,,,,,,,,,,,,,,,,,,,6,3.447999954,5,0.276000023,1,0,1200,103,1,1199,conquest,11137,2019-10-22_21h05.46.359,SurveyExpMetaMem,3.2.3,Win32,60
,,,,,,,,,,,,,,,,,,,,5,2.632000208,4,0.210000277,1,0,1200,581,1,1199,dork,11137,2019-10-22_21h05.46.359,SurveyExpMetaMem,3.2.3,Win32,60
,,,,,,,,,,,,,,,,,,,,6,1.526000023,6,0.113000154,1,0,1200,91,1,1199,pretty,11137,2019-10-22_21h05.46.359,SurveyExpMetaMem,3.2.3,Win32,60
,,,,,,,,,,,,,,,,,,,,5,2.380000114,5,0.137000084,1,0,1200,258,1,1199,children,11137,2019-10-22_21h05.46.359,SurveyExpMetaMem,3.2.3,Win32,60
,,,,,,,,,,,,,,,,,,,,5,1.636000156,5,0.102000237,1,0,1200,430,1,1199,cancel,11137,2019-10-22_21h05.46.359,SurveyExpMetaMem,3.2.3,Win32,60
,,,,,,,,,,,,,,,,,,,,5,3.383000135,5,0.147000074,1,0,1200,4,1,1199,night,11137,2019-10-22_21h05.46.359,SurveyExpMetaMem,3.2.3,Win32,60
,,,,,,,,,,,,,,,,,,,,5,1.93900013,5,0.120000124,1,0,1200,228,1,1199,suite,11137,2019-10-22_21h05.46.359,SurveyExpMetaMem,3.2.3,Win32,60
,,,,,,,,,,,,,,,,,,,,5,2.796000004,5,0.132000208,1,0,1200,440,1,1199,forgot,11137,2019-10-22_21h05.46.359,SurveyExpMetaMem,3.2.3,Win32,60
,,,,,,,,,,,,,,,,,,,,5,1.674000025,5,0.111000061,1,0,1200,807,1,1199,person,11137,2019-10-22_21h05.46.359,SurveyExpMetaMem,3.2.3,Win32,60
,,,,,,,,,,,,,,,,,,,,5,2.592999935,2,0.437000036,1,0,1200,319,1,1199,malaria,11137,2019-10-22_21h05.46.359,SurveyExpMetaMem,3.2.3,Win32,60
,,,,,,,,,,,,,,,,,,,,5,2.361999989,5,0.119000196,1,0,1200,726,1,1199,crackers,11137,2019-10-22_21h05.46.359,SurveyExpMetaMem,3.2.3,Win32,60
,,,,,,,,,,,,,,,,,,,,5,1.02300024,5,0.111000061,1,0,1200,569,1,1199,onion,11137,2019-10-22_21h05.46.359,SurveyExpMetaMem,3.2.3,Win32,60
,,,,,,,,,,,,,,,,,,,,5,3.107000113,5,0.153000116,1,0,1200,782,1,1199,open,11137,2019-10-22_21h05.46.359,SurveyExpMetaMem,3.2.3,Win32,60
,,,,,,,,,,,,,,,,,,,,5,0.945000172,5,0.148000002,1,0,1200,612,1,1199,propeller,11137,2019-10-22_21h05.46.359,SurveyExpMetaMem,3.2.3,Win32,60
,,,,,,,,,,,,,,,,,,,,3,4.822000027,5,0.961000204,1,0,1200,76,1,1199,midnight,11137,2019-10-22_21h05.46.359,SurveyExpMetaMem,3.2.3,Win32,60
,,,,,,,,,,,,,,,,,,,,5,7.93900013,5,0.154000044,1,0,1200,41,1,1199,progress,11137,2019-10-22_21h05.46.359,SurveyExpMetaMem,3.2.3,Win32,60
,,,,,,,,,,,,,,,,,,,,5,0.729000092,5,0.145000219,1,0,1200,615,1,1199,lad,11137,2019-10-22_21h05.46.359,SurveyExpMetaMem,3.2.3,Win32,60
,,,,,,,,,,,,,,,,,,,,6,2.749000072,7,0.109000206,1,0,1200,293,1,1199,succeed,11137,2019-10-22_21h05.46.359,SurveyExpMetaMem,3.2.3,Win32,60
,,,,,,,,,,,,,,,,,,,,5,1.534000158,5,0.128999949,1,0,1200,513,1,1199,bland,11137,2019-10-22_21h05.46.359,SurveyExpMetaMem,3.2.3,Win32,60
,,,,,,,,,,,,,,,,,,,,5,1.321000099,5,0.127000093,1,0,1200,375,1,1199,manure,11137,2019-10-22_21h05.46.359,SurveyExpMetaMem,3.2.3,Win32,60
,,,,,,,,,,,,,,,,,,,,7,3.373000145,6,0.177999973,1,0,1200,97,1,1199,enthusiastic,11137,2019-10-22_21h05.46.359,SurveyExpMetaMem,3.2.3,Win32,60
,,,,,,,,,,,,,,,,,,,,7,27.25200009,4,0.708000183,1,0,1200,1087,1,1199,affair,11137,2019-10-22_21h05.46.359,SurveyExpMetaMem,3.2.3,Win32,60
,,,,,,,,,,,,,,,,,,,,5,1.981000185,5,0.121000051,1,0,1200,758,1,1199,camera,11137,2019-10-22_21h05.46.359,SurveyExpMetaMem,3.2.3,Win32,60
,,,,,,,,,,,,,,,,,,,,5,2.286000013,5,0.196000099,1,0,1200,694,1,1199,pecan,11137,2019-10-22_21h05.46.359,SurveyExpMetaMem,3.2.3,Win32,60
,,,,,,,,,,,,,,,,,,,,5,0.766000271,5,0.153000116,1,0,1200,640,1,1199,cabin,11137,2019-10-22_21h05.46.359,SurveyExpMetaMem,3.2.3,Win32,60
,,,,,,,,,,,,,,,,,,,,6,3.308000088,2,1.493000031,1,0,1200,1196,1,1199,breathless,11137,2019-10-22_21h05.46.359,SurveyExpMetaMem,3.2.3,Win32,60
,,,,,,,,,,,,,,,,,,,,5,1.903000116,5,0.156000137,1,0,1200,679,1,1199,yellow,11137,2019-10-22_21h05.46.359,SurveyExpMetaMem,3.2.3,Win32,60
,,,,,,,,,,,,,,,,,,,,6,1.679000139,1,1.594000101,1,0,1200,1150,1,1199,forceful,11137,2019-10-22_21h05.46.359,SurveyExpMetaMem,3.2.3,Win32,60
,,,,,,,,,,,,,,,,,,,,8,6.367000341,7,0.36500001,1,0,1200,148,1,1199,victory,11137,2019-10-22_21h05.46.359,SurveyExpMetaMem,3.2.3,Win32,60
,,,,,,,,,,,,,,,,,,,,7,4.292999983,4,0.901000261,1,0,1200,1024,1,1199,burn,11137,2019-10-22_21h05.46.359,SurveyExpMetaMem,3.2.3,Win32,60
,,,,,,,,,,,,,,,,,,,,5,1.119000196,5,0.125999928,1,0,1200,1109,1,1199,germ,11137,2019-10-22_21h05.46.359,SurveyExpMetaMem,3.2.3,Win32,60
,,,,,,,,,,,,,,,,,,,,6,1.81400013,5,0.34800005,1,0,1200,74,1,1199,explore,11137,2019-10-22_21h05.46.359,SurveyExpMetaMem,3.2.3,Win32,60
,,,,,,,,,,,,,,,,,,,,6,1.408000231,5,0.179000139,1,0,1200,178,1,1199,alive,11137,2019-10-22_21h05.46.359,SurveyExpMetaMem,3.2.3,Win32,60
,,,,,,,,,,,,,,,,,,,,7,3.583000183,4,0.842000246,1,0,1200,1070,1,1199,bleed,11137,2019-10-22_21h05.46.359,SurveyExpMetaMem,3.2.3,Win32,60
,,,,,,,,,,,,,,,,,,,,3,2.265000105,6,1.917000294,1,0,1200,732,1,1199,humble,11137,2019-10-22_21h05.46.359,SurveyExpMetaMem,3.2.3,Win32,60
,,,,,,,,,,,,,,,,,,,,3,2.159000158,6,1.400000095,1,0,1200,805,1,1199,autumn,11137,2019-10-22_21h05.46.359,SurveyExpMetaMem,3.2.3,Win32,60
,,,,,,,,,,,,,,,,,,,,3,1.808000088,6,1.150000095,1,0,1200,138,1,1199,blessings,11137,2019-10-22_21h05.46.359,SurveyExpMetaMem,3.2.3,Win32,60
,,,,,,,,,,,,,,,,,,,,5,4.309000254,4,0.775000095,1,0,1200,1176,1,1199,vampire,11137,2019-10-22_21h05.46.359,SurveyExpMetaMem,3.2.3,Win32,60
,,,,,,,,,,,,,,,,,,,,5,1.374000072,5,0.120000124,1,0,1200,498,1,1199,alimony,11137,2019-10-22_21h05.46.359,SurveyExpMetaMem,3.2.3,Win32,60
,,,,,,,,,,,,,,,,,,,,4,2.579000235,4,0.110000134,1,0,1200,344,1,1199,pessimistic,11137,2019-10-22_21h05.46.359,SurveyExpMetaMem,3.2.3,Win32,60
,,,,,,,,,,,,,,,,,,,,5,3.196000099,6,0.109000206,1,0,1200,171,1,1199,imagination,11137,2019-10-22_21h05.46.359,SurveyExpMetaMem,3.2.3,Win32,60
,,,,,,,,,,,,,,,,,,,,6,8.098999977,1,0.775000095,1,0,1200,1100,1,1199,evil,11137,2019-10-22_21h05.46.359,SurveyExpMetaMem,3.2.3,Win32,60
,,,,,,,,,,,,,,,,,,,,6,1.817000151,2,0.631000042,1,0,1200,1167,1,1199,bribe,11137,2019-10-22_21h05.46.359,SurveyExpMetaMem,3.2.3,Win32,60
,,,,,,,,,,,,,,,,,,,,7,3.308000088,6,1.164000034,1,0,1200,140,1,1199,riches,11137,2019-10-22_21h05.46.359,SurveyExpMetaMem,3.2.3,Win32,60
,,,,,,,,,,,,,,,,,,,,6,3.421000004,4,0.318000078,1,0,1200,500,1,1199,nosey,11137,2019-10-22_21h05.46.359,SurveyExpMetaMem,3.2.3,Win32,60
,,,,,,,,,,,,,,,,,,,,7,2.728000164,4,1.100000143,1,0,1200,1128,1,1199,fighting,11137,2019-10-22_21h05.46.359,SurveyExpMetaMem,3.2.3,Win32,60
,,,,,,,,,,,,,,,,,,,,7,3.767000198,6,0.179000139,1,0,1200,42,1,1199,accomplish,11137,2019-10-22_21h05.46.359,SurveyExpMetaMem,3.2.3,Win32,60
,,,,,,,,,,,,,,,,,,,,5,5.991000175,4,0.193000078,1,0,1200,1079,1,1199,critic,11137,2019-10-22_21h05.46.359,SurveyExpMetaMem,3.2.3,Win32,60
,,,,,,,,,,,,,,,,,,,,4,2.207000017,4,0.09800005,1,0,1200,1077,1,1199,unsure,11137,2019-10-22_21h05.46.359,SurveyExpMetaMem,3.2.3,Win32,60
,,,,,,,,,,,,,,,,,,,,6,2.138000011,4,0.224000216,1,0,1200,1072,1,1199,bothered,11137,2019-10-22_21h05.46.359,SurveyExpMetaMem,3.2.3,Win32,60
,,,,,,,,,,,,,,,,,,,,6,1.127000093,4,0.243000269,1,0,1200,1030,1,1199,offend,11137,2019-10-22_21h05.46.359,SurveyExpMetaMem,3.2.3,Win32,60
,,,,,,,,,,,,,,,,,,,,5,1.835999966,5,0.135000229,1,0,1200,212,1,1199,belief,11137,2019-10-22_21h05.46.359,SurveyExpMetaMem,3.2.3,Win32,60
,,,,,,,,,,,,,,,,,,,,5,1.107000113,5,0.143000126,1,0,1200,409,1,1199,old,11137,2019-10-22_21h05.46.359,SurveyExpMetaMem,3.2.3,Win32,60
,,,,,,,,,,,,,,,,,,,,6,4.924999952,1,0.748000145,1,0,1200,903,1,1199,cancer,11137,2019-10-22_21h05.46.359,SurveyExpMetaMem,3.2.3,Win32,60
,,,,,,,,,,,,,,,,,,,,7,3.647000074,5,0.263999939,1,0,1200,0,1,1199,dragon,11137,2019-10-22_21h05.46.359,SurveyExpMetaMem,3.2.3,Win32,60
,,,,,,,,,,,,,,,,,,,,6,3.978000164,8,0.774000168,1,0,1200,173,1,1199,hope,11137,2019-10-22_21h05.46.359,SurveyExpMetaMem,3.2.3,Win32,60
,,,,,,,,,,,,,,,,,,,,5,5.748000145,2,0.601999998,1,0,1200,920,1,1199,hurt,11137,2019-10-22_21h05.46.359,SurveyExpMetaMem,3.2.3,Win32,60
,,,,,,,,,,,,,,,,,,,,5,2.893000126,4,0.196000099,1,0,1200,478,1,1199,numb,11137,2019-10-22_21h05.46.359,SurveyExpMetaMem,3.2.3,Win32,60
,,,,,,,,,,,,,,,,,,,,4,3.645999908,4,0.18900013,1,0,1200,345,1,1199,unfortunate,11137,2019-10-22_21h05.46.359,SurveyExpMetaMem,3.2.3,Win32,60
,,,,,,,,,,,,,,,,,,,,8,2.975000143,5,1.569000006,1,0,1200,1134,1,1199,obsessed,11137,2019-10-22_21h05.46.359,SurveyExpMetaMem,3.2.3,Win32,60
,,,,,,,,,,,,,,,,,,,,5,2.130000114,5,0.195000172,1,0,1200,692,1,1199,medicine,11137,2019-10-22_21h05.46.359,SurveyExpMetaMem,3.2.3,Win32,60
,,,,,,,,,,,,,,,,,,,,7,2.690000296,7,0.131999969,1,0,1200,895,1,1199,peace,11137,2019-10-22_21h05.46.359,SurveyExpMetaMem,3.2.3,Win32,60
,,,,,,,,,,,,,,,,,,,,7,2.508000135,4,1.419000149,1,0,1200,1157,1,1199,slayer,11137,2019-10-22_21h05.46.359,SurveyExpMetaMem,3.2.3,Win32,60
,,,,,,,,,,,,,,,,,,,,4,2.371999979,4,0.110000134,1,0,1200,324,1,1199,inferiority,11137,2019-10-22_21h05.46.359,SurveyExpMetaMem,3.2.3,Win32,60
,,,,,,,,,,,,,,,,,,,,5,2.395000219,5,0.146000147,1,0,1200,497,1,1199,pungent,11137,2019-10-22_21h05.46.359,SurveyExpMetaMem,3.2.3,Win32,60
,,,,,,,,,,,,,,,,,,,,5,1.209000111,5,0.110000134,1,0,1200,489,1,1199,timid,11137,2019-10-22_21h05.46.359,SurveyExpMetaMem,3.2.3,Win32,60
,,,,,,,,,,,,,,,,,,,,5,1.258000135,5,0.149000168,1,0,1200,764,1,1199,coin,11137,2019-10-22_21h05.46.359,SurveyExpMetaMem,3.2.3,Win32,60
,,,,,,,,,,,,,,,,,,,,4,2.792000055,5,0.461000204,1,0,1200,635,1,1199,sensitive,11137,2019-10-22_21h05.46.359,SurveyExpMetaMem,3.2.3,Win32,60
,,,,,,,,,,,,,,,,,,,,7,3.215000153,4,0.603000164,1,0,1200,1058,1,1199,bloody,11137,2019-10-22_21h05.46.359,SurveyExpMetaMem,3.2.3,Win32,60
,,,,,,,,,,,,,,,,,,,,5,1.826000214,5,0.177000046,1,0,1200,652,1,1199,tend,11137,2019-10-22_21h05.46.359,SurveyExpMetaMem,3.2.3,Win32,60
,,,,,,,,,,,,,,,,,,,,3,3.561000109,4,0.364000082,1,0,1200,385,1,1199,tiresome,11137,2019-10-22_21h05.46.359,SurveyExpMetaMem,3.2.3,Win32,60
,,,,,,,,,,,,,,,,,,,,5,1.610000134,5,0.129000187,1,0,1200,834,1,1199,crown,11137,2019-10-22_21h05.46.359,SurveyExpMetaMem,3.2.3,Win32,60
,,,,,,,,,,,,,,,,,,,,7,27.53900003,5,1.508000135,1,0,1200,154,1,1199,race,11137,2019-10-22_21h05.46.359,SurveyExpMetaMem,3.2.3,Win32,60
,,,,,,,,,,,,,,,,,,,,8,2.383000135,9,0.097000122,1,0,1200,199,1,1199,laughter,11137,2019-10-22_21h05.46.359,SurveyExpMetaMem,3.2.3,Win32,60
,,,,,,,,,,,,,,,,,,,,5,2.065000057,5,0.126000166,1,0,1200,165,1,1199,sizzle,11137,2019-10-22_21h05.46.359,SurveyExpMetaMem,3.2.3,Win32,60
,,,,,,,,,,,,,,,,,,,,5,1.651000023,5,0.147000074,1,0,1200,563,1,1199,stupor,11137,2019-10-22_21h05.46.359,SurveyExpMetaMem,3.2.3,Win32,60
,,,,,,,,,,,,,,,,,,,,5,1.575000048,5,0.100000143,1,0,1200,610,1,1199,miniature,11137,2019-10-22_21h05.46.359,SurveyExpMetaMem,3.2.3,Win32,60
,,,,,,,,,,,,,,,,,,,,5,0.957999945,5,0.093000174,1,0,1200,518,1,1199,report,11137,2019-10-22_21h05.46.359,SurveyExpMetaMem,3.2.3,Win32,60
,,,,,,,,,,,,,,,,,,,,5,0.864000082,5,0.113000154,1,0,1200,274,1,1199,song,11137,2019-10-22_21h05.46.359,SurveyExpMetaMem,3.2.3,Win32,60
,,,,,,,,,,,,,,,,,,,,5,0.802000046,5,0.124000311,1,0,1200,658,1,1199,method,11137,2019-10-22_21h05.46.359,SurveyExpMetaMem,3.2.3,Win32,60
,,,,,,,,,,,,,,,,,,,,5,0.891000032,5,0.127000332,1,0,1200,556,1,1199,allege,11137,2019-10-22_21h05.46.359,SurveyExpMetaMem,3.2.3,Win32,60
,,,,,,,,,,,,,,,,,,,,4,2.117000103,3,0.169000149,1,0,1200,302,1,1199,loneliness,11137,2019-10-22_21h05.46.359,SurveyExpMetaMem,3.2.3,Win32,60
,,,,,,,,,,,,,,,,,,,,5,2.744999886,4,0.263000011,1,0,1200,442,1,1199,foolish,11137,2019-10-22_21h05.46.359,SurveyExpMetaMem,3.2.3,Win32,60
,,,,,,,,,,,,,,,,,,,,7,3.835000277,9,0.509000063,1,0,1200,197,1,1199,happy,11137,2019-10-22_21h05.46.359,SurveyExpMetaMem,3.2.3,Win32,60
,,,,,,,,,,,,,,,,,,,,5,1.888000011,6,0.126000166,1,0,1200,723,1,1199,cinnamon,11137,2019-10-22_21h05.46.359,SurveyExpMetaMem,3.2.3,Win32,60
,,,,,,,,,,,,,,,,,,,,6,3.845000267,6,0.148999929,1,0,1200,150,1,1199,vodka,11137,2019-10-22_21h05.46.359,SurveyExpMetaMem,3.2.3,Win32,60
,,,,,,,,,,,,,,,,,,,,6,2.442000151,4,0.799999952,1,0,1200,494,1,1199,butcher,11137,2019-10-22_21h05.46.359,SurveyExpMetaMem,3.2.3,Win32,60
,,,,,,,,,,,,,,,,,,,,5,1.447000265,5,0.127000093,1,0,1200,524,1,1199,sigh,11137,2019-10-22_21h05.46.359,SurveyExpMetaMem,3.2.3,Win32,60
,,,,,,,,,,,,,,,,,,,,8,3.942000151,6,0.452000141,1,0,1200,233,1,1199,exhilaration,11137,2019-10-22_21h05.46.359,SurveyExpMetaMem,3.2.3,Win32,60
,,,,,,,,,,,,,,,,,,,,5,2.407999992,4,0.21600008,1,0,1200,1111,1,1199,bruise,11137,2019-10-22_21h05.46.359,SurveyExpMetaMem,3.2.3,Win32,60
,,,,,,,,,,,,,,,,,,,,5,2.950999975,5,0.124000311,1,0,1200,509,1,1199,ash,11137,2019-10-22_21h05.46.359,SurveyExpMetaMem,3.2.3,Win32,60
,,,,,,,,,,,,,,,,,,,,5,1.27699995,5,0.140000105,1,0,1200,450,1,1199,overcast,11137,2019-10-22_21h05.46.359,SurveyExpMetaMem,3.2.3,Win32,60
,,,,,,,,,,,,,,,,,,,,7,2.095000029,4,0.309000254,1,0,1200,1118,1,1199,frantic,11137,2019-10-22_21h05.46.359,SurveyExpMetaMem,3.2.3,Win32,60
,,,,,,,,,,,,,,,,,,,,2,1.975000143,7,1.713000298,1,0,1200,897,1,1199,peaceful,11137,2019-10-22_21h05.46.359,SurveyExpMetaMem,3.2.3,Win32,60
,,,,,,,,,,,,,,,,,,,,4,5.549000025,5,0.144000053,1,0,1200,771,1,1199,practical,11137,2019-10-22_21h05.46.359,SurveyExpMetaMem,3.2.3,Win32,60
,,,,,,,,,,,,,,,,,,,,5,2.163000107,5,0.117000103,1,0,1200,391,1,1199,detach,11137,2019-10-22_21h05.46.359,SurveyExpMetaMem,3.2.3,Win32,60
,,,,,,,,,,,,,,,,,,,,5,1.254000187,5,0.110000134,1,0,1200,859,1,1199,serene,11137,2019-10-22_21h05.46.359,SurveyExpMetaMem,3.2.3,Win32,60
,,,,,,,,,,,,,,,,,,,,7,2.213000059,4,0.243000031,1,0,1200,938,1,1199,seasick,11137,2019-10-22_21h05.46.359,SurveyExpMetaMem,3.2.3,Win32,60
,,,,,,,,,,,,,,,,,,,,5,1.242000103,5,0.112000227,1,0,1200,65,1,1199,restaurant,11137,2019-10-22_21h05.46.359,SurveyExpMetaMem,3.2.3,Win32,60
,,,,,,,,,,,,,,,,,,,,7,1.671000242,9,0.269999981,1,0,1200,240,1,1199,giggles,11137,2019-10-22_21h05.46.359,SurveyExpMetaMem,3.2.3,Win32,60
,,,,,,,,,,,,,,,,,,,,6,3.956000328,6,0.090000153,1,0,1200,127,1,1199,glamorous,11137,2019-10-22_21h05.46.359,SurveyExpMetaMem,3.2.3,Win32,60
,,,,,,,,,,,,,,,,,,,,6,2.016000032,4,0.202000141,1,0,1200,933,1,1199,afraid,11137,2019-10-22_21h05.46.359,SurveyExpMetaMem,3.2.3,Win32,60
,,,,,,,,,,,,,,,,,,,,5,1.779000044,5,0.117000103,1,0,1200,648,1,1199,beads,11137,2019-10-22_21h05.46.359,SurveyExpMetaMem,3.2.3,Win32,60
,,,,,,,,,,,,,,,,,,,,5,1.021000147,5,0.126000166,1,0,1200,777,1,1199,casual,11137,2019-10-22_21h05.46.359,SurveyExpMetaMem,3.2.3,Win32,60
,,,,,,,,,,,,,,,,,,,,5,2.945000172,4,0.177999973,1,0,1200,420,1,1199,smoke,11137,2019-10-22_21h05.46.359,SurveyExpMetaMem,3.2.3,Win32,60
,,,,,,,,,,,,,,,,,,,,5,2.093000174,5,0.12100029,1,0,1200,162,1,1199,royalty,11137,2019-10-22_21h05.46.359,SurveyExpMetaMem,3.2.3,Win32,60
,,,,,,,,,,,,,,,,,,,,3,3.404000044,6,1.492000103,1,0,1200,871,1,1199,comfort,11137,2019-10-22_21h05.46.359,SurveyExpMetaMem,3.2.3,Win32,60
,,,,,,,,,,,,,,,,,,,,5,1.46600008,5,0.128000021,1,0,1200,974,1,1199,roach,11137,2019-10-22_21h05.46.359,SurveyExpMetaMem,3.2.3,Win32,60
,,,,,,,,,,,,,,,,,,,,5,1.045000076,5,0.132000208,1,0,1200,441,1,1199,prohibit,11137,2019-10-22_21h05.46.359,SurveyExpMetaMem,3.2.3,Win32,60
,,,,,,,,,,,,,,,,,,,,5,1.109000206,5,0.152000189,1,0,1200,795,1,1199,soup,11137,2019-10-22_21h05.46.359,SurveyExpMetaMem,3.2.3,Win32,60
,,,,,,,,,,,,,,,,,,,,5,0.916000128,5,0.18200016,1,0,1200,401,1,1199,feeble,11137,2019-10-22_21h05.46.359,SurveyExpMetaMem,3.2.3,Win32,60
,,,,,,,,,,,,,,,,,,,,5,0.633000135,5,0.151000023,1,0,1200,399,1,1199,withdrawn,11137,2019-10-22_21h05.46.359,SurveyExpMetaMem,3.2.3,Win32,60
,,,,,,,,,,,,,,,,,,,,5,0.910000086,5,0.169000149,1,0,1200,110,1,1199,animal,11137,2019-10-22_21h05.46.359,SurveyExpMetaMem,3.2.3,Win32,60
,,,,,,,,,,,,,,,,,,,,5,0.633000135,5,0.1650002,1,0,1200,125,1,1199,dancing,11137,2019-10-22_21h05.46.359,SurveyExpMetaMem,3.2.3,Win32,60
,,,,,,,,,,,,,,,,,,,,6,2.263000011,5,0.112000227,1,0,1200,15,1,1199,curiosity,11137,2019-10-22_21h05.46.359,SurveyExpMetaMem,3.2.3,Win32,60
,,,,,,,,,,,,,,,,,,,,5,2.043000221,5,0.129000187,1,0,1200,791,1,1199,shoes,11137,2019-10-22_21h05.46.359,SurveyExpMetaMem,3.2.3,Win32,60
,,,,,,,,,,,,,,,,,,,,6,2.243000269,4,0.245000124,1,0,1200,997,1,1199,injury,11137,2019-10-22_21h05.46.359,SurveyExpMetaMem,3.2.3,Win32,60
,,,,,,,,,,,,,,,,,,,,5,1.13499999,5,0.132000208,1,0,1200,436,1,1199,mediocre,11137,2019-10-22_21h05.46.359,SurveyExpMetaMem,3.2.3,Win32,60
,,,,,,,,,,,,,,,,,,,,3,1.855999947,7,1.124000072,1,0,1200,139,1,1199,generosity,11137,2019-10-22_21h05.46.359,SurveyExpMetaMem,3.2.3,Win32,60
,,,,,,,,,,,,,,,,,,,,4,2.641000271,8,1.562000275,1,0,1200,124,1,1199,honeymoon,11137,2019-10-22_21h05.46.359,SurveyExpMetaMem,3.2.3,Win32,60
,,,,,,,,,,,,,,,,,,,,5,1.392000198,5,0.137000084,1,0,1200,1178,1,1199,weight,11137,2019-10-22_21h05.46.359,SurveyExpMetaMem,3.2.3,Win32,60
,,,,,,,,,,,,,,,,,,,,5,0.750000238,5,0.138000011,1,0,1200,493,1,1199,little,11137,2019-10-22_21h05.46.359,SurveyExpMetaMem,3.2.3,Win32,60
,,,,,,,,,,,,,,,,,,,,7,1.677000284,1,0.695000172,1,0,1200,950,1,1199,murder,11137,2019-10-22_21h05.46.359,SurveyExpMetaMem,3.2.3,Win32,60
,,,,,,,,,,,,,,,,,,,,4,3.147000074,4,0.124000311,1,0,1200,323,1,1199,ungrateful,11137,2019-10-22_21h05.46.359,SurveyExpMetaMem,3.2.3,Win32,60
,,,,,,,,,,,,,,,,,,,,3,2.039999962,4,0.152000189,1,0,1200,548,1,1199,vague,11137,2019-10-22_21h05.46.359,SurveyExpMetaMem,3.2.3,Win32,60
,,,,,,,,,,,,,,,,,,,,5,2.318000078,5,0.114000082,1,0,1200,232,1,1199,prosper,11137,2019-10-22_21h05.46.359,SurveyExpMetaMem,3.2.3,Win32,60
,,,,,,,,,,,,,,,,,,,,6,2.769999981,6,0.124000072,1,0,1200,182,1,1199,genius,11137,2019-10-22_21h05.46.359,SurveyExpMetaMem,3.2.3,Win32,60
,,,,,,,,,,,,,,,,,,,,5,1.677999973,5,0.125000238,1,0,1200,43,1,1199,diamond,11137,2019-10-22_21h05.46.359,SurveyExpMetaMem,3.2.3,Win32,60
,,,,,,,,,,,,,,,,,,,,7,2.193000078,7,0.138999939,1,0,1200,294,1,1199,confident,11137,2019-10-22_21h05.46.359,SurveyExpMetaMem,3.2.3,Win32,60
,,,,,,,,,,,,,,,,,,,,5,1.306000233,5,0.117000103,1,0,1200,56,1,1199,spice,11137,2019-10-22_21h05.46.359,SurveyExpMetaMem,3.2.3,Win32,60
,,,,,,,,,,,,,,,,,,,,8,4.22300005,5,0.627000093,1,0,1200,1172,1,1199,overwhelmed,11137,2019-10-22_21h05.46.359,SurveyExpMetaMem,3.2.3,Win32,60
,,,,,,,,,,,,,,,,,,,,5,1.522000313,5,0.132000208,1,0,1200,604,1,1199,lamp,11137,2019-10-22_21h05.46.359,SurveyExpMetaMem,3.2.3,Win32,60
,,,,,,,,,,,,,,,,,,,,5,2.457999945,5,0.117000103,1,0,1200,838,1,1199,nestle,11137,2019-10-22_21h05.46.359,SurveyExpMetaMem,3.2.3,Win32,60
,,,,,,,,,,,,,,,,,,,,7,2.357000113,5,0.239000082,1,0,1200,1183,1,1199,emotional,11137,2019-10-22_21h05.46.359,SurveyExpMetaMem,3.2.3,Win32,60
,,,,,,,,,,,,,,,,,,,,5,1.638999939,5,0.136000156,1,0,1200,33,1,1199,sister,11137,2019-10-22_21h05.46.359,SurveyExpMetaMem,3.2.3,Win32,60
,,,,,,,,,,,,,,,,,,,,5,0.851000071,5,0.139000177,1,0,1200,729,1,1199,velvet,11137,2019-10-22_21h05.46.359,SurveyExpMetaMem,3.2.3,Win32,60
,,,,,,,,,,,,,,,,,,,,5,2.677000046,4,0.190999985,1,0,1200,1114,1,1199,foe,11137,2019-10-22_21h05.46.359,SurveyExpMetaMem,3.2.3,Win32,60
,,,,,,,,,,,,,,,,,,,,6,1.725000143,4,0.417000055,1,0,1200,326,1,1199,scam,11137,2019-10-22_21h05.46.359,SurveyExpMetaMem,3.2.3,Win32,60
,,,,,,,,,,,,,,,,,,,,5,1.374000072,5,0.109000206,1,0,1200,793,1,1199,virtue,11137,2019-10-22_21h05.46.359,SurveyExpMetaMem,3.2.3,Win32,60
,,,,,,,,,,,,,,,,,,,,5,1.190000057,5,0.141000271,1,0,1200,2,1,1199,zealous,11137,2019-10-22_21h05.46.359,SurveyExpMetaMem,3.2.3,Win32,60
,,,,,,,,,,,,,,,,,,,,5,1.179000139,5,0.128000021,1,0,1200,539,1,1199,novice,11137,2019-10-22_21h05.46.359,SurveyExpMetaMem,3.2.3,Win32,60
,,,,,,,,,,,,,,,,,,,,5,0.925000191,5,0.151000261,1,0,1200,549,1,1199,beet,11137,2019-10-22_21h05.46.359,SurveyExpMetaMem,3.2.3,Win32,60
,,,,,,,,,,,,,,,,,,,,8,2.896000147,1,1.38100028,1,0,1200,1,1,1199,fuck,11137,2019-10-22_21h05.46.359,SurveyExpMetaMem,3.2.3,Win32,60
,,,,,,,,,,,,,,,,,,,,5,5.499000072,5,0.136000156,1,0,1200,1017,1,1199,aggravated,11137,2019-10-22_21h05.46.359,SurveyExpMetaMem,3.2.3,Win32,60
,,,,,,,,,,,,,,,,,,,,5,1.129000187,5,0.133000135,1,0,1200,89,1,1199,cruiseship,11137,2019-10-22_21h05.46.359,SurveyExpMetaMem,3.2.3,Win32,60
,,,,,,,,,,,,,,,,,,,,5,1.17200017,5,0.144000053,1,0,1200,280,1,1199,cookout,11137,2019-10-22_21h05.46.359,SurveyExpMetaMem,3.2.3,Win32,60
,,,,,,,,,,,,,,,,,,,,5,1.318000317,5,0.174000263,1,0,1200,249,1,1199,award,11137,2019-10-22_21h05.46.359,SurveyExpMetaMem,3.2.3,Win32,60
,,,,,,,,,,,,,,,,,,,,5,0.56400013,5,0.151000023,1,0,1200,809,1,1199,boy,11137,2019-10-22_21h05.46.359,SurveyExpMetaMem,3.2.3,Win32,60
,,,,,,,,,,,,,,,,,,,,5,0.509000301,5,0.126000166,1,0,1200,18,1,1199,mail,11137,2019-10-22_21h05.46.359,SurveyExpMetaMem,3.2.3,Win32,60
,,,,,,,,,,,,,,,,,,,,5,0.657000065,5,0.129000187,1,0,1200,1097,1,1199,bees,11137,2019-10-22_21h05.46.359,SurveyExpMetaMem,3.2.3,Win32,60
,,,,,,,,,,,,,,,,,,,,5,0.676000118,5,0.145000219,1,0,1200,544,1,1199,snail,11137,2019-10-22_21h05.46.359,SurveyExpMetaMem,3.2.3,Win32,60
,,,,,,,,,,,,,,,,,,,,5,0.789000034,5,0.145999908,1,0,1200,26,1,1199,inspired,11137,2019-10-22_21h05.46.359,SurveyExpMetaMem,3.2.3,Win32,60
,,,,,,,,,,,,,,,,,,,,5,0.927000284,5,0.144999981,1,0,1200,841,1,1199,bathtub,11137,2019-10-22_21h05.46.359,SurveyExpMetaMem,3.2.3,Win32,60
,,,,,,,,,,,,,,,,,,,,5,0.562000036,5,0.151000023,1,0,1200,646,1,1199,wear,11137,2019-10-22_21h05.46.359,SurveyExpMetaMem,3.2.3,Win32,60
,,,,,,,,,,,,,,,,,,,,5,1.580000162,6,0.092000008,1,0,1200,120,1,1199,imaginative,11137,2019-10-22_21h05.46.359,SurveyExpMetaMem,3.2.3,Win32,60
,,,,,,,,,,,,,,,,,,,,8,1.975000143,1,1.629000187,1,0,1200,1130,1,1199,slut,11137,2019-10-22_21h05.46.359,SurveyExpMetaMem,3.2.3,Win32,60
,,,,,,,,,,,,,,,,,,,,3,2.666000128,7,1.799000263,1,0,1200,720,1,1199,stable,11137,2019-10-22_21h05.46.359,SurveyExpMetaMem,3.2.3,Win32,60
,,,,,,,,,,,,,,,,,,,,7,3.50999999,5,1.309999943,1,0,1200,137,1,1199,money,11137,2019-10-22_21h05.46.359,SurveyExpMetaMem,3.2.3,Win32,60
,,,,,,,,,,,,,,,,,,,,5,1.138000011,5,0.132000208,1,0,1200,770,1,1199,buffalo,11137,2019-10-22_21h05.46.359,SurveyExpMetaMem,3.2.3,Win32,60
,,,,,,,,,,,,,,,,,,,,3,2.39199996,3,0.111999989,1,0,1200,314,1,1199,hopeless,11137,2019-10-22_21h05.46.359,SurveyExpMetaMem,3.2.3,Win32,60
,,,,,,,,,,,,,,,,,,,,5,2.724000216,2,2.728000164,1,0,1200,372,1,1199,inferior,11137,2019-10-22_21h05.46.359,SurveyExpMetaMem,3.2.3,Win32,60
,,,,,,,,,,,,,,,,,,,,4,2.377000093,5,1.275000095,1,0,1200,864,1,1199,blanket,11137,2019-10-22_21h05.46.359,SurveyExpMetaMem,3.2.3,Win32,60
,,,,,,,,,,,,,,,,,,,,4,3.418000221,4,0.117000103,1,0,1200,383,1,1199,messy,11137,2019-10-22_21h05.46.359,SurveyExpMetaMem,3.2.3,Win32,60
,,,,,,,,,,,,,,,,,,,,5,0.822000265,5,0.108999968,1,0,1200,263,1,1199,answer,11137,2019-10-22_21h05.46.359,SurveyExpMetaMem,3.2.3,Win32,60
,,,,,,,,,,,,,,,,,,,,7,3.174000263,5,0.263000011,1,0,1200,1099,1,1199,fire,11137,2019-10-22_21h05.46.359,SurveyExpMetaMem,3.2.3,Win32,60
,,,,,,,,,,,,,,,,,,,,5,1.027000189,5,0.123000145,1,0,1200,166,1,1199,unite,11137,2019-10-22_21h05.46.359,SurveyExpMetaMem,3.2.3,Win32,60
,,,,,,,,,,,,,,,,,,,,5,0.980000257,5,0.142000198,1,0,1200,749,1,1199,glasses,11137,2019-10-22_21h05.46.359,SurveyExpMetaMem,3.2.3,Win32,60
,,,,,,,,,,,,,,,,,,,,5,0.924999952,5,0.129000187,1,0,1200,745,1,1199,inform,11137,2019-10-22_21h05.46.359,SurveyExpMetaMem,3.2.3,Win32,60
,,,,,,,,,,,,,,,,,,,,6,1.663000107,6,0.117000103,1,0,1200,92,1,1199,justice,11137,2019-10-22_21h05.46.359,SurveyExpMetaMem,3.2.3,Win32,60
,,,,,,,,,,,,,,,,,,,,5,1.149000168,5,0.133000135,1,0,1200,259,1,1199,thin,11137,2019-10-22_21h05.46.359,SurveyExpMetaMem,3.2.3,Win32,60
,,,,,,,,,,,,,,,,,,,,6,1.531000137,4,0.336000204,1,0,1200,1161,1,1199,shock,11137,2019-10-22_21h05.46.359,SurveyExpMetaMem,3.2.3,Win32,60
,,,,,,,,,,,,,,,,,,,,5,1.137000084,5,0.101000071,1,0,1200,755,1,1199,soap,11137,2019-10-22_21h05.46.359,SurveyExpMetaMem,3.2.3,Win32,60
,,,,,,,,,,,,,,,,,,,,6,1.737999916,6,0.117000103,1,0,1200,48,1,1199,excellence,11137,2019-10-22_21h05.46.359,SurveyExpMetaMem,3.2.3,Win32,60
,,,,,,,,,,,,,,,,,,,,3,2.536000252,6,2.046000242,1,0,1200,890,1,1199,carefree,11137,2019-10-22_21h05.46.359,SurveyExpMetaMem,3.2.3,Win32,60
,,,,,,,,,,,,,,,,,,,,5,1.150000095,5,0.108999968,1,0,1200,595,1,1199,vacuum,11137,2019-10-22_21h05.46.359,SurveyExpMetaMem,3.2.3,Win32,60
,,,,,,,,,,,,,,,,,,,,5,2.644000053,5,0.124000072,1,0,1200,113,1,1199,bridesmaid,11137,2019-10-22_21h05.46.359,SurveyExpMetaMem,3.2.3,Win32,60
,,,,,,,,,,,,,,,,,,,,5,0.638999939,5,0.131999969,1,0,1200,73,1,1199,rhythm,11137,2019-10-22_21h05.46.359,SurveyExpMetaMem,3.2.3,Win32,60
,,,,,,,,,,,,,,,,,,,,5,0.664000273,5,0.14800024,1,0,1200,387,1,1199,tax,11137,2019-10-22_21h05.46.359,SurveyExpMetaMem,3.2.3,Win32,60
,,,,,,,,,,,,,,,,,,,,5,0.827000141,5,0.133000135,1,0,1200,913,1,1199,ulcer,11137,2019-10-22_21h05.46.359,SurveyExpMetaMem,3.2.3,Win32,60
,,,,,,,,,,,,,,,,,,,,8,1.85800004,6,2.985000134,1,0,1200,244,1,1199,sexy,11137,2019-10-22_21h05.46.359,SurveyExpMetaMem,3.2.3,Win32,60
,,,,,,,,,,,,,,,,,,,,4,2.141000032,4,0.099000216,1,0,1200,530,1,1199,erase,11137,2019-10-22_21h05.46.359,SurveyExpMetaMem,3.2.3,Win32,60
,,,,,,,,,,,,,,,,,,,,5,2.810000181,5,0.111999989,1,0,1200,1135,1,1199,thirsty,11137,2019-10-22_21h05.46.359,SurveyExpMetaMem,3.2.3,Win32,60
,,,,,,,,,,,,,,,,,,,,5,1.032000303,5,0.139000177,1,0,1200,1136,1,1199,appall,11137,2019-10-22_21h05.46.359,SurveyExpMetaMem,3.2.3,Win32,60
,,,,,,,,,,,,,,,,,,,,4,2.483000278,6,0.674000025,1,0,1200,55,1,1199,rare,11137,2019-10-22_21h05.46.359,SurveyExpMetaMem,3.2.3,Win32,60
,,,,,,,,,,,,,,,,,,,,5,1.378000021,5,0.129000187,1,0,1200,527,1,1199,passive,11137,2019-10-22_21h05.46.359,SurveyExpMetaMem,3.2.3,Win32,60
,,,,,,,,,,,,,,,,,,,,5,1.109000206,5,0.129000187,1,0,1200,577,1,1199,retreat,11137,2019-10-22_21h05.46.359,SurveyExpMetaMem,3.2.3,Win32,60
,,,,,,,,,,,,,,,,,,,,7,2.148000002,4,0.33100009,1,0,1200,1125,1,1199,outrage,11137,2019-10-22_21h05.46.359,SurveyExpMetaMem,3.2.3,Win32,60
,,,,,,,,,,,,,,,,,,,,6,1.929000139,4,0.240000248,1,0,1200,486,1,1199,fool,11137,2019-10-22_21h05.46.359,SurveyExpMetaMem,3.2.3,Win32,60
,,,,,,,,,,,,,,,,,,,,5,1.096000195,5,0.129000187,1,0,1200,667,1,1199,dew,11137,2019-10-22_21h05.46.359,SurveyExpMetaMem,3.2.3,Win32,60
,,,,,,,,,,,,,,,,,,,,5,2.009000063,5,0.122000217,1,0,1200,1168,1,1199,financial,11137,2019-10-22_21h05.46.359,SurveyExpMetaMem,3.2.3,Win32,60
,,,,,,,,,,,,,,,,,,,,5,0.779000282,5,0.158000231,1,0,1200,689,1,1199,land,11137,2019-10-22_21h05.46.359,SurveyExpMetaMem,3.2.3,Win32,60
,,,,,,,,,,,,,,,,,,,,7,1.549000025,7,0.126000166,1,0,1200,80,1,1199,wonderful,11137,2019-10-22_21h05.46.359,SurveyExpMetaMem,3.2.3,Win32,60
,,,,,,,,,,,,,,,,,,,,5,1.709000111,5,0.111000061,1,0,1200,1182,1,1199,pierce,11137,2019-10-22_21h05.46.359,SurveyExpMetaMem,3.2.3,Win32,60
,,,,,,,,,,,,,,,,,,,,5,1.084000111,5,0.125000238,1,0,1200,454,1,1199,damp,11137,2019-10-22_21h05.46.359,SurveyExpMetaMem,3.2.3,Win32,60
,,,,,,,,,,,,,,,,,,,,4,2.588000298,6,0.227000237,1,0,1200,870,1,1199,safe,11137,2019-10-22_21h05.46.359,SurveyExpMetaMem,3.2.3,Win32,60
,,,,,,,,,,,,,,,,,,,,6,1.93900013,4,0.217999935,1,0,1200,973,1,1199,anger,11137,2019-10-22_21h05.46.359,SurveyExpMetaMem,3.2.3,Win32,60
,,,,,,,,,,,,,,,,,,,,6,4.452000141,6,0.10800004,1,0,1200,277,1,1199,cupcake,11137,2019-10-22_21h05.46.359,SurveyExpMetaMem,3.2.3,Win32,60
,,,,,,,,,,,,,,,,,,,,2,2.229000092,6,1.835000038,1,0,1200,867,1,1199,relaxed,11137,2019-10-22_21h05.46.359,SurveyExpMetaMem,3.2.3,Win32,60
,,,,,,,,,,,,,,,,,,,,2,1.299999952,6,0.610000134,1,0,1200,896,1,1199,cuddle,11137,2019-10-22_21h05.46.359,SurveyExpMetaMem,3.2.3,Win32,60
,,,,,,,,,,,,,,,,,,,,6,2.624000072,6,0.565999985,1,0,1200,111,1,1199,band,11137,2019-10-22_21h05.46.359,SurveyExpMetaMem,3.2.3,Win32,60
,,,,,,,,,,,,,,,,,,,,6,3.190000057,4,0.242000103,1,0,1200,582,1,1199,cling,11137,2019-10-22_21h05.46.359,SurveyExpMetaMem,3.2.3,Win32,60
,,,,,,,,,,,,,,,,,,,,5,1.474000216,5,0.120000124,1,0,1200,331,1,1199,casket,11137,2019-10-22_21h05.46.359,SurveyExpMetaMem,3.2.3,Win32,60
,,,,,,,,,,,,,,,,,,,,5,1.486000061,5,0.104000092,1,0,1200,448,1,1199,depart,11137,2019-10-22_21h05.46.359,SurveyExpMetaMem,3.2.3,Win32,60
,,,,,,,,,,,,,,,,,,,,6,1.712000132,3,0.678000212,1,0,1200,1131,1,1199,envious,11137,2019-10-22_21h05.46.359,SurveyExpMetaMem,3.2.3,Win32,60
,,,,,,,,,,,,,,,,,,,,5,1.301000118,5,0.103000164,1,0,1200,869,1,1199,assure,11137,2019-10-22_21h05.46.359,SurveyExpMetaMem,3.2.3,Win32,60
,,,,,,,,,,,,,,,,,,,,5,1.685000181,5,0.106000185,1,0,1200,51,1,1199,body,11137,2019-10-22_21h05.46.359,SurveyExpMetaMem,3.2.3,Win32,60
,,,,,,,,,,,,,,,,,,,,7,2.130000114,5,1.042000055,1,0,1200,1184,1,1199,reckless,11137,2019-10-22_21h05.46.359,SurveyExpMetaMem,3.2.3,Win32,60
,,,,,,,,,,,,,,,,,,,,5,1.776000023,5,0.105000019,1,0,1200,768,1,1199,trait,11137,2019-10-22_21h05.46.359,SurveyExpMetaMem,3.2.3,Win32,60
,,,,,,,,,,,,,,,,,,,,8,2.134000301,6,1.978000164,1,0,1200,144,1,1199,aroused,11137,2019-10-22_21h05.46.359,SurveyExpMetaMem,3.2.3,Win32,60
,,,,,,,,,,,,,,,,,,,,5,2.724000216,3,0.362000227,1,0,1200,1112,1,1199,pressure,11137,2019-10-22_21h05.46.359,SurveyExpMetaMem,3.2.3,Win32,60
,,,,,,,,,,,,,,,,,,,,8,1.615000248,6,1.215000153,1,0,1200,289,1,1199,concert,11137,2019-10-22_21h05.46.359,SurveyExpMetaMem,3.2.3,Win32,60
,,,,,,,,,,,,,,,,,,,,5,2.236000061,5,0.106000185,1,0,1200,224,1,1199,strengthen,11137,2019-10-22_21h05.46.359,SurveyExpMetaMem,3.2.3,Win32,60
,,,,,,,,,,,,,,,,,,,,5,2.492000103,5,0.114000082,1,0,1200,1032,1,1199,exam,11137,2019-10-22_21h05.46.359,SurveyExpMetaMem,3.2.3,Win32,60
,,,,,,,,,,,,,,,,,,,,5,1.418000221,5,0.127000093,1,0,1200,649,1,1199,donkey,11137,2019-10-22_21h05.46.359,SurveyExpMetaMem,3.2.3,Win32,60
,,,,,,,,,,,,,,,,,,,,6,1.611000299,4,0.225000143,1,0,1200,949,1,1199,thief,11137,2019-10-22_21h05.46.359,SurveyExpMetaMem,3.2.3,Win32,60
,,,,,,,,,,,,,,,,,,,,5,1.744000196,5,0.11500001,1,0,1200,209,1,1199,husband,11137,2019-10-22_21h05.46.359,SurveyExpMetaMem,3.2.3,Win32,60
,,,,,,,,,,,,,,,,,,,,7,2.284000158,4,0.406000137,1,0,1200,1166,1,1199,compulsive,11137,2019-10-22_21h05.46.359,SurveyExpMetaMem,3.2.3,Win32,60
,,,,,,,,,,,,,,,,,,,,5,1.874000072,2,0.407000065,1,0,1200,341,1,1199,stinky,11137,2019-10-22_21h05.46.359,SurveyExpMetaMem,3.2.3,Win32,60
,,,,,,,,,,,,,,,,,,,,4,92.33000016,7,0.258000135,1,0,1200,877,1,1199,bless,11137,2019-10-22_21h05.46.359,SurveyExpMetaMem,3.2.3,Win32,60
,,,,,,,,,,,,,,,,,,,,5,1.990000248,5,0.111000061,1,0,1200,813,1,1199,walking,11137,2019-10-22_21h05.46.359,SurveyExpMetaMem,3.2.3,Win32,60
,,,,,,,,,,,,,,,,,,,,7,1.710000038,5,0.161000013,1,0,1200,1141,1,1199,shark,11137,2019-10-22_21h05.46.359,SurveyExpMetaMem,3.2.3,Win32,60
,,,,,,,,,,,,,,,,,,,,5,1.167000294,5,0.105000257,1,0,1200,536,1,1199,vacant,11137,2019-10-22_21h05.46.359,SurveyExpMetaMem,3.2.3,Win32,60
,,,,,,,,,,,,,,,,,,,,5,1.310000181,5,0.097000122,1,0,1200,374,1,1199,sluggish,11137,2019-10-22_21h05.46.359,SurveyExpMetaMem,3.2.3,Win32,60
,,,,,,,,,,,,,,,,,,,,5,0.874000072,5,0.102000237,1,0,1200,627,1,1199,introductory,11137,2019-10-22_21h05.46.359,SurveyExpMetaMem,3.2.3,Win32,60
,,,,,,,,,,,,,,,,,,,,5,1.292999983,5,0.301000118,1,0,1200,467,1,1199,FALSE,11137,2019-10-22_21h05.46.359,SurveyExpMetaMem,3.2.3,Win32,60
,,,,,,,,,,,,,,,,,,,,6,1.315999985,6,0.10800004,1,0,1200,47,1,1199,enjoy,11137,2019-10-22_21h05.46.359,SurveyExpMetaMem,3.2.3,Win32,60
,,,,,,,,,,,,,,,,,,,,5,0.794000149,5,0.377000332,1,0,1200,1050,1,1199,scorn,11137,2019-10-22_21h05.46.359,SurveyExpMetaMem,3.2.3,Win32,60
,,,,,,,,,,,,,,,,,,,,5,1.036000252,5,0.143000126,1,0,1200,665,1,1199,read,11137,2019-10-22_21h05.46.359,SurveyExpMetaMem,3.2.3,Win32,60
,,,,,,,,,,,,,,,,,,,,5,0.650000095,5,0.137000084,1,0,1200,879,1,1199,bird,11137,2019-10-22_21h05.46.359,SurveyExpMetaMem,3.2.3,Win32,60
,,,,,,,,,,,,,,,,,,,,8,1.534000158,6,0.84800005,1,0,1200,1007,1,1199,tornado,11137,2019-10-22_21h05.46.359,SurveyExpMetaMem,3.2.3,Win32,60
,,,,,,,,,,,,,,,,,,,,7,3.025000095,5,1.344000101,1,0,1200,738,1,1199,horse,11137,2019-10-22_21h05.46.359,SurveyExpMetaMem,3.2.3,Win32,60
,,,,,,,,,,,,,,,,,,,,5,1.34100008,5,0.09800005,1,0,1200,660,1,1199,rock,11137,2019-10-22_21h05.46.359,SurveyExpMetaMem,3.2.3,Win32,60
,,,,,,,,,,,,,,,,,,,,5,0.739000082,5,0.108999968,1,0,1200,1074,1,1199,detain,11137,2019-10-22_21h05.46.359,SurveyExpMetaMem,3.2.3,Win32,60
,,,,,,,,,,,,,,,,,,,,8,2.300000191,3,1.159000158,1,0,1200,1174,1,1199,beast,11137,2019-10-22_21h05.46.359,SurveyExpMetaMem,3.2.3,Win32,60
,,,,,,,,,,,,,,,,,,,,5,2.378000021,5,0.107000113,1,0,1200,748,1,1199,town,11137,2019-10-22_21h05.46.359,SurveyExpMetaMem,3.2.3,Win32,60
,,,,,,,,,,,,,,,,,,,,7,2.006999969,6,1.876000166,1,0,1200,72,1,1199,attract,11137,2019-10-22_21h05.46.359,SurveyExpMetaMem,3.2.3,Win32,60
,,,,,,,,,,,,,,,,,,,,5,1.035000086,5,0.105999947,1,0,1200,1103,1,1199,mob,11137,2019-10-22_21h05.46.359,SurveyExpMetaMem,3.2.3,Win32,60
,,,,,,,,,,,,,,,,,,,,5,0.891000271,5,0.119000196,1,0,1200,503,1,1199,sludge,11137,2019-10-22_21h05.46.359,SurveyExpMetaMem,3.2.3,Win32,60
,,,,,,,,,,,,,,,,,,,,5,0.726999998,5,0.150000334,1,0,1200,535,1,1199,ramble,11137,2019-10-22_21h05.46.359,SurveyExpMetaMem,3.2.3,Win32,60
,,,,,,,,,,,,,,,,,,,,6,2.076000214,9,0.382000208,1,0,1200,196,1,1199,smile,11137,2019-10-22_21h05.46.359,SurveyExpMetaMem,3.2.3,Win32,60
,,,,,,,,,,,,,,,,,,,,7,3.195000172,2,1.246000051,1,0,1200,583,1,1199,obey,11137,2019-10-22_21h05.46.359,SurveyExpMetaMem,3.2.3,Win32,60
,,,,,,,,,,,,,,,,,,,,6,2.830000162,6,0.236999989,1,0,1200,180,1,1199,embrace,11137,2019-10-22_21h05.46.359,SurveyExpMetaMem,3.2.3,Win32,60
,,,,,,,,,,,,,,,,,,,,5,1.501000166,5,0.104000092,1,0,1200,858,1,1199,donate,11137,2019-10-22_21h05.46.359,SurveyExpMetaMem,3.2.3,Win32,60
,,,,,,,,,,,,,,,,,,,,5,1.024000168,5,0.148000002,1,0,1200,1146,1,1199,bug,11137,2019-10-22_21h05.46.359,SurveyExpMetaMem,3.2.3,Win32,60
,,,,,,,,,,,,,,,,,,,,7,2.860000134,7,0.563000202,1,0,1200,32,1,1199,festival,11137,2019-10-22_21h05.46.359,SurveyExpMetaMem,3.2.3,Win32,60
,,,,,,,,,,,,,,,,,,,,8,1.685000181,2,0.795000315,1,0,1200,1042,1,1199,brutal,11137,2019-10-22_21h05.46.359,SurveyExpMetaMem,3.2.3,Win32,60
,,,,,,,,,,,,,,,,,,,,5,7.072000265,5,0.095000029,1,0,1200,519,1,1199,listless,11137,2019-10-22_21h05.46.359,SurveyExpMetaMem,3.2.3,Win32,60
,,,,,,,,,,,,,,,,,,,,5,40.9940002,5,0.092000008,1,0,1200,1020,1,1199,malice,11137,2019-10-22_21h05.46.359,SurveyExpMetaMem,3.2.3,Win32,60
,,,,,,,,,,,,,,,,,,,,6,1.990000248,6,0.112000227,1,0,1200,254,1,1199,crush,11137,2019-10-22_21h05.46.359,SurveyExpMetaMem,3.2.3,Win32,60
,,,,,,,,,,,,,,,,,,,,4,2.555000067,6,1.395000219,1,0,1200,718,1,1199,flow,11137,2019-10-22_21h05.46.359,SurveyExpMetaMem,3.2.3,Win32,60
,,,,,,,,,,,,,,,,,,,,7,3.705000162,4,0.515000105,1,0,1200,1046,1,1199,unsafe,11137,2019-10-22_21h05.46.359,SurveyExpMetaMem,3.2.3,Win32,60
,,,,,,,,,,,,,,,,,,,,6,1.539000034,4,0.293000221,1,0,1200,340,1,1199,coward,11137,2019-10-22_21h05.46.359,SurveyExpMetaMem,3.2.3,Win32,60
,,,,,,,,,,,,,,,,,,,,7,2.923000097,6,0.709000111,1,0,1200,297,1,1199,pleasure,11137,2019-10-22_21h05.46.359,SurveyExpMetaMem,3.2.3,Win32,60
,,,,,,,,,,,,,,,,,,,,7,1.686000109,3,0.664000034,1,0,1200,1037,1,1199,scared,11137,2019-10-22_21h05.46.359,SurveyExpMetaMem,3.2.3,Win32,60
,,,,,,,,,,,,,,,,,,,,5,1.490999937,5,0.118999958,1,0,1200,850,1,1199,lake,11137,2019-10-22_21h05.46.359,SurveyExpMetaMem,3.2.3,Win32,60
,,,,,,,,,,,,,,,,,,,,8,1.959000111,5,0.717000008,1,0,1200,19,1,1199,firefighter,11137,2019-10-22_21h05.46.359,SurveyExpMetaMem,3.2.3,Win32,60
,,,,,,,,,,,,,,,,,,,,5,1.956000328,5,0.113000154,1,0,1200,772,1,1199,ornament,11137,2019-10-22_21h05.46.359,SurveyExpMetaMem,3.2.3,Win32,60
,,,,,,,,,,,,,,,,,,,,5,6.975000143,5,0.100000143,1,0,1200,1006,1,1199,rash,11137,2019-10-22_21h05.46.359,SurveyExpMetaMem,3.2.3,Win32,60
,,,,,,,,,,,,,,,,,,,,6,2.490000248,4,0.229000092,1,0,1200,1106,1,1199,pushy,11137,2019-10-22_21h05.46.359,SurveyExpMetaMem,3.2.3,Win32,60
,,,,,,,,,,,,,,,,,,,,7,2.976000071,7,0.095999956,1,0,1200,68,1,1199,perfect,11137,2019-10-22_21h05.46.359,SurveyExpMetaMem,3.2.3,Win32,60
,,,,,,,,,,,,,,,,,,,,5,1.541000128,5,0.110000134,1,0,1200,525,1,1199,stagnant,11137,2019-10-22_21h05.46.359,SurveyExpMetaMem,3.2.3,Win32,60
,,,,,,,,,,,,,,,,,,,,5,1.293000221,5,0.120000124,1,0,1200,1045,1,1199,scalding,11137,2019-10-22_21h05.46.359,SurveyExpMetaMem,3.2.3,Win32,60
,,,,,,,,,,,,,,,,,,,,5,2.042999983,5,0.109999895,1,0,1200,437,1,1199,blubber,11137,2019-10-22_21h05.46.359,SurveyExpMetaMem,3.2.3,Win32,60
,,,,,,,,,,,,,,,,,,,,7,1.995000124,5,0.930999994,1,0,1200,207,1,1199,erect,11137,2019-10-22_21h05.46.359,SurveyExpMetaMem,3.2.3,Win32,60
,,,,,,,,,,,,,,,,,,,,5,1.789000273,5,0.11500001,1,0,1200,84,1,1199,eat,11137,2019-10-22_21h05.46.359,SurveyExpMetaMem,3.2.3,Win32,60
,,,,,,,,,,,,,,,,,,,,8,1.660000086,1,0.712000132,1,0,1200,944,1,1199,kill,11137,2019-10-22_21h05.46.359,SurveyExpMetaMem,3.2.3,Win32,60
,,,,,,,,,,,,,,,,,,,,6,2.102000237,5,0.083000183,1,0,1200,558,1,1199,punk,11137,2019-10-22_21h05.46.359,SurveyExpMetaMem,3.2.3,Win32,60
,,,,,,,,,,,,,,,,,,,,7,1.633000135,2,0.561000109,1,0,1200,955,1,1199,drown,11137,2019-10-22_21h05.46.359,SurveyExpMetaMem,3.2.3,Win32,60
,,,,,,,,,,,,,,,,,,,,5,1.612000227,5,0.124000311,1,0,1200,645,1,1199,telescope,11137,2019-10-22_21h05.46.359,SurveyExpMetaMem,3.2.3,Win32,60
,,,,,,,,,,,,,,,,,,,,6,2.017000198,4,0.092000008,1,0,1200,1001,1,1199,rude,11137,2019-10-22_21h05.46.359,SurveyExpMetaMem,3.2.3,Win32,60
,,,,,,,,,,,,,,,,,,,,8,2.312000275,2,0.579000235,1,0,1200,915,1,1199,abuse,11137,2019-10-22_21h05.46.359,SurveyExpMetaMem,3.2.3,Win32,60
,,,,,,,,,,,,,,,,,,,,7,12.75500011,2,0.61400032,1,0,1200,1123,1,1199,haunt,11137,2019-10-22_21h05.46.359,SurveyExpMetaMem,3.2.3,Win32,60
,,,,,,,,,,,,,,,,,,,,6,126.3330002,6,0.255000114,1,0,1200,298,1,1199,success,11137,2019-10-22_21h05.46.359,SurveyExpMetaMem,3.2.3,Win32,60
,,,,,,,,,,,,,,,,,,,,6,1.628000021,4,0.088999987,1,0,1200,1026,1,1199,crisis,11137,2019-10-22_21h05.46.359,SurveyExpMetaMem,3.2.3,Win32,60
,,,,,,,,,,,,,,,,,,,,5,0.914000034,5,0.144999981,1,0,1200,808,1,1199,violinist,11137,2019-10-22_21h05.46.359,SurveyExpMetaMem,3.2.3,Win32,60
,,,,,,,,,,,,,,,,,,,,4,2.090000153,4,0.134000063,1,0,1200,352,1,1199,negligent,11137,2019-10-22_21h05.46.359,SurveyExpMetaMem,3.2.3,Win32,60
,,,,,,,,,,,,,,,,,,,,5,1.163000107,5,0.13100028,1,0,1200,788,1,1199,cook,11137,2019-10-22_21h05.46.359,SurveyExpMetaMem,3.2.3,Win32,60
,,,,,,,,,,,,,,,,,,,,6,2.611000061,6,0.118000031,1,0,1200,238,1,1199,sunshine,11137,2019-10-22_21h05.46.359,SurveyExpMetaMem,3.2.3,Win32,60
,,,,,,,,,,,,,,,,,,,,5,1.309000254,5,0.112000227,1,0,1200,695,1,1199,teacher,11137,2019-10-22_21h05.46.359,SurveyExpMetaMem,3.2.3,Win32,60
,,,,,,,,,,,,,,,,,,,,5,14.65799999,5,0.112000227,1,0,1200,845,1,1199,honey,11137,2019-10-22_21h05.46.359,SurveyExpMetaMem,3.2.3,Win32,60
,,,,,,,,,,,,,,,,,,,,5,0.908000231,5,0.124000072,1,0,1200,1153,1,1199,mangle,11137,2019-10-22_21h05.46.359,SurveyExpMetaMem,3.2.3,Win32,60
,,,,,,,,,,,,,,,,,,,,5,43.49600005,5,0.115000248,1,0,1200,722,1,1199,consoled,11137,2019-10-22_21h05.46.359,SurveyExpMetaMem,3.2.3,Win32,60
,,,,,,,,,,,,,,,,,,,,5,1.002000093,5,0.112000227,1,0,1200,511,1,1199,slouch,11137,2019-10-22_21h05.46.359,SurveyExpMetaMem,3.2.3,Win32,60
,,,,,,,,,,,,,,,,,,,,4,2.260000229,6,0.142000198,1,0,1200,882,1,1199,gentle,11137,2019-10-22_21h05.46.359,SurveyExpMetaMem,3.2.3,Win32,60
,,,,,,,,,,,,,,,,,,,,6,106.457,6,0.093000174,1,0,1200,800,1,1199,authentic,11137,2019-10-22_21h05.46.359,SurveyExpMetaMem,3.2.3,Win32,60
,,,,,,,,,,,,,,,,,,,,5,5.565999985,2,0.560000181,1,0,1200,342,1,1199,alienation,11137,2019-10-22_21h05.46.359,SurveyExpMetaMem,3.2.3,Win32,60
,,,,,,,,,,,,,,,,,,,,7,1.624000072,7,28.20900011,1,0,1200,1014,1,1199,destroy,11137,2019-10-22_21h05.46.359,SurveyExpMetaMem,3.2.3,Win32,60
,,,,,,,,,,,,,,,,,,,,5,64.11000013,5,0.606000185,1,0,1200,418,1,1199,cheapskate,11137,2019-10-22_21h05.46.359,SurveyExpMetaMem,3.2.3,Win32,60
,,,,,,,,,,,,,,,,,,,,5,1.442000151,5,0.154999971,1,0,1200,653,1,1199,detail,11137,2019-10-22_21h05.46.359,SurveyExpMetaMem,3.2.3,Win32,60
,,,,,,,,,,,,,,,,,,,,6,49.88700008,4,0.105000019,1,0,1200,1080,1,1199,broken,11137,2019-10-22_21h05.46.359,SurveyExpMetaMem,3.2.3,Win32,60
,,,,,,,,,,,,,,,,,,,,5,1.063000202,5,0.123000145,1,0,1200,740,1,1199,groceries,11137,2019-10-22_21h05.46.359,SurveyExpMetaMem,3.2.3,Win32,60
,,,,,,,,,,,,,,,,,,,,5,38.16200018,2,29.87900019,1,0,1200,384,1,1199,idiot,11137,2019-10-22_21h05.46.359,SurveyExpMetaMem,3.2.3,Win32,60
,,,,,,,,,,,,,,,,,,,,5,16.70099998,5,0.159000158,1,0,1200,174,1,1199,snow,11137,2019-10-22_21h05.46.359,SurveyExpMetaMem,3.2.3,Win32,60
,,,,,,,,,,,,,,,,,,,,5,44.54100013,5,0.226000309,1,0,1200,688,1,1199,jelly,11137,2019-10-22_21h05.46.359,SurveyExpMetaMem,3.2.3,Win32,60
,,,,,,,,,,,,,,,,,,,,5,27.90100002,3,2.325000048,1,0,1200,966,1,1199,regretful,11137,2019-10-22_21h05.46.359,SurveyExpMetaMem,3.2.3,Win32,60
,,,,,,,,,,,,,,,,,,,,5,83.15600014,5,0.128000021,1,0,1200,517,1,1199,habit,11137,2019-10-22_21h05.46.359,SurveyExpMetaMem,3.2.3,Win32,60
,,,,,,,,,,,,,,,,,,,,5,71.08500028,5,0.133000135,1,0,1200,647,1,1199,accord,11137,2019-10-22_21h05.46.359,SurveyExpMetaMem,3.2.3,Win32,60
,,,,,,,,,,,,,,,,,,,,5,7.315999985,5,0.125000238,1,0,1200,260,1,1199,control,11137,2019-10-22_21h05.46.359,SurveyExpMetaMem,3.2.3,Win32,60
,,,,,,,,,,,,,,,,,,,,4,4.190999985,6,0.544000149,1,0,1200,711,1,1199,sympathetic,11137,2019-10-22_21h05.46.359,SurveyExpMetaMem,3.2.3,Win32,60
,,,,,,,,,,,,,,,,,,,,3,62.56800008,6,1.963000059,1,0,1200,229,1,1199,heaven,11137,2019-10-22_21h05.46.359,SurveyExpMetaMem,3.2.3,Win32,60
,,,,,,,,,,,,,,,,,,,,6,9.220999956,4,0.227000237,1,0,1200,924,1,1199,terrible,11137,2019-10-22_21h05.46.359,SurveyExpMetaMem,3.2.3,Win32,60
,,,,,,,,,,,,,,,,,,,,6,1.907000065,6,0.110000134,1,0,1200,192,1,1199,pleased,11137,2019-10-22_21h05.46.359,SurveyExpMetaMem,3.2.3,Win32,60
,,,,,,,,,,,,,,,,,,,,6,2.376000166,4,0.38100028,1,0,1200,429,1,1199,cough,11137,2019-10-22_21h05.46.359,SurveyExpMetaMem,3.2.3,Win32,60
,,,,,,,,,,,,,,,,,,,,5,1.496000051,5,0.127000093,1,0,1200,205,1,1199,outspoken,11137,2019-10-22_21h05.46.359,SurveyExpMetaMem,3.2.3,Win32,60
,,,,,,,,,,,,,,,,,,,,5,3.019000053,5,0.142000198,1,0,1200,443,1,1199,incorrect,11137,2019-10-22_21h05.46.359,SurveyExpMetaMem,3.2.3,Win32,60
,,,,,,,,,,,,,,,,,,,,5,0.861999989,5,0.174000025,1,0,1200,701,1,1199,telephone,11137,2019-10-22_21h05.46.359,SurveyExpMetaMem,3.2.3,Win32,60
,,,,,,,,,,,,,,,,,,,,4,1.676000118,4,0.143000126,1,0,1200,359,1,1199,bored,11137,2019-10-22_21h05.46.359,SurveyExpMetaMem,3.2.3,Win32,60
,,,,,,,,,,,,,,,,,,,,5,0.979000092,5,0.159000158,1,0,1200,279,1,1199,bargain,11137,2019-10-22_21h05.46.359,SurveyExpMetaMem,3.2.3,Win32,60
,,,,,,,,,,,,,,,,,,,,6,1.508000135,6,0.164000273,1,0,1200,79,1,1199,dazzle,11137,2019-10-22_21h05.46.359,SurveyExpMetaMem,3.2.3,Win32,60
,,,,,,,,,,,,,,,,,,,,6,2.56400013,4,0.207999945,1,0,1200,328,1,1199,disgrace,11137,2019-10-22_21h05.46.359,SurveyExpMetaMem,3.2.3,Win32,60
,,,,,,,,,,,,,,,,,,,,5,0.850000143,5,0.161999941,1,0,1200,822,1,1199,clearer,11137,2019-10-22_21h05.46.359,SurveyExpMetaMem,3.2.3,Win32,60
,,,,,,,,,,,,,,,,,,,,4,3.35800004,6,0.148000002,1,0,1200,202,1,1199,mercy,11137,2019-10-22_21h05.46.359,SurveyExpMetaMem,3.2.3,Win32,60
,,,,,,,,,,,,,,,,,,,,5,0.810000181,5,0.174000263,1,0,1200,725,1,1199,checkerboard,11137,2019-10-22_21h05.46.359,SurveyExpMetaMem,3.2.3,Win32,60
,,,,,,,,,,,,,,,,,,,,6,1.120000124,4,0.166000128,1,0,1200,1113,1,1199,dagger,11137,2019-10-22_21h05.46.359,SurveyExpMetaMem,3.2.3,Win32,60
,,,,,,,,,,,,,,,,,,,,5,0.916000128,5,0.348999977,1,0,1200,543,1,1199,gloat,11137,2019-10-22_21h05.46.359,SurveyExpMetaMem,3.2.3,Win32,60
,,,,,,,,,,,,,,,,,,,,5,1.106000185,5,0.164000034,1,0,1200,235,1,1199,cheery,11137,2019-10-22_21h05.46.359,SurveyExpMetaMem,3.2.3,Win32,60
,,,,,,,,,,,,,,,,,,,,5,1.770000219,5,0.140000343,1,0,1200,655,1,1199,name,11137,2019-10-22_21h05.46.359,SurveyExpMetaMem,3.2.3,Win32,60
,,,,,,,,,,,,,,,,,,,,5,0.593000174,5,0.15500021,1,0,1200,608,1,1199,carrot,11137,2019-10-22_21h05.46.359,SurveyExpMetaMem,3.2.3,Win32,60
,,,,,,,,,,,,,,,,,,,,5,0.812999964,5,0.097000122,1,0,1200,746,1,1199,proper,11137,2019-10-22_21h05.46.359,SurveyExpMetaMem,3.2.3,Win32,60
,,,,,,,,,,,,,,,,,,,,7,1.623000145,9,0.68200016,1,0,1200,95,1,1199,giggle,11137,2019-10-22_21h05.46.359,SurveyExpMetaMem,3.2.3,Win32,60
,,,,,,,,,,,,,,,,,,,,5,1.745000124,5,0.130000114,1,0,1200,663,1,1199,trout,11137,2019-10-22_21h05.46.359,SurveyExpMetaMem,3.2.3,Win32,60
,,,,,,,,,,,,,,,,,,,,7,2.561000109,4,1.756999969,1,0,1200,1132,1,1199,anarchy,11137,2019-10-22_21h05.46.359,SurveyExpMetaMem,3.2.3,Win32,60
,,,,,,,,,,,,,,,,,,,,5,3.476999998,5,0.108999968,1,0,1200,492,1,1199,naive,11137,2019-10-22_21h05.46.359,SurveyExpMetaMem,3.2.3,Win32,60
,,,,,,,,,,,,,,,,,,,,4,9.509000063,6,0.209000111,1,0,1200,186,1,1199,holiday,11137,2019-10-22_21h05.46.359,SurveyExpMetaMem,3.2.3,Win32,60
,,,,,,,,,,,,,,,,,,,,7,2.332000017,7,0.601000309,1,0,1200,170,1,1199,entertainment,11137,2019-10-22_21h05.46.359,SurveyExpMetaMem,3.2.3,Win32,60
,,,,,,,,,,,,,,,,,,,,8,1.597000122,4,1.00600028,1,0,1200,255,1,1199,ass,11137,2019-10-22_21h05.46.359,SurveyExpMetaMem,3.2.3,Win32,60
,,,,,,,,,,,,,,,,,,,,3,3.840000153,6,1.031000137,1,0,1200,631,1,1199,delicate,11137,2019-10-22_21h05.46.359,SurveyExpMetaMem,3.2.3,Win32,60
,,,,,,,,,,,,,,,,,,,,4,2.157000303,7,0.495000124,1,0,1200,848,1,1199,graceful,11137,2019-10-22_21h05.46.359,SurveyExpMetaMem,3.2.3,Win32,60
,,,,,,,,,,,,,,,,,,,,6,3.262000322,4,0.234000206,1,0,1200,995,1,1199,cult,11137,2019-10-22_21h05.46.359,SurveyExpMetaMem,3.2.3,Win32,60
,,,,,,,,,,,,,,,,,,,,6,1.745000124,5,0.243000269,1,0,1200,522,1,1199,cleft,11137,2019-10-22_21h05.46.359,SurveyExpMetaMem,3.2.3,Win32,60
,,,,,,,,,,,,,,,,,,,,5,1.430000067,5,0.402000189,1,0,1200,735,1,1199,tea,11137,2019-10-22_21h05.46.359,SurveyExpMetaMem,3.2.3,Win32,60
,,,,,,,,,,,,,,,,,,,,5,0.875000238,5,0.133000135,1,0,1200,638,1,1199,quench,11137,2019-10-22_21h05.46.359,SurveyExpMetaMem,3.2.3,Win32,60
,,,,,,,,,,,,,,,,,,,,7,8.042000055,3,0.691000223,1,0,1200,346,1,1199,alcoholism,11137,2019-10-22_21h05.46.359,SurveyExpMetaMem,3.2.3,Win32,60
,,,,,,,,,,,,,,,,,,,,5,1.125999928,5,0.126000166,1,0,1200,1195,1,1199,speech,11137,2019-10-22_21h05.46.359,SurveyExpMetaMem,3.2.3,Win32,60
,,,,,,,,,,,,,,,,,,,,5,0.892000198,5,0.120000124,1,0,1200,618,1,1199,ceiling,11137,2019-10-22_21h05.46.359,SurveyExpMetaMem,3.2.3,Win32,60
,,,,,,,,,,,,,,,,,,,,5,1.478000164,5,0.149000168,1,0,1200,104,1,1199,freeway,11137,2019-10-22_21h05.46.359,SurveyExpMetaMem,3.2.3,Win32,60
,,,,,,,,,,,,,,,,,,,,6,1.355000019,4,0.103000164,1,0,1200,327,1,1199,misfortune,11137,2019-10-22_21h05.46.359,SurveyExpMetaMem,3.2.3,Win32,60
,,,,,,,,,,,,,,,,,,,,5,1.191000223,5,0.135000229,1,0,1200,712,1,1199,harvest,11137,2019-10-22_21h05.46.359,SurveyExpMetaMem,3.2.3,Win32,60
,,,,,,,,,,,,,,,,,,,,6,1.160000086,4,0.123000145,1,0,1200,1081,1,1199,damage,11137,2019-10-22_21h05.46.359,SurveyExpMetaMem,3.2.3,Win32,60
,,,,,,,,,,,,,,,,,,,,6,1.334000111,4,0.145000219,1,0,1200,377,1,1199,complain,11137,2019-10-22_21h05.46.359,SurveyExpMetaMem,3.2.3,Win32,60
,,,,,,,,,,,,,,,,,,,,6,2.444000244,6,0.121999979,1,0,1200,231,1,1199,cherish,11137,2019-10-22_21h05.46.359,SurveyExpMetaMem,3.2.3,Win32,60
,,,,,,,,,,,,,,,,,,,,5,1.041000128,5,0.144000053,1,0,1200,460,1,1199,rag,11137,2019-10-22_21h05.46.359,SurveyExpMetaMem,3.2.3,Win32,60
,,,,,,,,,,,,,,,,,,,,5,0.844000101,5,0.135000229,1,0,1200,719,1,1199,western,11137,2019-10-22_21h05.46.359,SurveyExpMetaMem,3.2.3,Win32,60
,,,,,,,,,,,,,,,,,,,,5,0.742000103,5,0.144999981,1,0,1200,603,1,1199,mane,11137,2019-10-22_21h05.46.359,SurveyExpMetaMem,3.2.3,Win32,60
,,,,,,,,,,,,,,,,,,,,4,1.344000101,5,0.111999989,1,0,1200,510,1,1199,excuse,11137,2019-10-22_21h05.46.359,SurveyExpMetaMem,3.2.3,Win32,60
,,,,,,,,,,,,,,,,,,,,5,1.345999956,5,0.144000053,1,0,1200,153,1,1199,teach,11137,2019-10-22_21h05.46.359,SurveyExpMetaMem,3.2.3,Win32,60
,,,,,,,,,,,,,,,,,,,,5,2.113000154,5,0.162000179,1,0,1200,449,1,1199,egotistical,11137,2019-10-22_21h05.46.359,SurveyExpMetaMem,3.2.3,Win32,60
,,,,,,,,,,,,,,,,,,,,5,0.643000126,5,0.1650002,1,0,1200,540,1,1199,derelict,11137,2019-10-22_21h05.46.359,SurveyExpMetaMem,3.2.3,Win32,60
,,,,,,,,,,,,,,,,,,,,6,1.792999983,6,0.109000206,1,0,1200,886,1,1199,sunflower,11137,2019-10-22_21h05.46.359,SurveyExpMetaMem,3.2.3,Win32,60
,,,,,,,,,,,,,,,,,,,,5,1.462000132,4,0.139000177,1,0,1200,407,1,1199,handicap,11137,2019-10-22_21h05.46.359,SurveyExpMetaMem,3.2.3,Win32,60
,,,,,,,,,,,,,,,,,,,,5,1.500000238,5,0.144999981,1,0,1200,504,1,1199,cane,11137,2019-10-22_21h05.46.359,SurveyExpMetaMem,3.2.3,Win32,60
,,,,,,,,,,,,,,,,,,,,5,1.157000065,5,0.123000145,1,0,1200,126,1,1199,rich,11137,2019-10-22_21h05.46.359,SurveyExpMetaMem,3.2.3,Win32,60
,,,,,,,,,,,,,,,,,,,,7,1.712000132,4,1.295000076,1,0,1200,1140,1,1199,blood,11137,2019-10-22_21h05.46.359,SurveyExpMetaMem,3.2.3,Win32,60
,,,,,,,,,,,,,,,,,,,,6,1.645000219,6,0.116000175,1,0,1200,247,1,1199,graduate,11137,2019-10-22_21h05.46.359,SurveyExpMetaMem,3.2.3,Win32,60
,,,,,,,,,,,,,,,,,,,,8,1.68900013,1,0.506000042,1,0,1200,905,1,1199,suffocate,11137,2019-10-22_21h05.46.359,SurveyExpMetaMem,3.2.3,Win32,60
,,,,,,,,,,,,,,,,,,,,5,1.361999989,5,0.113000154,1,0,1200,447,1,1199,dishes,11137,2019-10-22_21h05.46.359,SurveyExpMetaMem,3.2.3,Win32,60
,,,,,,,,,,,,,,,,,,,,7,3.400000095,5,0.207000017,1,0,1200,818,1,1199,priest,11137,2019-10-22_21h05.46.359,SurveyExpMetaMem,3.2.3,Win32,60
,,,,,,,,,,,,,,,,,,,,5,1.552000046,5,0.144000292,1,0,1200,739,1,1199,seagull,11137,2019-10-22_21h05.46.359,SurveyExpMetaMem,3.2.3,Win32,60
,,,,,,,,,,,,,,,,,,,,5,0.747000217,5,0.129000187,1,0,1200,426,1,1199,con,11137,2019-10-22_21h05.46.359,SurveyExpMetaMem,3.2.3,Win32,60
,,,,,,,,,,,,,,,,,,,,6,1.441999912,4,0.09400034,1,0,1200,1002,1,1199,wounds,11137,2019-10-22_21h05.46.359,SurveyExpMetaMem,3.2.3,Win32,60
,,,,,,,,,,,,,,,,,,,,5,5.187000036,3,0.218000174,1,0,1200,935,1,1199,despise,11137,2019-10-22_21h05.46.359,SurveyExpMetaMem,3.2.3,Win32,60
,,,,,,,,,,,,,,,,,,,,8,2.171000242,5,0.84100008,1,0,1200,8,1,1199,extreme,11137,2019-10-22_21h05.46.359,SurveyExpMetaMem,3.2.3,Win32,60
,,,,,,,,,,,,,,,,,,,,5,1.647000074,5,0.111000299,1,0,1200,379,1,1199,slob,11137,2019-10-22_21h05.46.359,SurveyExpMetaMem,3.2.3,Win32,60
,,,,,,,,,,,,,,,,,,,,7,1.482000113,7,0.440000296,1,0,1200,142,1,1199,christmas,11137,2019-10-22_21h05.46.359,SurveyExpMetaMem,3.2.3,Win32,60
,,,,,,,,,,,,,,,,,,,,5,1.141000032,5,0.10800004,1,0,1200,27,1,1199,gourmet,11137,2019-10-22_21h05.46.359,SurveyExpMetaMem,3.2.3,Win32,60
,,,,,,,,,,,,,,,,,,,,5,2.897000074,5,0.143000126,1,0,1200,457,1,1199,confuse,11137,2019-10-22_21h05.46.359,SurveyExpMetaMem,3.2.3,Win32,60
,,,,,,,,,,,,,,,,,,,,5,1.588000059,5,0.145000219,1,0,1200,744,1,1199,village,11137,2019-10-22_21h05.46.359,SurveyExpMetaMem,3.2.3,Win32,60
,,,,,,,,,,,,,,,,,,,,5,0.996999979,5,0.130000114,1,0,1200,709,1,1199,ancestor,11137,2019-10-22_21h05.46.359,SurveyExpMetaMem,3.2.3,Win32,60
,,,,,,,,,,,,,,,,,,,,6,1.407000303,4,0.164999962,1,0,1200,1165,1,1199,revolt,11137,2019-10-22_21h05.46.359,SurveyExpMetaMem,3.2.3,Win32,60
,,,,,,,,,,,,,,,,,,,,6,1.425000191,6,0.116000175,1,0,1200,123,1,1199,favorite,11137,2019-10-22_21h05.46.359,SurveyExpMetaMem,3.2.3,Win32,60
,,,,,,,,,,,,,,,,,,,,7,1.359000206,5,0.799000263,1,0,1200,102,1,1199,motorcycle,11137,2019-10-22_21h05.46.359,SurveyExpMetaMem,3.2.3,Win32,60
,,,,,,,,,,,,,,,,,,,,3,2.25,2,1.348999977,1,0,1200,310,1,1199,lonely,11137,2019-10-22_21h05.46.359,SurveyExpMetaMem,3.2.3,Win32,60
,,,,,,,,,,,,,,,,,,,,7,1.510999918,3,1.492000103,1,0,1200,1003,1,1199,jealousy,11137,2019-10-22_21h05.46.359,SurveyExpMetaMem,3.2.3,Win32,60
,,,,,,,,,,,,,,,,,,,,5,1.073999882,5,0.10800004,1,0,1200,64,1,1199,brain,11137,2019-10-22_21h05.46.359,SurveyExpMetaMem,3.2.3,Win32,60
,,,,,,,,,,,,,,,,,,,,7,1.498000145,7,0.10800004,1,0,1200,236,1,1199,amaze,11137,2019-10-22_21h05.46.359,SurveyExpMetaMem,3.2.3,Win32,60
,,,,,,,,,,,,,,,,,,,,5,1.122999907,5,0.095000029,1,0,1200,633,1,1199,cattle,11137,2019-10-22_21h05.46.359,SurveyExpMetaMem,3.2.3,Win32,60
,,,,,,,,,,,,,,,,,,,,5,1.208000183,5,0.115000248,1,0,1200,405,1,1199,fatigued,11137,2019-10-22_21h05.46.359,SurveyExpMetaMem,3.2.3,Win32,60
,,,,,,,,,,,,,,,,,,,,5,0.804000139,5,0.111999989,1,0,1200,575,1,1199,paragraph,11137,2019-10-22_21h05.46.359,SurveyExpMetaMem,3.2.3,Win32,60
,,,,,,,,,,,,,,,,,,,,5,1.407000065,5,0.131000042,1,0,1200,747,1,1199,furniture,11137,2019-10-22_21h05.46.359,SurveyExpMetaMem,3.2.3,Win32,60
,,,,,,,,,,,,,,,,,,,,5,0.710999966,5,0.114000082,1,0,1200,643,1,1199,library,11137,2019-10-22_21h05.46.359,SurveyExpMetaMem,3.2.3,Win32,60
,,,,,,,,,,,,,,,,,,,,5,1.09100008,5,0.121000051,1,0,1200,888,1,1199,refreshment,11137,2019-10-22_21h05.46.359,SurveyExpMetaMem,3.2.3,Win32,60
,,,,,,,,,,,,,,,,,,,,5,1.026000023,5,0.116000175,1,0,1200,823,1,1199,nourish,11137,2019-10-22_21h05.46.359,SurveyExpMetaMem,3.2.3,Win32,60
,,,,,,,,,,,,,,,,,,,,5,0.933000088,5,0.125,1,0,1200,257,1,1199,cockpit,11137,2019-10-22_21h05.46.359,SurveyExpMetaMem,3.2.3,Win32,60
,,,,,,,,,,,,,,,,,,,,5,0.89199996,5,0.11500001,1,0,1200,1035,1,1199,expel,11137,2019-10-22_21h05.46.359,SurveyExpMetaMem,3.2.3,Win32,60
,,,,,,,,,,,,,,,,,,,,5,0.723999977,5,0.128000259,1,0,1200,852,1,1199,caring,11137,2019-10-22_21h05.46.359,SurveyExpMetaMem,3.2.3,Win32,60
,,,,,,,,,,,,,,,,,,,,5,0.869000196,5,0.130000114,1,0,1200,285,1,1199,gold,11137,2019-10-22_21h05.46.359,SurveyExpMetaMem,3.2.3,Win32,60
,,,,,,,,,,,,,,,,,,,,5,0.717000246,5,0.146000147,1,0,1200,221,1,1199,sparkle,11137,2019-10-22_21h05.46.359,SurveyExpMetaMem,3.2.3,Win32,60
,,,,,,,,,,,,,,,,,,,,4,1.99000001,4,0.121999979,1,0,1200,1018,1,1199,distress,11137,2019-10-22_21h05.46.359,SurveyExpMetaMem,3.2.3,Win32,60
,,,,,,,,,,,,,,,,,,,,5,0.849000216,5,0.105000019,1,0,1200,107,1,1199,sandwich,11137,2019-10-22_21h05.46.359,SurveyExpMetaMem,3.2.3,Win32,60
,,,,,,,,,,,,,,,,,,,,7,2.154999971,3,0.5,1,0,1200,936,1,1199,assault,11137,2019-10-22_21h05.46.359,SurveyExpMetaMem,3.2.3,Win32,60
,,,,,,,,,,,,,,,,,,,,7,2.453000069,3,0.475000143,1,0,1200,1022,1,1199,creepy,11137,2019-10-22_21h05.46.359,SurveyExpMetaMem,3.2.3,Win32,60
,,,,,,,,,,,,,,,,,,,,7,2.203000307,5,0.271000147,1,0,1200,264,1,1199,thong,11137,2019-10-22_21h05.46.359,SurveyExpMetaMem,3.2.3,Win32,60
,,,,,,,,,,,,,,,,,,,,5,2.066000223,5,0.104000092,1,0,1200,761,1,1199,corn,11137,2019-10-22_21h05.46.359,SurveyExpMetaMem,3.2.3,Win32,60
,,,,,,,,,,,,,,,,,,,,6,1.203000069,4,0.203000307,1,0,1200,1110,1,1199,bastard,11137,2019-10-22_21h05.46.359,SurveyExpMetaMem,3.2.3,Win32,60
,,,,,,,,,,,,,,,,,,,,5,1.603000164,5,0.663000107,1,0,1200,591,1,1199,bereavement,11137,2019-10-22_21h05.46.359,SurveyExpMetaMem,3.2.3,Win32,60
,,,,,,,,,,,,,,,,,,,,4,3.094000101,4,0.106000185,1,0,1200,505,1,1199,exhaust,11137,2019-10-22_21h05.46.359,SurveyExpMetaMem,3.2.3,Win32,60
,,,,,,,,,,,,,,,,,,,,8,1.653000116,2,0.882000208,1,0,1200,945,1,1199,demon,11137,2019-10-22_21h05.46.359,SurveyExpMetaMem,3.2.3,Win32,60
,,,,,,,,,,,,,,,,,,,,3,1.955000162,5,0.286999941,1,0,1200,416,1,1199,boring,11137,2019-10-22_21h05.46.359,SurveyExpMetaMem,3.2.3,Win32,60
,,,,,,,,,,,,,,,,,,,,6,2.985000134,6,0.114000082,1,0,1200,271,1,1199,applaud,11137,2019-10-22_21h05.46.359,SurveyExpMetaMem,3.2.3,Win32,60
,,,,,,,,,,,,,,,,,,,,6,2.190999985,4,0.258000135,1,0,1200,991,1,1199,harass,11137,2019-10-22_21h05.46.359,SurveyExpMetaMem,3.2.3,Win32,60
,,,,,,,,,,,,,,,,,,,,7,1.303000212,1,0.916000128,1,0,1200,926,1,1199,dead,11137,2019-10-22_21h05.46.359,SurveyExpMetaMem,3.2.3,Win32,60
,,,,,,,,,,,,,,,,,,,,5,1.84800005,5,0.132999897,1,0,1200,349,1,1199,mope,11137,2019-10-22_21h05.46.359,SurveyExpMetaMem,3.2.3,Win32,60
,,,,,,,,,,,,,,,,,,,,5,0.916000128,5,0.118000031,1,0,1200,403,1,1199,wither,11137,2019-10-22_21h05.46.359,SurveyExpMetaMem,3.2.3,Win32,60
,,,,,,,,,,,,,,,,,,,,5,0.745000124,5,0.114000082,1,0,1200,25,1,1199,charisma,11137,2019-10-22_21h05.46.359,SurveyExpMetaMem,3.2.3,Win32,60
,,,,,,,,,,,,,,,,,,,,5,0.67200017,5,0.116000175,1,0,1200,815,1,1199,apple,11137,2019-10-22_21h05.46.359,SurveyExpMetaMem,3.2.3,Win32,60
,,,,,,,,,,,,,,,,,,,,5,0.775000095,5,0.125,1,0,1200,501,1,1199,dustpan,11137,2019-10-22_21h05.46.359,SurveyExpMetaMem,3.2.3,Win32,60
,,,,,,,,,,,,,,,,,,,,4,1.865000248,4,0.117000103,1,0,1200,378,1,1199,dislike,11137,2019-10-22_21h05.46.359,SurveyExpMetaMem,3.2.3,Win32,60
,,,,,,,,,,,,,,,,,,,,5,1.055000067,5,0.110000134,1,0,1200,716,1,1199,blouse,11137,2019-10-22_21h05.46.359,SurveyExpMetaMem,3.2.3,Win32,60
,,,,,,,,,,,,,,,,,,,,5,0.960000038,5,0.117000103,1,0,1200,121,1,1199,self,11137,2019-10-22_21h05.46.359,SurveyExpMetaMem,3.2.3,Win32,60
,,,,,,,,,,,,,,,,,,,,4,1.901000023,4,0.123000145,1,0,1200,975,1,1199,insecure,11137,2019-10-22_21h05.46.359,SurveyExpMetaMem,3.2.3,Win32,60
,,,,,,,,,,,,,,,,,,,,6,1.47300005,6,0.133000135,1,0,1200,248,1,1199,win,11137,2019-10-22_21h05.46.359,SurveyExpMetaMem,3.2.3,Win32,60
,,,,,,,,,,,,,,,,,,,,6,3.576000214,6,0.541000128,1,0,1200,157,1,1199,reveal,11137,2019-10-22_21h05.46.359,SurveyExpMetaMem,3.2.3,Win32,60
,,,,,,,,,,,,,,,,,,,,5,1.805000305,5,0.125999928,1,0,1200,657,1,1199,peanut,11137,2019-10-22_21h05.46.359,SurveyExpMetaMem,3.2.3,Win32,60
,,,,,,,,,,,,,,,,,,,,4,1.583000183,5,0.705000162,1,0,1200,787,1,1199,dawn,11137,2019-10-22_21h05.46.359,SurveyExpMetaMem,3.2.3,Win32,60
,,,,,,,,,,,,,,,,,,,,5,1.325000048,5,0.125999928,1,0,1200,589,1,1199,coarse,11137,2019-10-22_21h05.46.359,SurveyExpMetaMem,3.2.3,Win32,60
,,,,,,,,,,,,,,,,,,,,6,1.625999928,4,0.217000246,1,0,1200,397,1,1199,complaint,11137,2019-10-22_21h05.46.359,SurveyExpMetaMem,3.2.3,Win32,60
,,,,,,,,,,,,,,,,,,,,5,1.39800024,5,0.117000103,1,0,1200,234,1,1199,redeem,11137,2019-10-22_21h05.46.359,SurveyExpMetaMem,3.2.3,Win32,60
,,,,,,,,,,,,,,,,,,,,5,1.214000225,5,0.134000063,1,0,1200,468,1,1199,noose,11137,2019-10-22_21h05.46.359,SurveyExpMetaMem,3.2.3,Win32,60
,,,,,,,,,,,,,,,,,,,,5,1.93200016,5,0.139000177,1,0,1200,730,1,1199,slogan,11137,2019-10-22_21h05.46.359,SurveyExpMetaMem,3.2.3,Win32,60
,,,,,,,,,,,,,,,,,,,,7,1.680000067,3,1.275000095,1,0,1200,1041,1,1199,sin,11137,2019-10-22_21h05.46.359,SurveyExpMetaMem,3.2.3,Win32,60
,,,,,,,,,,,,,,,,,,,,6,1.937000275,4,0.215000153,1,0,1200,1084,1,1199,uneasy,11137,2019-10-22_21h05.46.359,SurveyExpMetaMem,3.2.3,Win32,60
,,,,,,,,,,,,,,,,,,,,8,2.516000032,4,0.658000231,1,0,1200,1164,1,1199,battle,11137,2019-10-22_21h05.46.359,SurveyExpMetaMem,3.2.3,Win32,60
,,,,,,,,,,,,,,,,,,,,5,1.181000233,5,0.119000196,1,0,1200,801,1,1199,noon,11137,2019-10-22_21h05.46.359,SurveyExpMetaMem,3.2.3,Win32,60
,,,,,,,,,,,,,,,,,,,,5,2.88800025,5,0.11500001,1,0,1200,423,1,1199,stain,11137,2019-10-22_21h05.46.359,SurveyExpMetaMem,3.2.3,Win32,60
,,,,,,,,,,,,,,,,,,,,7,1.901000023,7,0.118000031,1,0,1200,832,1,1199,candy,11137,2019-10-22_21h05.46.359,SurveyExpMetaMem,3.2.3,Win32,60
,,,,,,,,,,,,,,,,,,,,8,2.490000248,4,0.617000103,1,0,1200,1156,1,1199,weapon,11137,2019-10-22_21h05.46.359,SurveyExpMetaMem,3.2.3,Win32,60
,,,,,,,,,,,,,,,,,,,,6,1.671000004,5,0.196000099,1,0,1200,159,1,1199,teenager,11137,2019-10-22_21h05.46.359,SurveyExpMetaMem,3.2.3,Win32,60
,,,,,,,,,,,,,,,,,,,,5,2.623000145,5,0.114000082,1,0,1200,1155,1,1199,tangle,11137,2019-10-22_21h05.46.359,SurveyExpMetaMem,3.2.3,Win32,60
,,,,,,,,,,,,,,,,,,,,5,2.536000252,5,0.115000248,1,0,1200,445,1,1199,bleak,11137,2019-10-22_21h05.46.359,SurveyExpMetaMem,3.2.3,Win32,60
,,,,,,,,,,,,,,,,,,,,4,59.03500009,4,0.109000206,1,0,1200,481,1,1199,melancholy,11137,2019-10-22_21h05.46.359,SurveyExpMetaMem,3.2.3,Win32,60
,,,,,,,,,,,,,,,,,,,,6,2.894000053,5,0.317000151,1,0,1200,117,1,1199,powerful,11137,2019-10-22_21h05.46.359,SurveyExpMetaMem,3.2.3,Win32,60
,,,,,,,,,,,,,,,,,,,,7,1.434999943,4,0.566000223,1,0,1200,1000,1,1199,threat,11137,2019-10-22_21h05.46.359,SurveyExpMetaMem,3.2.3,Win32,60
,,,,,,,,,,,,,,,,,,,,5,2.012000322,5,0.127000093,1,0,1200,780,1,1199,grass,11137,2019-10-22_21h05.46.359,SurveyExpMetaMem,3.2.3,Win32,60
,,,,,,,,,,,,,,,,,,,,5,0.796000242,5,0.135000229,1,0,1200,654,1,1199,brief,11137,2019-10-22_21h05.46.359,SurveyExpMetaMem,3.2.3,Win32,60
,,,,,,,,,,,,,,,,,,,,6,1.571000099,5,0.263000011,1,0,1200,956,1,1199,crushed,11137,2019-10-22_21h05.46.359,SurveyExpMetaMem,3.2.3,Win32,60
,,,,,,,,,,,,,,,,,,,,5,1.742000103,5,0.118999958,1,0,1200,849,1,1199,blue,11137,2019-10-22_21h05.46.359,SurveyExpMetaMem,3.2.3,Win32,60
,,,,,,,,,,,,,,,,,,,,5,0.959000111,5,0.131000042,1,0,1200,515,1,1199,blues,11137,2019-10-22_21h05.46.359,SurveyExpMetaMem,3.2.3,Win32,60
,,,,,,,,,,,,,,,,,,,,5,2.309000015,5,0.140000343,1,0,1200,715,1,1199,sheltered,11137,2019-10-22_21h05.46.359,SurveyExpMetaMem,3.2.3,Win32,60
,,,,,,,,,,,,,,,,,,,,5,10.47900009,5,0.134000063,1,0,1200,67,1,1199,penthouse,11137,2019-10-22_21h05.46.359,SurveyExpMetaMem,3.2.3,Win32,60
,,,,,,,,,,,,,,,,,,,,4,3.299000025,5,0.142000198,1,0,1200,851,1,1199,cool,11137,2019-10-22_21h05.46.359,SurveyExpMetaMem,3.2.3,Win32,60
,,,,,,,,,,,,,,,,,,,,5,1.593000174,5,0.136000156,1,0,1200,769,1,1199,relate,11137,2019-10-22_21h05.46.359,SurveyExpMetaMem,3.2.3,Win32,60
,,,,,,,,,,,,,,,,,,,,5,0.63800025,5,0.121999979,1,0,1200,521,1,1199,laundry,11137,2019-10-22_21h05.46.359,SurveyExpMetaMem,3.2.3,Win32,60
,,,,,,,,,,,,,,,,,,,,5,0.687999964,5,0.144999981,1,0,1200,741,1,1199,wheat,11137,2019-10-22_21h05.46.359,SurveyExpMetaMem,3.2.3,Win32,60
,,,,,,,,,,,,,,,,,,,,5,0.791000128,5,0.134000063,1,0,1200,1138,1,1199,wail,11137,2019-10-22_21h05.46.359,SurveyExpMetaMem,3.2.3,Win32,60
,,,,,,,,,,,,,,,,,,,,5,0.611999989,5,0.144999981,1,0,1200,29,1,1199,life,11137,2019-10-22_21h05.46.359,SurveyExpMetaMem,3.2.3,Win32,60
,,,,,,,,,,,,,,,,,,,,5,0.762000084,5,0.130000114,1,0,1200,390,1,1199,impair,11137,2019-10-22_21h05.46.359,SurveyExpMetaMem,3.2.3,Win32,60
,,,,,,,,,,,,,,,,,,,,5,0.678999901,5,0.134000063,1,0,1200,580,1,1199,fur,11137,2019-10-22_21h05.46.359,SurveyExpMetaMem,3.2.3,Win32,60
,,,,,,,,,,,,,,,,,,,,7,1.667000294,5,0.674999952,1,0,1200,100,1,1199,intense,11137,2019-10-22_21h05.46.359,SurveyExpMetaMem,3.2.3,Win32,60
,,,,,,,,,,,,,,,,,,,,5,1.124000072,5,0.144000053,1,0,1200,844,1,1199,soul,11137,2019-10-22_21h05.46.359,SurveyExpMetaMem,3.2.3,Win32,60
,,,,,,,,,,,,,,,,,,,,7,1.389000177,3,0.654999971,1,0,1200,317,1,1199,cry,11137,2019-10-22_21h05.46.359,SurveyExpMetaMem,3.2.3,Win32,60
,,,,,,,,,,,,,,,,,,,,5,1.161000013,5,0.131000042,1,0,1200,706,1,1199,cat,11137,2019-10-22_21h05.46.359,SurveyExpMetaMem,3.2.3,Win32,60
,,,,,,,,,,,,,,,,,,,,5,2.378000021,5,0.126000166,1,0,1200,553,1,1199,corner,11137,2019-10-22_21h05.46.359,SurveyExpMetaMem,3.2.3,Win32,60
,,,,,,,,,,,,,,,,,,,,8,3.46600008,5,1.649000168,1,0,1200,479,1,1199,period,11137,2019-10-22_21h05.46.359,SurveyExpMetaMem,3.2.3,Win32,60
,,,,,,,,,,,,,,,,,,,,5,6.506000042,5,0.144999981,1,0,1200,339,1,1199,chore,11137,2019-10-22_21h05.46.359,SurveyExpMetaMem,3.2.3,Win32,60
,,,,,,,,,,,,,,,,,,,,6,2.926000118,4,0.308000088,1,0,1200,355,1,1199,graveyard,11137,2019-10-22_21h05.46.359,SurveyExpMetaMem,3.2.3,Win32,60
,,,,,,,,,,,,,,,,,,,,6,4.343000174,4,0.241000175,1,0,1200,910,1,1199,abusive,11137,2019-10-22_21h05.46.359,SurveyExpMetaMem,3.2.3,Win32,60
,,,,,,,,,,,,,,,,,,,,5,2.073000193,5,0.150000334,1,0,1200,619,1,1199,pulpit,11137,2019-10-22_21h05.46.359,SurveyExpMetaMem,3.2.3,Win32,60
,,,,,,,,,,,,,,,,,,,,5,58.50200009,4,0.887000084,1,0,1200,347,1,1199,unpleasant,11137,2019-10-22_21h05.46.359,SurveyExpMetaMem,3.2.3,Win32,60
,,,,,,,,,,,,,,,,,,,,5,1.504000187,5,0.088000059,1,0,1200,677,1,1199,handwriting,11137,2019-10-22_21h05.46.359,SurveyExpMetaMem,3.2.3,Win32,60
,,,,,,,,,,,,,,,,,,,,5,2.650000095,3,0.263000011,1,0,1200,329,1,1199,worse,11137,2019-10-22_21h05.46.359,SurveyExpMetaMem,3.2.3,Win32,60
,,,,,,,,,,,,,,,,,,,,6,1.268000126,6,0.10800004,1,0,1200,181,1,1199,fascinate,11137,2019-10-22_21h05.46.359,SurveyExpMetaMem,3.2.3,Win32,60
,,,,,,,,,,,,,,,,,,,,5,1.534000158,5,0.122000217,1,0,1200,731,1,1199,decency,11137,2019-10-22_21h05.46.359,SurveyExpMetaMem,3.2.3,Win32,60
,,,,,,,,,,,,,,,,,,,,5,1.055999994,5,0.113000154,1,0,1200,129,1,1199,fly,11137,2019-10-22_21h05.46.359,SurveyExpMetaMem,3.2.3,Win32,60
,,,,,,,,,,,,,,,,,,,,5,1.062000275,5,0.126000166,1,0,1200,270,1,1199,toddler,11137,2019-10-22_21h05.46.359,SurveyExpMetaMem,3.2.3,Win32,60
,,,,,,,,,,,,,,,,,,,,5,0.82400012,5,0.126000166,1,0,1200,585,1,1199,tatter,11137,2019-10-22_21h05.46.359,SurveyExpMetaMem,3.2.3,Win32,60
,,,,,,,,,,,,,,,,,,,,6,1.276000261,4,0.181000233,1,0,1200,923,1,1199,punish,11137,2019-10-22_21h05.46.359,SurveyExpMetaMem,3.2.3,Win32,60
,,,,,,,,,,,,,,,,,,,,7,1.207000256,4,0.467000008,1,0,1200,998,1,1199,virus,11137,2019-10-22_21h05.46.359,SurveyExpMetaMem,3.2.3,Win32,60
,,,,,,,,,,,,,,,,,,,,6,1.210000038,4,0.212000132,1,0,1200,1015,1,1199,frighten,11137,2019-10-22_21h05.46.359,SurveyExpMetaMem,3.2.3,Win32,60
,,,,,,,,,,,,,,,,,,,,7,1.896000147,4,0.690999985,1,0,1200,1193,1,1199,damn,11137,2019-10-22_21h05.46.359,SurveyExpMetaMem,3.2.3,Win32,60
,,,,,,,,,,,,,,,,,,,,5,2.957000256,5,0.116000175,1,0,1200,751,1,1199,listen,11137,2019-10-22_21h05.46.359,SurveyExpMetaMem,3.2.3,Win32,60
,,,,,,,,,,,,,,,,,,,,5,1.551000118,5,0.147000074,1,0,1200,474,1,1199,weary,11137,2019-10-22_21h05.46.359,SurveyExpMetaMem,3.2.3,Win32,60
,,,,,,,,,,,,,,,,,,,,5,0.697000027,5,0.129000187,1,0,1200,61,1,1199,zoom,11137,2019-10-22_21h05.46.359,SurveyExpMetaMem,3.2.3,Win32,60
,,,,,,,,,,,,,,,,,,,,5,0.736000061,5,0.128000021,1,0,1200,578,1,1199,govern,11137,2019-10-22_21h05.46.359,SurveyExpMetaMem,3.2.3,Win32,60
,,,,,,,,,,,,,,,,,,,,7,1.541000128,4,0.43900013,1,0,1200,1185,1,1199,shotgun,11137,2019-10-22_21h05.46.359,SurveyExpMetaMem,3.2.3,Win32,60
,,,,,,,,,,,,,,,,,,,,5,1.137000084,5,0.10800004,1,0,1200,802,1,1199,familiar,11137,2019-10-22_21h05.46.359,SurveyExpMetaMem,3.2.3,Win32,60
,,,,,,,,,,,,,,,,,,,,5,0.910000086,5,0.139000177,1,0,1200,1057,1,1199,deceit,11137,2019-10-22_21h05.46.359,SurveyExpMetaMem,3.2.3,Win32,60
,,,,,,,,,,,,,,,,,,,,5,0.819999933,5,0.108999968,1,0,1200,473,1,1199,senseless,11137,2019-10-22_21h05.46.359,SurveyExpMetaMem,3.2.3,Win32,60
,,,,,,,,,,,,,,,,,,,,5,0.917999983,5,0.437000275,1,0,1200,1177,1,1199,pang,11137,2019-10-22_21h05.46.359,SurveyExpMetaMem,3.2.3,Win32,60
,,,,,,,,,,,,,,,,,,,,5,1.604000092,5,0.143000126,1,0,1200,1154,1,1199,politics,11137,2019-10-22_21h05.46.359,SurveyExpMetaMem,3.2.3,Win32,60
,,,,,,,,,,,,,,,,,,,,6,3.38100028,4,0.785000086,1,0,1200,348,1,1199,impotent,11137,2019-10-22_21h05.46.359,SurveyExpMetaMem,3.2.3,Win32,60
,,,,,,,,,,,,,,,,,,,,5,0.930000067,5,0.127000093,1,0,1200,727,1,1199,author,11137,2019-10-22_21h05.46.359,SurveyExpMetaMem,3.2.3,Win32,60
,,,,,,,,,,,,,,,,,,,,7,1.691999912,3,1.109000206,1,0,1200,1186,1,1199,goddamn,11137,2019-10-22_21h05.46.359,SurveyExpMetaMem,3.2.3,Win32,60
,,,,,,,,,,,,,,,,,,,,5,0.99600029,5,0.119000196,1,0,1200,825,1,1199,swan,11137,2019-10-22_21h05.46.359,SurveyExpMetaMem,3.2.3,Win32,60
,,,,,,,,,,,,,,,,,,,,5,1.156000137,5,0.131000042,1,0,1200,491,1,1199,meek,11137,2019-10-22_21h05.46.359,SurveyExpMetaMem,3.2.3,Win32,60
,,,,,,,,,,,,,,,,,,,,5,1.258000135,5,0.134000063,1,0,1200,381,1,1199,sloppy,11137,2019-10-22_21h05.46.359,SurveyExpMetaMem,3.2.3,Win32,60
,,,,,,,,,,,,,,,,,,,,5,0.710000277,5,0.142000198,1,0,1200,222,1,1199,waterskiing,11137,2019-10-22_21h05.46.359,SurveyExpMetaMem,3.2.3,Win32,60
,,,,,,,,,,,,,,,,,,,,5,0.693000078,5,0.154000044,1,0,1200,835,1,1199,helpful,11137,2019-10-22_21h05.46.359,SurveyExpMetaMem,3.2.3,Win32,60
,,,,,,,,,,,,,,,,,,,,5,0.477000237,5,0.164000034,1,0,1200,1051,1,1199,insane,11137,2019-10-22_21h05.46.359,SurveyExpMetaMem,3.2.3,Win32,60
,,,,,,,,,,,,,,,,,,,,5,0.770000219,5,0.141000032,1,0,1200,286,1,1199,superstar,11137,2019-10-22_21h05.46.359,SurveyExpMetaMem,3.2.3,Win32,60
,,,,,,,,,,,,,,,,,,,,7,1.474000216,4,0.710999966,1,0,1200,982,1,1199,robbery,11137,2019-10-22_21h05.46.359,SurveyExpMetaMem,3.2.3,Win32,60
,,,,,,,,,,,,,,,,,,,,5,1.228000164,5,0.127000093,1,0,1200,250,1,1199,erupt,11137,2019-10-22_21h05.46.359,SurveyExpMetaMem,3.2.3,Win32,60
,,,,,,,,,,,,,,,,,,,,7,1.459000111,3,0.595999956,1,0,1200,1064,1,1199,sinful,11137,2019-10-22_21h05.46.359,SurveyExpMetaMem,3.2.3,Win32,60
,,,,,,,,,,,,,,,,,,,,4,3.243000269,6,0.265000105,1,0,1200,889,1,1199,wise,11137,2019-10-22_21h05.46.359,SurveyExpMetaMem,3.2.3,Win32,60
,,,,,,,,,,,,,,,,,,,,6,1.48300004,4,0.263000011,1,0,1200,458,1,1199,refuse,11137,2019-10-22_21h05.46.359,SurveyExpMetaMem,3.2.3,Win32,60
,,,,,,,,,,,,,,,,,,,,6,1.334000111,6,0.117000103,1,0,1200,226,1,1199,prize,11137,2019-10-22_21h05.46.359,SurveyExpMetaMem,3.2.3,Win32,60
,,,,,,,,,,,,,,,,,,,,7,1.23300004,3,0.555000305,1,0,1200,1101,1,1199,scary,11137,2019-10-22_21h05.46.359,SurveyExpMetaMem,3.2.3,Win32,60
,,,,,,,,,,,,,,,,,,,,5,2.230000019,5,0.117000103,1,0,1200,425,1,1199,crutch,11137,2019-10-22_21h05.46.359,SurveyExpMetaMem,3.2.3,Win32,60
,,,,,,,,,,,,,,,,,,,,5,1.310000181,5,0.119000196,1,0,1200,1089,1,1199,ridicule,11137,2019-10-22_21h05.46.359,SurveyExpMetaMem,3.2.3,Win32,60
,,,,,,,,,,,,,,,,,,,,7,2.10400033,2,0.876000166,1,0,1200,943,1,1199,trauma,11137,2019-10-22_21h05.46.359,SurveyExpMetaMem,3.2.3,Win32,60
,,,,,,,,,,,,,,,,,,,,6,2.937000275,5,0.241000175,1,0,1200,1197,1,1199,command,11137,2019-10-22_21h05.46.359,SurveyExpMetaMem,3.2.3,Win32,60
,,,,,,,,,,,,,,,,,,,,5,1.224000216,5,0.141000032,1,0,1200,412,1,1199,mucus,11137,2019-10-22_21h05.46.359,SurveyExpMetaMem,3.2.3,Win32,60
,,,,,,,,,,,,,,,,,,,,6,1.407000065,6,0.113000154,1,0,1200,82,1,1199,stunning,11137,2019-10-22_21h05.46.359,SurveyExpMetaMem,3.2.3,Win32,60
,,,,,,,,,,,,,,,,,,,,7,2.562999964,4,1.416000128,1,0,1200,338,1,1199,obesity,11137,2019-10-22_21h05.46.359,SurveyExpMetaMem,3.2.3,Win32,60
,,,,,,,,,,,,,,,,,,,,6,1.552999973,5,0.975000143,1,0,1200,455,1,1199,chubby,11137,2019-10-22_21h05.46.359,SurveyExpMetaMem,3.2.3,Win32,60
,,,,,,,,,,,,,,,,,,,,7,1.835000277,8,0.374000311,1,0,1200,237,1,1199,beautiful,11137,2019-10-22_21h05.46.359,SurveyExpMetaMem,3.2.3,Win32,60
,,,,,,,,,,,,,,,,,,,,4,3.676000118,8,1.268000126,1,0,1200,876,1,1199,politeness,11137,2019-10-22_21h05.46.359,SurveyExpMetaMem,3.2.3,Win32,60
,,,,,,,,,,,,,,,,,,,,5,1.305000067,5,0.116000175,1,0,1200,625,1,1199,hat,11137,2019-10-22_21h05.46.359,SurveyExpMetaMem,3.2.3,Win32,60
,,,,,,,,,,,,,,,,,,,,5,1.430000305,5,0.116000175,1,0,1200,674,1,1199,fitting,11137,2019-10-22_21h05.46.359,SurveyExpMetaMem,3.2.3,Win32,60
,,,,,,,,,,,,,,,,,,,,5,0.874000072,5,0.110000134,1,0,1200,335,1,1199,decay,11137,2019-10-22_21h05.46.359,SurveyExpMetaMem,3.2.3,Win32,60
,,,,,,,,,,,,,,,,,,,,6,1.576000214,4,0.265000105,1,0,1200,424,1,1199,fault,11137,2019-10-22_21h05.46.359,SurveyExpMetaMem,3.2.3,Win32,60
,,,,,,,,,,,,,,,,,,,,7,1.342000008,4,0.261000156,1,0,1200,937,1,1199,prison,11137,2019-10-22_21h05.46.359,SurveyExpMetaMem,3.2.3,Win32,60
,,,,,,,,,,,,,,,,,,,,5,1.332000017,5,0.110000134,1,0,1200,532,1,1199,recede,11137,2019-10-22_21h05.46.359,SurveyExpMetaMem,3.2.3,Win32,60
,,,,,,,,,,,,,,,,,,,,5,1.021000147,5,0.127000093,1,0,1200,388,1,1199,mildew,11137,2019-10-22_21h05.46.359,SurveyExpMetaMem,3.2.3,Win32,60
,,,,,,,,,,,,,,,,,,,,5,0.947000265,5,0.132000208,1,0,1200,639,1,1199,outlet,11137,2019-10-22_21h05.46.359,SurveyExpMetaMem,3.2.3,Win32,60
,,,,,,,,,,,,,,,,,,,,5,0.696000099,5,0.131000042,1,0,1200,24,1,1199,model,11137,2019-10-22_21h05.46.359,SurveyExpMetaMem,3.2.3,Win32,60
,,,,,,,,,,,,,,,,,,,,6,1.473000288,2,0.485000134,1,0,1200,999,1,1199,burdened,11137,2019-10-22_21h05.46.359,SurveyExpMetaMem,3.2.3,Win32,60
,,,,,,,,,,,,,,,,,,,,5,2.015000105,4,0.263000011,1,0,1200,439,1,1199,spit,11137,2019-10-22_21h05.46.359,SurveyExpMetaMem,3.2.3,Win32,60
,,,,,,,,,,,,,,,,,,,,5,1.291000128,5,0.124000072,1,0,1200,602,1,1199,vegetable,11137,2019-10-22_21h05.46.359,SurveyExpMetaMem,3.2.3,Win32,60
,,,,,,,,,,,,,,,,,,,,5,0.743000031,5,0.116000175,1,0,1200,661,1,1199,cow,11137,2019-10-22_21h05.46.359,SurveyExpMetaMem,3.2.3,Win32,60
,,,,,,,,,,,,,,,,,,,,4,1.744000196,5,0.098000288,1,0,1200,1119,1,1199,confusion,11137,2019-10-22_21h05.46.359,SurveyExpMetaMem,3.2.3,Win32,60
,,,,,,,,,,,,,,,,,,,,4,1.828000069,5,0.111000061,1,0,1200,753,1,1199,patience,11137,2019-10-22_21h05.46.359,SurveyExpMetaMem,3.2.3,Win32,60
,,,,,,,,,,,,,,,,,,,,5,1.147000074,5,0.125,1,0,1200,1043,1,1199,scold,11137,2019-10-22_21h05.46.359,SurveyExpMetaMem,3.2.3,Win32,60
,,,,,,,,,,,,,,,,,,,,5,1.338000059,5,0.110000134,1,0,1200,134,1,1199,dollar,11137,2019-10-22_21h05.46.359,SurveyExpMetaMem,3.2.3,Win32,60
,,,,,,,,,,,,,,,,,,,,6,1.28000021,4,0.210999966,1,0,1200,1147,1,1199,demand,11137,2019-10-22_21h05.46.359,SurveyExpMetaMem,3.2.3,Win32,60
,,,,,,,,,,,,,,,,,,,,5,0.97300005,5,0.104000092,1,0,1200,698,1,1199,oven,11137,2019-10-22_21h05.46.359,SurveyExpMetaMem,3.2.3,Win32,60
,,,,,,,,,,,,,,,,,,,,7,1.603000164,4,0.275000095,1,0,1200,971,1,1199,crash,11137,2019-10-22_21h05.46.359,SurveyExpMetaMem,3.2.3,Win32,60
,,,,,,,,,,,,,,,,,,,,5,1.236000061,5,0.124000072,1,0,1200,590,1,1199,stool,11137,2019-10-22_21h05.46.359,SurveyExpMetaMem,3.2.3,Win32,60
,,,,,,,,,,,,,,,,,,,,5,5.996000051,5,0.124000072,1,0,1200,1063,1,1199,quarrel,11137,2019-10-22_21h05.46.359,SurveyExpMetaMem,3.2.3,Win32,60
,,,,,,,,,,,,,,,,,,,,5,1.532000303,5,0.128000021,1,0,1200,435,1,1199,grovel,11137,2019-10-22_21h05.46.359,SurveyExpMetaMem,3.2.3,Win32,60
,,,,,,,,,,,,,,,,,,,,5,0.61500001,5,0.131000042,1,0,1200,693,1,1199,key,11137,2019-10-22_21h05.46.359,SurveyExpMetaMem,3.2.3,Win32,60
,,,,,,,,,,,,,,,,,,,,5,1.085999966,5,0.143000126,1,0,1200,143,1,1199,weekend,11137,2019-10-22_21h05.46.359,SurveyExpMetaMem,3.2.3,Win32,60
