mouse_4.x,mouse_4.y,mouse_4.leftButton,mouse_4.midButton,mouse_4.rightButton,mouse.x,mouse.y,mouse.leftButton,mouse.midButton,mouse.rightButton,mouse_2.x,mouse_2.y,mouse_2.leftButton,mouse_2.midButton,mouse_2.rightButton,mouse_3.x,mouse_3.y,mouse_3.leftButton,mouse_3.midButton,mouse_3.rightButton,A_key_resp.keys,A_key_resp.rt,key_resp.keys,key_resp.rt,trials.thisRepN,trials.thisTrialN,trials.thisN,trials.thisIndex,trials.ran,trials.order,word,ParticipantID,date,expName,psychopyVersion,OS,frameRate
-0.012036967,-0.137037047,1,0,0,-0.203703693,-0.316666735,1,0,0,-0.203703693,-0.316666735,1,0,0,-0.203703693,-0.316666735,1,0,0,5,7.444000006,5,8.890000105,1,0,1200,564,1,1199,wane,11123,2019-10-22_23h22.11.060,SurveyExpMetaMem,3.2.3,Win32,60
,,,,,,,,,,,,,,,,,,,,7,5.01699996,3,2.289999962,1,0,1200,1011,1,1199,robber,11123,2019-10-22_23h22.11.060,SurveyExpMetaMem,3.2.3,Win32,60
,,,,,,,,,,,,,,,,,,,,9,2.75,9,0.914999962,1,0,1200,247,1,1199,graduate,11123,2019-10-22_23h22.11.060,SurveyExpMetaMem,3.2.3,Win32,60
,,,,,,,,,,,,,,,,,,,,3,5.717999935,3,2.368000031,1,0,1200,311,1,1199,discomfort,11123,2019-10-22_23h22.11.060,SurveyExpMetaMem,3.2.3,Win32,60
,,,,,,,,,,,,,,,,,,,,5,8.303000212,6,2.039000034,1,0,1200,63,1,1199,clothes,11123,2019-10-22_23h22.11.060,SurveyExpMetaMem,3.2.3,Win32,60
,,,,,,,,,,,,,,,,,,,,5,2.501999855,5,0.616000175,1,0,1200,690,1,1199,similar,11123,2019-10-22_23h22.11.060,SurveyExpMetaMem,3.2.3,Win32,60
,,,,,,,,,,,,,,,,,,,,5,2.178999901,5,0.162000179,1,0,1200,622,1,1199,revere,11123,2019-10-22_23h22.11.060,SurveyExpMetaMem,3.2.3,Win32,60
,,,,,,,,,,,,,,,,,,,,5,4.805000067,5,0.871999979,1,0,1200,531,1,1199,omit,11123,2019-10-22_23h22.11.060,SurveyExpMetaMem,3.2.3,Win32,60
,,,,,,,,,,,,,,,,,,,,5,5.93200016,5,0.839000225,1,0,1200,685,1,1199,makeup,11123,2019-10-22_23h22.11.060,SurveyExpMetaMem,3.2.3,Win32,60
,,,,,,,,,,,,,,,,,,,,7,2.500999928,6,6.28000021,1,0,1200,516,1,1199,smug,11123,2019-10-22_23h22.11.060,SurveyExpMetaMem,3.2.3,Win32,60
,,,,,,,,,,,,,,,,,,,,8,3.64199996,8,3.717999935,1,0,1200,237,1,1199,beautiful,11123,2019-10-22_23h22.11.060,SurveyExpMetaMem,3.2.3,Win32,60
,,,,,,,,,,,,,,,,,,,,7,5.502999783,1,1.743000031,1,0,1200,969,1,1199,whore,11123,2019-10-22_23h22.11.060,SurveyExpMetaMem,3.2.3,Win32,60
,,,,,,,,,,,,,,,,,,,,9,2.343000174,8,1.736000061,1,0,1200,215,1,1199,salary,11123,2019-10-22_23h22.11.060,SurveyExpMetaMem,3.2.3,Win32,60
,,,,,,,,,,,,,,,,,,,,9,2.709000111,9,0.74000001,1,0,1200,194,1,1199,celebration,11123,2019-10-22_23h22.11.060,SurveyExpMetaMem,3.2.3,Win32,60
,,,,,,,,,,,,,,,,,,,,7,2.549000025,5,1.802999973,1,0,1200,718,1,1199,flow,11123,2019-10-22_23h22.11.060,SurveyExpMetaMem,3.2.3,Win32,60
,,,,,,,,,,,,,,,,,,,,5,5.515000105,7,2.453000069,1,0,1200,744,1,1199,village,11123,2019-10-22_23h22.11.060,SurveyExpMetaMem,3.2.3,Win32,60
,,,,,,,,,,,,,,,,,,,,8,5.19900012,8,1.579999924,1,0,1200,202,1,1199,mercy,11123,2019-10-22_23h22.11.060,SurveyExpMetaMem,3.2.3,Win32,60
,,,,,,,,,,,,,,,,,,,,6,6.385999918,5,1.921000004,1,0,1200,489,1,1199,timid,11123,2019-10-22_23h22.11.060,SurveyExpMetaMem,3.2.3,Win32,60
,,,,,,,,,,,,,,,,,,,,4,2.832999945,5,3.030999899,1,0,1200,279,1,1199,bargain,11123,2019-10-22_23h22.11.060,SurveyExpMetaMem,3.2.3,Win32,60
,,,,,,,,,,,,,,,,,,,,7,4.504999876,5,2.414000034,1,0,1200,1193,1,1199,damn,11123,2019-10-22_23h22.11.060,SurveyExpMetaMem,3.2.3,Win32,60
,,,,,,,,,,,,,,,,,,,,7,6.851999998,7,1.576999903,1,0,1200,784,1,1199,logical,11123,2019-10-22_23h22.11.060,SurveyExpMetaMem,3.2.3,Win32,60
,,,,,,,,,,,,,,,,,,,,5,1.844000101,5,0.763000011,1,0,1200,529,1,1199,small,11123,2019-10-22_23h22.11.060,SurveyExpMetaMem,3.2.3,Win32,60
,,,,,,,,,,,,,,,,,,,,6,4.560000181,2,1.010999918,1,0,1200,923,1,1199,punish,11123,2019-10-22_23h22.11.060,SurveyExpMetaMem,3.2.3,Win32,60
,,,,,,,,,,,,,,,,,,,,8,2.970000029,7,1.805000067,1,0,1200,155,1,1199,ignite,11123,2019-10-22_23h22.11.060,SurveyExpMetaMem,3.2.3,Win32,60
,,,,,,,,,,,,,,,,,,,,9,3.583999872,9,3.996000051,1,0,1200,98,1,1199,affection,11123,2019-10-22_23h22.11.060,SurveyExpMetaMem,3.2.3,Win32,60
,,,,,,,,,,,,,,,,,,,,5,2.567000151,5,0.303000212,1,0,1200,565,1,1199,frozen,11123,2019-10-22_23h22.11.060,SurveyExpMetaMem,3.2.3,Win32,60
,,,,,,,,,,,,,,,,,,,,5,5.5,5,0.572000027,1,0,1200,390,1,1199,impair,11123,2019-10-22_23h22.11.060,SurveyExpMetaMem,3.2.3,Win32,60
,,,,,,,,,,,,,,,,,,,,9,2.187999964,9,0.887000084,1,0,1200,752,1,1199,milk,11123,2019-10-22_23h22.11.060,SurveyExpMetaMem,3.2.3,Win32,60
,,,,,,,,,,,,,,,,,,,,5,4.191999912,2,1.644000053,1,0,1200,959,1,1199,divorce,11123,2019-10-22_23h22.11.060,SurveyExpMetaMem,3.2.3,Win32,60
,,,,,,,,,,,,,,,,,,,,2,7.777000189,5,4.457000017,1,0,1200,145,1,1199,me,11123,2019-10-22_23h22.11.060,SurveyExpMetaMem,3.2.3,Win32,60
,,,,,,,,,,,,,,,,,,,,1,7.255000114,7,5.201999903,1,0,1200,829,1,1199,innocent,11123,2019-10-22_23h22.11.060,SurveyExpMetaMem,3.2.3,Win32,60
,,,,,,,,,,,,,,,,,,,,9,11.20200014,9,1.485999823,1,0,1200,293,1,1199,succeed,11123,2019-10-22_23h22.11.060,SurveyExpMetaMem,3.2.3,Win32,60
,,,,,,,,,,,,,,,,,,,,7,3.19299984,6,1.621000051,1,0,1200,1027,1,1199,criticism,11123,2019-10-22_23h22.11.060,SurveyExpMetaMem,3.2.3,Win32,60
,,,,,,,,,,,,,,,,,,,,5,2.298000097,5,0.387000084,1,0,1200,67,1,1199,penthouse,11123,2019-10-22_23h22.11.060,SurveyExpMetaMem,3.2.3,Win32,60
,,,,,,,,,,,,,,,,,,,,5,3.328999996,8,1.237999916,1,0,1200,732,1,1199,humble,11123,2019-10-22_23h22.11.060,SurveyExpMetaMem,3.2.3,Win32,60
,,,,,,,,,,,,,,,,,,,,9,1.792000055,9,0.437999964,1,0,1200,90,1,1199,satisfaction,11123,2019-10-22_23h22.11.060,SurveyExpMetaMem,3.2.3,Win32,60
,,,,,,,,,,,,,,,,,,,,8,6.234000206,3,1.824999809,1,0,1200,966,1,1199,regretful,11123,2019-10-22_23h22.11.060,SurveyExpMetaMem,3.2.3,Win32,60
,,,,,,,,,,,,,,,,,,,,5,8.549000025,5,0.227999926,1,0,1200,798,1,1199,crystal,11123,2019-10-22_23h22.11.060,SurveyExpMetaMem,3.2.3,Win32,60
,,,,,,,,,,,,,,,,,,,,9,2.601999998,9,0.789000034,1,0,1200,114,1,1199,raise,11123,2019-10-22_23h22.11.060,SurveyExpMetaMem,3.2.3,Win32,60
,,,,,,,,,,,,,,,,,,,,5,9.667000055,5,0.619999886,1,0,1200,342,1,1199,alienation,11123,2019-10-22_23h22.11.060,SurveyExpMetaMem,3.2.3,Win32,60
,,,,,,,,,,,,,,,,,,,,7,7.187999964,3,2.386000156,1,0,1200,500,1,1199,nosey,11123,2019-10-22_23h22.11.060,SurveyExpMetaMem,3.2.3,Win32,60
,,,,,,,,,,,,,,,,,,,,7,3.871999979,2,0.552999973,1,0,1200,1191,1,1199,evade,11123,2019-10-22_23h22.11.060,SurveyExpMetaMem,3.2.3,Win32,60
,,,,,,,,,,,,,,,,,,,,1,61.22800016,9,1.535000086,1,0,1200,866,1,1199,haven,11123,2019-10-22_23h22.11.060,SurveyExpMetaMem,3.2.3,Win32,60
,,,,,,,,,,,,,,,,,,,,3,7.152000189,8,1.49000001,1,0,1200,77,1,1199,adore,11123,2019-10-22_23h22.11.060,SurveyExpMetaMem,3.2.3,Win32,60
,,,,,,,,,,,,,,,,,,,,6,3.700999975,5,1.703000069,1,0,1200,1152,1,1199,scream,11123,2019-10-22_23h22.11.060,SurveyExpMetaMem,3.2.3,Win32,60
,,,,,,,,,,,,,,,,,,,,8,4.065999985,2,1.32400012,1,0,1200,1095,1,1199,fright,11123,2019-10-22_23h22.11.060,SurveyExpMetaMem,3.2.3,Win32,60
,,,,,,,,,,,,,,,,,,,,6,5.394999981,1,0.328000069,1,0,1200,1175,1,1199,prostitute,11123,2019-10-22_23h22.11.060,SurveyExpMetaMem,3.2.3,Win32,60
,,,,,,,,,,,,,,,,,,,,3,6.870000124,3,1.377000093,1,0,1200,392,1,1199,moody,11123,2019-10-22_23h22.11.060,SurveyExpMetaMem,3.2.3,Win32,60
,,,,,,,,,,,,,,,,,,,,5,1.917000055,5,1.269000053,1,0,1200,259,1,1199,thin,11123,2019-10-22_23h22.11.060,SurveyExpMetaMem,3.2.3,Win32,60
,,,,,,,,,,,,,,,,,,,,6,3.743000031,4,3.871000051,1,0,1200,1000,1,1199,threat,11123,2019-10-22_23h22.11.060,SurveyExpMetaMem,3.2.3,Win32,60
,,,,,,,,,,,,,,,,,,,,5,7.896000147,8,0.85800004,1,0,1200,864,1,1199,blanket,11123,2019-10-22_23h22.11.060,SurveyExpMetaMem,3.2.3,Win32,60
,,,,,,,,,,,,,,,,,,,,7,18.0480001,1,3.843999863,1,0,1200,978,1,1199,starving,11123,2019-10-22_23h22.11.060,SurveyExpMetaMem,3.2.3,Win32,60
,,,,,,,,,,,,,,,,,,,,4,6.263999939,1,0.377000093,1,0,1200,315,1,1199,zit,11123,2019-10-22_23h22.11.060,SurveyExpMetaMem,3.2.3,Win32,60
,,,,,,,,,,,,,,,,,,,,5,3.115999937,5,0.585999966,1,0,1200,409,1,1199,old,11123,2019-10-22_23h22.11.060,SurveyExpMetaMem,3.2.3,Win32,60
,,,,,,,,,,,,,,,,,,,,6,3.621999979,8,0.38499999,1,0,1200,182,1,1199,genius,11123,2019-10-22_23h22.11.060,SurveyExpMetaMem,3.2.3,Win32,60
,,,,,,,,,,,,,,,,,,,,2,5.292999983,4,2.691999912,1,0,1200,386,1,1199,pale,11123,2019-10-22_23h22.11.060,SurveyExpMetaMem,3.2.3,Win32,60
,,,,,,,,,,,,,,,,,,,,5,9.304000139,3,1.84800005,1,0,1200,952,1,1199,troubled,11123,2019-10-22_23h22.11.060,SurveyExpMetaMem,3.2.3,Win32,60
,,,,,,,,,,,,,,,,,,,,7,3.257999897,9,3.928999901,1,0,1200,93,1,1199,smiling,11123,2019-10-22_23h22.11.060,SurveyExpMetaMem,3.2.3,Win32,60
,,,,,,,,,,,,,,,,,,,,8,4.955000162,5,2.415999889,1,0,1200,1053,1,1199,surgery,11123,2019-10-22_23h22.11.060,SurveyExpMetaMem,3.2.3,Win32,60
,,,,,,,,,,,,,,,,,,,,7,3.917000055,9,1.190999985,1,0,1200,97,1,1199,enthusiastic,11123,2019-10-22_23h22.11.060,SurveyExpMetaMem,3.2.3,Win32,60
,,,,,,,,,,,,,,,,,,,,1,4.055999994,9,1.503999949,1,0,1200,870,1,1199,safe,11123,2019-10-22_23h22.11.060,SurveyExpMetaMem,3.2.3,Win32,60
,,,,,,,,,,,,,,,,,,,,5,3.002000093,5,0.744999886,1,0,1200,597,1,1199,drool,11123,2019-10-22_23h22.11.060,SurveyExpMetaMem,3.2.3,Win32,60
,,,,,,,,,,,,,,,,,,,,5,5.002000093,5,0.878000021,1,0,1200,850,1,1199,lake,11123,2019-10-22_23h22.11.060,SurveyExpMetaMem,3.2.3,Win32,60
,,,,,,,,,,,,,,,,,,,,8,6.455000162,1,0.486000061,1,0,1200,1130,1,1199,slut,11123,2019-10-22_23h22.11.060,SurveyExpMetaMem,3.2.3,Win32,60
,,,,,,,,,,,,,,,,,,,,5,3.611000061,5,1.434000015,1,0,1200,1158,1,1199,dentist,11123,2019-10-22_23h22.11.060,SurveyExpMetaMem,3.2.3,Win32,60
,,,,,,,,,,,,,,,,,,,,3,9.652999878,3,0.763999939,1,0,1200,125,1,1199,dancing,11123,2019-10-22_23h22.11.060,SurveyExpMetaMem,3.2.3,Win32,60
,,,,,,,,,,,,,,,,,,,,5,3.786000013,3,1.690000057,1,0,1200,380,1,1199,expire,11123,2019-10-22_23h22.11.060,SurveyExpMetaMem,3.2.3,Win32,60
,,,,,,,,,,,,,,,,,,,,6,7.542000055,8,0.493000031,1,0,1200,266,1,1199,juice,11123,2019-10-22_23h22.11.060,SurveyExpMetaMem,3.2.3,Win32,60
,,,,,,,,,,,,,,,,,,,,3,29.37299991,3,2.975000143,1,0,1200,365,1,1199,discouraged,11123,2019-10-22_23h22.11.060,SurveyExpMetaMem,3.2.3,Win32,60
,,,,,,,,,,,,,,,,,,,,5,4.383000135,4,12.59100008,1,0,1200,415,1,1199,grime,11123,2019-10-22_23h22.11.060,SurveyExpMetaMem,3.2.3,Win32,60
,,,,,,,,,,,,,,,,,,,,7,3.402000189,2,1.753999949,1,0,1200,972,1,1199,homicide,11123,2019-10-22_23h22.11.060,SurveyExpMetaMem,3.2.3,Win32,60
,,,,,,,,,,,,,,,,,,,,5,3.651000023,8,0.437000036,1,0,1200,203,1,1199,seal,11123,2019-10-22_23h22.11.060,SurveyExpMetaMem,3.2.3,Win32,60
,,,,,,,,,,,,,,,,,,,,5,1.904999971,5,0.758000135,1,0,1200,3,1,1199,nudist,11123,2019-10-22_23h22.11.060,SurveyExpMetaMem,3.2.3,Win32,60
,,,,,,,,,,,,,,,,,,,,5,4.105000019,3,1.355999947,1,0,1200,996,1,1199,sting,11123,2019-10-22_23h22.11.060,SurveyExpMetaMem,3.2.3,Win32,60
,,,,,,,,,,,,,,,,,,,,5,2.315999985,5,0.413999796,1,0,1200,603,1,1199,mane,11123,2019-10-22_23h22.11.060,SurveyExpMetaMem,3.2.3,Win32,60
,,,,,,,,,,,,,,,,,,,,6,15.07200003,3,1.789999962,1,0,1200,470,1,1199,cynical,11123,2019-10-22_23h22.11.060,SurveyExpMetaMem,3.2.3,Win32,60
,,,,,,,,,,,,,,,,,,,,7,4.204999924,6,3.936000109,1,0,1200,1192,1,1199,startled,11123,2019-10-22_23h22.11.060,SurveyExpMetaMem,3.2.3,Win32,60
,,,,,,,,,,,,,,,,,,,,5,2.460000038,5,0.789000034,1,0,1200,61,1,1199,zoom,11123,2019-10-22_23h22.11.060,SurveyExpMetaMem,3.2.3,Win32,60
,,,,,,,,,,,,,,,,,,,,5,2.372000217,9,0.375,1,0,1200,287,1,1199,optimistic,11123,2019-10-22_23h22.11.060,SurveyExpMetaMem,3.2.3,Win32,60
,,,,,,,,,,,,,,,,,,,,5,3.25999999,4,4.105000019,1,0,1200,1142,1,1199,disturb,11123,2019-10-22_23h22.11.060,SurveyExpMetaMem,3.2.3,Win32,60
,,,,,,,,,,,,,,,,,,,,3,4.84800005,1,2.328999996,1,0,1200,908,1,1199,suffer,11123,2019-10-22_23h22.11.060,SurveyExpMetaMem,3.2.3,Win32,60
,,,,,,,,,,,,,,,,,,,,5,8.166000128,5,0.516000032,1,0,1200,593,1,1199,errand,11123,2019-10-22_23h22.11.060,SurveyExpMetaMem,3.2.3,Win32,60
,,,,,,,,,,,,,,,,,,,,8,3.78399992,8,1.154000044,1,0,1200,130,1,1199,great,11123,2019-10-22_23h22.11.060,SurveyExpMetaMem,3.2.3,Win32,60
,,,,,,,,,,,,,,,,,,,,5,8.334000111,7,2.17599988,1,0,1200,555,1,1199,school,11123,2019-10-22_23h22.11.060,SurveyExpMetaMem,3.2.3,Win32,60
,,,,,,,,,,,,,,,,,,,,5,3.131999969,5,0.40199995,1,0,1200,556,1,1199,allege,11123,2019-10-22_23h22.11.060,SurveyExpMetaMem,3.2.3,Win32,60
,,,,,,,,,,,,,,,,,,,,5,1.268000126,5,0.717000008,1,0,1200,102,1,1199,motorcycle,11123,2019-10-22_23h22.11.060,SurveyExpMetaMem,3.2.3,Win32,60
,,,,,,,,,,,,,,,,,,,,5,3.967000008,7,0.694000006,1,0,1200,262,1,1199,athletics,11123,2019-10-22_23h22.11.060,SurveyExpMetaMem,3.2.3,Win32,60
,,,,,,,,,,,,,,,,,,,,1,4.984000206,5,5.076999903,1,0,1200,534,1,1199,rules,11123,2019-10-22_23h22.11.060,SurveyExpMetaMem,3.2.3,Win32,60
,,,,,,,,,,,,,,,,,,,,6,5.527000189,3,3.244000196,1,0,1200,469,1,1199,resent,11123,2019-10-22_23h22.11.060,SurveyExpMetaMem,3.2.3,Win32,60
,,,,,,,,,,,,,,,,,,,,7,4.09800005,9,1.802999973,1,0,1200,764,1,1199,coin,11123,2019-10-22_23h22.11.060,SurveyExpMetaMem,3.2.3,Win32,60
,,,,,,,,,,,,,,,,,,,,5,6.523999929,3,1.238999844,1,0,1200,1043,1,1199,scold,11123,2019-10-22_23h22.11.060,SurveyExpMetaMem,3.2.3,Win32,60
,,,,,,,,,,,,,,,,,,,,5,3.849999905,5,0.779000044,1,0,1200,619,1,1199,pulpit,11123,2019-10-22_23h22.11.060,SurveyExpMetaMem,3.2.3,Win32,60
,,,,,,,,,,,,,,,,,,,,3,14.09899998,1,1.085999966,1,0,1200,1131,1,1199,envious,11123,2019-10-22_23h22.11.060,SurveyExpMetaMem,3.2.3,Win32,60
,,,,,,,,,,,,,,,,,,,,5,2.322999954,5,0.758000135,1,0,1200,706,1,1199,cat,11123,2019-10-22_23h22.11.060,SurveyExpMetaMem,3.2.3,Win32,60
,,,,,,,,,,,,,,,,,,,,5,3.92200017,5,0.387000084,1,0,1200,223,1,1199,fashion,11123,2019-10-22_23h22.11.060,SurveyExpMetaMem,3.2.3,Win32,60
,,,,,,,,,,,,,,,,,,,,5,1.212000132,5,0.575999975,1,0,1200,586,1,1199,cab,11123,2019-10-22_23h22.11.060,SurveyExpMetaMem,3.2.3,Win32,60
,,,,,,,,,,,,,,,,,,,,7,5.069999933,5,1.555999994,1,0,1200,60,1,1199,bikini,11123,2019-10-22_23h22.11.060,SurveyExpMetaMem,3.2.3,Win32,60
,,,,,,,,,,,,,,,,,,,,3,5.128000021,4,1.825000048,1,0,1200,408,1,1199,bore,11123,2019-10-22_23h22.11.060,SurveyExpMetaMem,3.2.3,Win32,60
,,,,,,,,,,,,,,,,,,,,5,3.947999954,5,1.312000036,1,0,1200,398,1,1199,handicapped,11123,2019-10-22_23h22.11.060,SurveyExpMetaMem,3.2.3,Win32,60
,,,,,,,,,,,,,,,,,,,,8,5.092999935,9,0.707000017,1,0,1200,147,1,1199,cure,11123,2019-10-22_23h22.11.060,SurveyExpMetaMem,3.2.3,Win32,60
,,,,,,,,,,,,,,,,,,,,5,5.993999958,2,1.503000021,1,0,1200,1166,1,1199,compulsive,11123,2019-10-22_23h22.11.060,SurveyExpMetaMem,3.2.3,Win32,60
,,,,,,,,,,,,,,,,,,,,5,5.714999914,5,1.631999969,1,0,1200,566,1,1199,obscure,11123,2019-10-22_23h22.11.060,SurveyExpMetaMem,3.2.3,Win32,60
,,,,,,,,,,,,,,,,,,,,5,1.912000179,5,0.236000061,1,0,1200,739,1,1199,seagull,11123,2019-10-22_23h22.11.060,SurveyExpMetaMem,3.2.3,Win32,60
,,,,,,,,,,,,,,,,,,,,6,12.16900015,7,0.981000185,1,0,1200,92,1,1199,justice,11123,2019-10-22_23h22.11.060,SurveyExpMetaMem,3.2.3,Win32,60
,,,,,,,,,,,,,,,,,,,,5,4.001000166,5,2.697999954,1,0,1200,501,1,1199,dustpan,11123,2019-10-22_23h22.11.060,SurveyExpMetaMem,3.2.3,Win32,60
,,,,,,,,,,,,,,,,,,,,7,2.532999992,3,2.15199995,1,0,1200,982,1,1199,robbery,11123,2019-10-22_23h22.11.060,SurveyExpMetaMem,3.2.3,Win32,60
,,,,,,,,,,,,,,,,,,,,7,2.889000177,2,1.109000206,1,0,1200,1139,1,1199,scare,11123,2019-10-22_23h22.11.060,SurveyExpMetaMem,3.2.3,Win32,60
,,,,,,,,,,,,,,,,,,,,5,1.981999874,5,0.40199995,1,0,1200,809,1,1199,boy,11123,2019-10-22_23h22.11.060,SurveyExpMetaMem,3.2.3,Win32,60
,,,,,,,,,,,,,,,,,,,,8,3.15899992,9,0.322999954,1,0,1200,68,1,1199,perfect,11123,2019-10-22_23h22.11.060,SurveyExpMetaMem,3.2.3,Win32,60
,,,,,,,,,,,,,,,,,,,,5,4.068000078,5,0.322000027,1,0,1200,868,1,1199,grace,11123,2019-10-22_23h22.11.060,SurveyExpMetaMem,3.2.3,Win32,60
,,,,,,,,,,,,,,,,,,,,5,3.493000031,5,0.434999943,1,0,1200,1181,1,1199,blade,11123,2019-10-22_23h22.11.060,SurveyExpMetaMem,3.2.3,Win32,60
,,,,,,,,,,,,,,,,,,,,7,4.661999941,9,0.902999878,1,0,1200,281,1,1199,summer,11123,2019-10-22_23h22.11.060,SurveyExpMetaMem,3.2.3,Win32,60
,,,,,,,,,,,,,,,,,,,,5,2.128999949,5,0.883000135,1,0,1200,18,1,1199,mail,11123,2019-10-22_23h22.11.060,SurveyExpMetaMem,3.2.3,Win32,60
,,,,,,,,,,,,,,,,,,,,5,7.342999935,5,0.587000132,1,0,1200,572,1,1199,cast,11123,2019-10-22_23h22.11.060,SurveyExpMetaMem,3.2.3,Win32,60
,,,,,,,,,,,,,,,,,,,,5,1.771000147,5,0.34100008,1,0,1200,861,1,1199,nectar,11123,2019-10-22_23h22.11.060,SurveyExpMetaMem,3.2.3,Win32,60
,,,,,,,,,,,,,,,,,,,,7,1.902999878,3,0.851000071,1,0,1200,1020,1,1199,malice,11123,2019-10-22_23h22.11.060,SurveyExpMetaMem,3.2.3,Win32,60
,,,,,,,,,,,,,,,,,,,,8,2.241000175,9,0.404000044,1,0,1200,218,1,1199,charming,11123,2019-10-22_23h22.11.060,SurveyExpMetaMem,3.2.3,Win32,60
,,,,,,,,,,,,,,,,,,,,6,2.985000134,6,0.963000059,1,0,1200,72,1,1199,attract,11123,2019-10-22_23h22.11.060,SurveyExpMetaMem,3.2.3,Win32,60
,,,,,,,,,,,,,,,,,,,,6,2.167999983,3,1.063999891,1,0,1200,1001,1,1199,rude,11123,2019-10-22_23h22.11.060,SurveyExpMetaMem,3.2.3,Win32,60
,,,,,,,,,,,,,,,,,,,,5,2.007999897,5,0.756000042,1,0,1200,56,1,1199,spice,11123,2019-10-22_23h22.11.060,SurveyExpMetaMem,3.2.3,Win32,60
,,,,,,,,,,,,,,,,,,,,2,2.90500021,5,1.722000122,1,0,1200,548,1,1199,vague,11123,2019-10-22_23h22.11.060,SurveyExpMetaMem,3.2.3,Win32,60
,,,,,,,,,,,,,,,,,,,,5,1.714999914,5,0.437999964,1,0,1200,504,1,1199,cane,11123,2019-10-22_23h22.11.060,SurveyExpMetaMem,3.2.3,Win32,60
,,,,,,,,,,,,,,,,,,,,8,2.131000042,3,2.362999916,1,0,1200,973,1,1199,anger,11123,2019-10-22_23h22.11.060,SurveyExpMetaMem,3.2.3,Win32,60
,,,,,,,,,,,,,,,,,,,,9,3.495999813,9,0.271000147,1,0,1200,196,1,1199,smile,11123,2019-10-22_23h22.11.060,SurveyExpMetaMem,3.2.3,Win32,60
,,,,,,,,,,,,,,,,,,,,8,4.542999983,2,0.68900013,1,0,1200,905,1,1199,suffocate,11123,2019-10-22_23h22.11.060,SurveyExpMetaMem,3.2.3,Win32,60
,,,,,,,,,,,,,,,,,,,,5,2.366000175,5,0.443000078,1,0,1200,8,1,1199,extreme,11123,2019-10-22_23h22.11.060,SurveyExpMetaMem,3.2.3,Win32,60
,,,,,,,,,,,,,,,,,,,,5,4.753000021,5,0.381000042,1,0,1200,666,1,1199,verify,11123,2019-10-22_23h22.11.060,SurveyExpMetaMem,3.2.3,Win32,60
,,,,,,,,,,,,,,,,,,,,8,1.960000038,1,0.572999954,1,0,1200,929,1,1199,mutilation,11123,2019-10-22_23h22.11.060,SurveyExpMetaMem,3.2.3,Win32,60
,,,,,,,,,,,,,,,,,,,,7,3.792000055,3,0.789000034,1,0,1200,1165,1,1199,revolt,11123,2019-10-22_23h22.11.060,SurveyExpMetaMem,3.2.3,Win32,60
,,,,,,,,,,,,,,,,,,,,5,1.516000032,5,0.407000065,1,0,1200,567,1,1199,folly,11123,2019-10-22_23h22.11.060,SurveyExpMetaMem,3.2.3,Win32,60
,,,,,,,,,,,,,,,,,,,,5,8.251000166,5,1.538000107,1,0,1200,133,1,1199,prosperous,11123,2019-10-22_23h22.11.060,SurveyExpMetaMem,3.2.3,Win32,60
,,,,,,,,,,,,,,,,,,,,5,1.213000059,5,0.357000113,1,0,1200,1155,1,1199,tangle,11123,2019-10-22_23h22.11.060,SurveyExpMetaMem,3.2.3,Win32,60
,,,,,,,,,,,,,,,,,,,,6,2.815999985,5,0.427999973,1,0,1200,127,1,1199,glamorous,11123,2019-10-22_23h22.11.060,SurveyExpMetaMem,3.2.3,Win32,60
,,,,,,,,,,,,,,,,,,,,5,1.373999834,5,0.352999926,1,0,1200,625,1,1199,hat,11123,2019-10-22_23h22.11.060,SurveyExpMetaMem,3.2.3,Win32,60
,,,,,,,,,,,,,,,,,,,,6,4.075000048,3,0.694000006,1,0,1200,1078,1,1199,trouble,11123,2019-10-22_23h22.11.060,SurveyExpMetaMem,3.2.3,Win32,60
,,,,,,,,,,,,,,,,,,,,5,1.434000015,5,0.407999992,1,0,1200,799,1,1199,precise,11123,2019-10-22_23h22.11.060,SurveyExpMetaMem,3.2.3,Win32,60
,,,,,,,,,,,,,,,,,,,,5,3.390000105,5,0.396000147,1,0,1200,1168,1,1199,financial,11123,2019-10-22_23h22.11.060,SurveyExpMetaMem,3.2.3,Win32,60
,,,,,,,,,,,,,,,,,,,,5,3.984000206,5,0.623000145,1,0,1200,582,1,1199,cling,11123,2019-10-22_23h22.11.060,SurveyExpMetaMem,3.2.3,Win32,60
,,,,,,,,,,,,,,,,,,,,7,2.613999844,7,0.557999849,1,0,1200,577,1,1199,retreat,11123,2019-10-22_23h22.11.060,SurveyExpMetaMem,3.2.3,Win32,60
,,,,,,,,,,,,,,,,,,,,1,6.138000011,3,1.859999895,1,0,1200,478,1,1199,numb,11123,2019-10-22_23h22.11.060,SurveyExpMetaMem,3.2.3,Win32,60
,,,,,,,,,,,,,,,,,,,,9,18.56499982,1,0.270999908,1,0,1200,976,1,1199,tumor,11123,2019-10-22_23h22.11.060,SurveyExpMetaMem,3.2.3,Win32,60
,,,,,,,,,,,,,,,,,,,,7,2.645999908,1,0.898000002,1,0,1200,312,1,1199,stench,11123,2019-10-22_23h22.11.060,SurveyExpMetaMem,3.2.3,Win32,60
,,,,,,,,,,,,,,,,,,,,6,2.90199995,2,0.743000031,1,0,1200,1044,1,1199,lost,11123,2019-10-22_23h22.11.060,SurveyExpMetaMem,3.2.3,Win32,60
,,,,,,,,,,,,,,,,,,,,6,1.369999886,2,0.269000053,1,0,1200,997,1,1199,injury,11123,2019-10-22_23h22.11.060,SurveyExpMetaMem,3.2.3,Win32,60
,,,,,,,,,,,,,,,,,,,,5,2.238000154,4,0.780999899,1,0,1200,59,1,1199,sports,11123,2019-10-22_23h22.11.060,SurveyExpMetaMem,3.2.3,Win32,60
,,,,,,,,,,,,,,,,,,,,5,3.148000002,8,0.302000046,1,0,1200,881,1,1199,protected,11123,2019-10-22_23h22.11.060,SurveyExpMetaMem,3.2.3,Win32,60
,,,,,,,,,,,,,,,,,,,,7,3.180999994,4,1.237999916,1,0,1200,1058,1,1199,bloody,11123,2019-10-22_23h22.11.060,SurveyExpMetaMem,3.2.3,Win32,60
,,,,,,,,,,,,,,,,,,,,5,2.717000008,4,0.871000051,1,0,1200,395,1,1199,lack,11123,2019-10-22_23h22.11.060,SurveyExpMetaMem,3.2.3,Win32,60
,,,,,,,,,,,,,,,,,,,,8,7.210000038,2,1.211999893,1,0,1200,373,1,1199,ignorance,11123,2019-10-22_23h22.11.060,SurveyExpMetaMem,3.2.3,Win32,60
,,,,,,,,,,,,,,,,,,,,8,3.256999969,8,0.920000076,1,0,1200,174,1,1199,snow,11123,2019-10-22_23h22.11.060,SurveyExpMetaMem,3.2.3,Win32,60
,,,,,,,,,,,,,,,,,,,,8,1.493000031,8,0.241999865,1,0,1200,170,1,1199,entertainment,11123,2019-10-22_23h22.11.060,SurveyExpMetaMem,3.2.3,Win32,60
,,,,,,,,,,,,,,,,,,,,4,4.398999929,5,1.779000044,1,0,1200,1075,1,1199,apprehension,11123,2019-10-22_23h22.11.060,SurveyExpMetaMem,3.2.3,Win32,60
,,,,,,,,,,,,,,,,,,,,5,2.608999968,4,1.367999792,1,0,1200,1197,1,1199,command,11123,2019-10-22_23h22.11.060,SurveyExpMetaMem,3.2.3,Win32,60
,,,,,,,,,,,,,,,,,,,,5,4.052999973,5,0.325000048,1,0,1200,1195,1,1199,speech,11123,2019-10-22_23h22.11.060,SurveyExpMetaMem,3.2.3,Win32,60
,,,,,,,,,,,,,,,,,,,,5,1.48300004,5,0.328000069,1,0,1200,154,1,1199,race,11123,2019-10-22_23h22.11.060,SurveyExpMetaMem,3.2.3,Win32,60
,,,,,,,,,,,,,,,,,,,,5,2.74000001,8,0.221999884,1,0,1200,79,1,1199,dazzle,11123,2019-10-22_23h22.11.060,SurveyExpMetaMem,3.2.3,Win32,60
,,,,,,,,,,,,,,,,,,,,7,6.51699996,8,0.951999903,1,0,1200,160,1,1199,reunion,11123,2019-10-22_23h22.11.060,SurveyExpMetaMem,3.2.3,Win32,60
,,,,,,,,,,,,,,,,,,,,6,2.785000086,1,1.454999924,1,0,1200,939,1,1199,vomit,11123,2019-10-22_23h22.11.060,SurveyExpMetaMem,3.2.3,Win32,60
,,,,,,,,,,,,,,,,,,,,4,4.457000017,4,1.558000088,1,0,1200,1035,1,1199,expel,11123,2019-10-22_23h22.11.060,SurveyExpMetaMem,3.2.3,Win32,60
,,,,,,,,,,,,,,,,,,,,3,19.56699991,2,1.865999937,1,0,1200,367,1,1199,pathetic,11123,2019-10-22_23h22.11.060,SurveyExpMetaMem,3.2.3,Win32,60
,,,,,,,,,,,,,,,,,,,,5,7.621000051,5,2.846999884,1,0,1200,1082,1,1199,hazard,11123,2019-10-22_23h22.11.060,SurveyExpMetaMem,3.2.3,Win32,60
,,,,,,,,,,,,,,,,,,,,5,3.302000046,7,2.912000179,1,0,1200,800,1,1199,authentic,11123,2019-10-22_23h22.11.060,SurveyExpMetaMem,3.2.3,Win32,60
,,,,,,,,,,,,,,,,,,,,5,5.998000145,5,0.295000076,1,0,1200,824,1,1199,favor,11123,2019-10-22_23h22.11.060,SurveyExpMetaMem,3.2.3,Win32,60
,,,,,,,,,,,,,,,,,,,,3,4.218999863,3,1.110999823,1,0,1200,381,1,1199,sloppy,11123,2019-10-22_23h22.11.060,SurveyExpMetaMem,3.2.3,Win32,60
,,,,,,,,,,,,,,,,,,,,5,9.289000034,5,0.319000006,1,0,1200,129,1,1199,fly,11123,2019-10-22_23h22.11.060,SurveyExpMetaMem,3.2.3,Win32,60
,,,,,,,,,,,,,,,,,,,,5,1.321000099,5,0.906999826,1,0,1200,75,1,1199,actor,11123,2019-10-22_23h22.11.060,SurveyExpMetaMem,3.2.3,Win32,60
,,,,,,,,,,,,,,,,,,,,5,1.156000137,4,1.538000107,1,0,1200,738,1,1199,horse,11123,2019-10-22_23h22.11.060,SurveyExpMetaMem,3.2.3,Win32,60
,,,,,,,,,,,,,,,,,,,,5,6.352999926,2,0.936000109,1,0,1200,463,1,1199,limp,11123,2019-10-22_23h22.11.060,SurveyExpMetaMem,3.2.3,Win32,60
,,,,,,,,,,,,,,,,,,,,6,4.003999949,6,1.552999973,1,0,1200,670,1,1199,urinate,11123,2019-10-22_23h22.11.060,SurveyExpMetaMem,3.2.3,Win32,60
,,,,,,,,,,,,,,,,,,,,5,6.738000154,8,1.586999893,1,0,1200,83,1,1199,appreciative,11123,2019-10-22_23h22.11.060,SurveyExpMetaMem,3.2.3,Win32,60
,,,,,,,,,,,,,,,,,,,,5,1.484999895,5,0.578000069,1,0,1200,257,1,1199,cockpit,11123,2019-10-22_23h22.11.060,SurveyExpMetaMem,3.2.3,Win32,60
,,,,,,,,,,,,,,,,,,,,6,8.30099988,6,4.245000124,1,0,1200,889,1,1199,wise,11123,2019-10-22_23h22.11.060,SurveyExpMetaMem,3.2.3,Win32,60
,,,,,,,,,,,,,,,,,,,,5,1.450999975,5,0.269999981,1,0,1200,785,1,1199,pond,11123,2019-10-22_23h22.11.060,SurveyExpMetaMem,3.2.3,Win32,60
,,,,,,,,,,,,,,,,,,,,9,2.844000101,9,0.970000029,1,0,1200,248,1,1199,win,11123,2019-10-22_23h22.11.060,SurveyExpMetaMem,3.2.3,Win32,60
,,,,,,,,,,,,,,,,,,,,5,2.51699996,5,1.437000036,1,0,1200,716,1,1199,blouse,11123,2019-10-22_23h22.11.060,SurveyExpMetaMem,3.2.3,Win32,60
,,,,,,,,,,,,,,,,,,,,7,3.296000004,2,0.588999987,1,0,1200,1049,1,1199,electrocute,11123,2019-10-22_23h22.11.060,SurveyExpMetaMem,3.2.3,Win32,60
,,,,,,,,,,,,,,,,,,,,5,2.062999964,5,0.319000006,1,0,1200,611,1,1199,herring,11123,2019-10-22_23h22.11.060,SurveyExpMetaMem,3.2.3,Win32,60
,,,,,,,,,,,,,,,,,,,,7,2.682999849,3,2.023000002,1,0,1200,1048,1,1199,paranoid,11123,2019-10-22_23h22.11.060,SurveyExpMetaMem,3.2.3,Win32,60
,,,,,,,,,,,,,,,,,,,,5,2.388999939,5,0.337000132,1,0,1200,12,1,1199,mountain,11123,2019-10-22_23h22.11.060,SurveyExpMetaMem,3.2.3,Win32,60
,,,,,,,,,,,,,,,,,,,,4,6.403000116,1,0.970999956,1,0,1200,323,1,1199,ungrateful,11123,2019-10-22_23h22.11.060,SurveyExpMetaMem,3.2.3,Win32,60
,,,,,,,,,,,,,,,,,,,,5,21.30900002,5,0.917999983,1,0,1200,709,1,1199,ancestor,11123,2019-10-22_23h22.11.060,SurveyExpMetaMem,3.2.3,Win32,60
,,,,,,,,,,,,,,,,,,,,2,3.868999958,1,1.885999918,1,0,1200,350,1,1199,inadequate,11123,2019-10-22_23h22.11.060,SurveyExpMetaMem,3.2.3,Win32,60
,,,,,,,,,,,,,,,,,,,,3,5.805999994,3,1.66899991,1,0,1200,1173,1,1199,lurk,11123,2019-10-22_23h22.11.060,SurveyExpMetaMem,3.2.3,Win32,60
,,,,,,,,,,,,,,,,,,,,5,2.053999901,5,0.470000029,1,0,1200,776,1,1199,doll,11123,2019-10-22_23h22.11.060,SurveyExpMetaMem,3.2.3,Win32,60
,,,,,,,,,,,,,,,,,,,,5,3.868999958,5,0.709000111,1,0,1200,508,1,1199,haphazard,11123,2019-10-22_23h22.11.060,SurveyExpMetaMem,3.2.3,Win32,60
,,,,,,,,,,,,,,,,,,,,5,1.753999949,5,1.361000061,1,0,1200,243,1,1199,fame,11123,2019-10-22_23h22.11.060,SurveyExpMetaMem,3.2.3,Win32,60
,,,,,,,,,,,,,,,,,,,,6,3.200000048,8,1.421000004,1,0,1200,164,1,1199,marry,11123,2019-10-22_23h22.11.060,SurveyExpMetaMem,3.2.3,Win32,60
,,,,,,,,,,,,,,,,,,,,7,2.625,2,0.740999937,1,0,1200,362,1,1199,despair,11123,2019-10-22_23h22.11.060,SurveyExpMetaMem,3.2.3,Win32,60
,,,,,,,,,,,,,,,,,,,,8,2.037000179,1,0.568000078,1,0,1200,915,1,1199,abuse,11123,2019-10-22_23h22.11.060,SurveyExpMetaMem,3.2.3,Win32,60
,,,,,,,,,,,,,,,,,,,,9,1.739000082,9,0.160000086,1,0,1200,49,1,1199,ecstatic,11123,2019-10-22_23h22.11.060,SurveyExpMetaMem,3.2.3,Win32,60
,,,,,,,,,,,,,,,,,,,,5,3.621999979,5,0.796000004,1,0,1200,576,1,1199,policy,11123,2019-10-22_23h22.11.060,SurveyExpMetaMem,3.2.3,Win32,60
,,,,,,,,,,,,,,,,,,,,8,3.241999865,5,2.519999981,1,0,1200,1125,1,1199,outrage,11123,2019-10-22_23h22.11.060,SurveyExpMetaMem,3.2.3,Win32,60
,,,,,,,,,,,,,,,,,,,,6,4.735000134,6,1.842999935,1,0,1200,254,1,1199,crush,11123,2019-10-22_23h22.11.060,SurveyExpMetaMem,3.2.3,Win32,60
,,,,,,,,,,,,,,,,,,,,5,2.769999981,3,1.758000135,1,0,1200,992,1,1199,addict,11123,2019-10-22_23h22.11.060,SurveyExpMetaMem,3.2.3,Win32,60
,,,,,,,,,,,,,,,,,,,,5,1.094000101,5,0.404000044,1,0,1200,1189,1,1199,lava,11123,2019-10-22_23h22.11.060,SurveyExpMetaMem,3.2.3,Win32,60
,,,,,,,,,,,,,,,,,,,,6,5.019999981,3,1.562000036,1,0,1200,1127,1,1199,spank,11123,2019-10-22_23h22.11.060,SurveyExpMetaMem,3.2.3,Win32,60
,,,,,,,,,,,,,,,,,,,,5,2.368999958,2,0.639000177,1,0,1200,1072,1,1199,bothered,11123,2019-10-22_23h22.11.060,SurveyExpMetaMem,3.2.3,Win32,60
,,,,,,,,,,,,,,,,,,,,3,37.30699992,1,0.905999899,1,0,1200,388,1,1199,mildew,11123,2019-10-22_23h22.11.060,SurveyExpMetaMem,3.2.3,Win32,60
,,,,,,,,,,,,,,,,,,,,5,2.253000021,5,0.289000034,1,0,1200,557,1,1199,class,11123,2019-10-22_23h22.11.060,SurveyExpMetaMem,3.2.3,Win32,60
,,,,,,,,,,,,,,,,,,,,8,2.703000069,7,1.955000162,1,0,1200,101,1,1199,alien,11123,2019-10-22_23h22.11.060,SurveyExpMetaMem,3.2.3,Win32,60
,,,,,,,,,,,,,,,,,,,,5,41.73799992,3,21.16799998,1,0,1200,361,1,1199,glum,11123,2019-10-22_23h22.11.060,SurveyExpMetaMem,3.2.3,Win32,60
,,,,,,,,,,,,,,,,,,,,9,2.620000124,1,0.870999813,1,0,1200,1028,1,1199,terror,11123,2019-10-22_23h22.11.060,SurveyExpMetaMem,3.2.3,Win32,60
,,,,,,,,,,,,,,,,,,,,9,1.944999933,9,0.355000019,1,0,1200,185,1,1199,flirt,11123,2019-10-22_23h22.11.060,SurveyExpMetaMem,3.2.3,Win32,60
,,,,,,,,,,,,,,,,,,,,8,6.618999958,6,2.184999943,1,0,1200,1151,1,1199,drama,11123,2019-10-22_23h22.11.060,SurveyExpMetaMem,3.2.3,Win32,60
,,,,,,,,,,,,,,,,,,,,5,24.99000001,4,1.586999893,1,0,1200,587,1,1199,dissolve,11123,2019-10-22_23h22.11.060,SurveyExpMetaMem,3.2.3,Win32,60
,,,,,,,,,,,,,,,,,,,,5,5.288000107,3,1.005000114,1,0,1200,1077,1,1199,unsure,11123,2019-10-22_23h22.11.060,SurveyExpMetaMem,3.2.3,Win32,60
,,,,,,,,,,,,,,,,,,,,8,2.086999893,1,1.336999893,1,0,1200,1052,1,1199,angry,11123,2019-10-22_23h22.11.060,SurveyExpMetaMem,3.2.3,Win32,60
,,,,,,,,,,,,,,,,,,,,5,3.717000008,5,0.636999846,1,0,1200,819,1,1199,sheep,11123,2019-10-22_23h22.11.060,SurveyExpMetaMem,3.2.3,Win32,60
,,,,,,,,,,,,,,,,,,,,5,14.2650001,5,0.385999918,1,0,1200,754,1,1199,reflection,11123,2019-10-22_23h22.11.060,SurveyExpMetaMem,3.2.3,Win32,60
,,,,,,,,,,,,,,,,,,,,5,0.988000154,5,0.655999899,1,0,1200,630,1,1199,website,11123,2019-10-22_23h22.11.060,SurveyExpMetaMem,3.2.3,Win32,60
,,,,,,,,,,,,,,,,,,,,5,2.535000086,1,0.684999943,1,0,1200,479,1,1199,period,11123,2019-10-22_23h22.11.060,SurveyExpMetaMem,3.2.3,Win32,60
,,,,,,,,,,,,,,,,,,,,5,7.361999989,5,0.404999971,1,0,1200,697,1,1199,clarinet,11123,2019-10-22_23h22.11.060,SurveyExpMetaMem,3.2.3,Win32,60
,,,,,,,,,,,,,,,,,,,,6,2.631999969,4,1.06400013,1,0,1200,1110,1,1199,bastard,11123,2019-10-22_23h22.11.060,SurveyExpMetaMem,3.2.3,Win32,60
,,,,,,,,,,,,,,,,,,,,9,2.053999901,9,0.138000011,1,0,1200,64,1,1199,brain,11123,2019-10-22_23h22.11.060,SurveyExpMetaMem,3.2.3,Win32,60
,,,,,,,,,,,,,,,,,,,,5,5.138999939,8,1.052999973,1,0,1200,858,1,1199,donate,11123,2019-10-22_23h22.11.060,SurveyExpMetaMem,3.2.3,Win32,60
,,,,,,,,,,,,,,,,,,,,7,3.559999943,7,1.187000036,1,0,1200,122,1,1199,prince,11123,2019-10-22_23h22.11.060,SurveyExpMetaMem,3.2.3,Win32,60
,,,,,,,,,,,,,,,,,,,,5,3.282999992,8,0.963999987,1,0,1200,274,1,1199,song,11123,2019-10-22_23h22.11.060,SurveyExpMetaMem,3.2.3,Win32,60
,,,,,,,,,,,,,,,,,,,,5,2.738000154,7,1.809000015,1,0,1200,733,1,1199,poetry,11123,2019-10-22_23h22.11.060,SurveyExpMetaMem,3.2.3,Win32,60
,,,,,,,,,,,,,,,,,,,,2,18.9150002,3,1.742000103,1,0,1200,563,1,1199,stupor,11123,2019-10-22_23h22.11.060,SurveyExpMetaMem,3.2.3,Win32,60
,,,,,,,,,,,,,,,,,,,,6,3.368000031,8,1.122999907,1,0,1200,96,1,1199,joke,11123,2019-10-22_23h22.11.060,SurveyExpMetaMem,3.2.3,Win32,60
,,,,,,,,,,,,,,,,,,,,4,3.259000063,2,1.02699995,1,0,1200,985,1,1199,pollution,11123,2019-10-22_23h22.11.060,SurveyExpMetaMem,3.2.3,Win32,60
,,,,,,,,,,,,,,,,,,,,5,2.437999964,5,0.255000114,1,0,1200,669,1,1199,plaza,11123,2019-10-22_23h22.11.060,SurveyExpMetaMem,3.2.3,Win32,60
,,,,,,,,,,,,,,,,,,,,4,2.65199995,3,0.71600008,1,0,1200,333,1,1199,weak,11123,2019-10-22_23h22.11.060,SurveyExpMetaMem,3.2.3,Win32,60
,,,,,,,,,,,,,,,,,,,,7,4.147000074,7,0.857000113,1,0,1200,788,1,1199,cook,11123,2019-10-22_23h22.11.060,SurveyExpMetaMem,3.2.3,Win32,60
,,,,,,,,,,,,,,,,,,,,7,2.518000126,9,0.47300005,1,0,1200,775,1,1199,pancakes,11123,2019-10-22_23h22.11.060,SurveyExpMetaMem,3.2.3,Win32,60
,,,,,,,,,,,,,,,,,,,,5,3.095000029,5,0.428999901,1,0,1200,609,1,1199,candlestick,11123,2019-10-22_23h22.11.060,SurveyExpMetaMem,3.2.3,Win32,60
,,,,,,,,,,,,,,,,,,,,2,2.99000001,5,1.404000044,1,0,1200,628,1,1199,chess,11123,2019-10-22_23h22.11.060,SurveyExpMetaMem,3.2.3,Win32,60
,,,,,,,,,,,,,,,,,,,,5,3.970000029,1,0.614000082,1,0,1200,300,1,1199,unhappy,11123,2019-10-22_23h22.11.060,SurveyExpMetaMem,3.2.3,Win32,60
,,,,,,,,,,,,,,,,,,,,5,3.429999828,6,0.337000132,1,0,1200,550,1,1199,fart,11123,2019-10-22_23h22.11.060,SurveyExpMetaMem,3.2.3,Win32,60
,,,,,,,,,,,,,,,,,,,,5,8.679000139,6,1.510000229,1,0,1200,103,1,1199,conquest,11123,2019-10-22_23h22.11.060,SurveyExpMetaMem,3.2.3,Win32,60
,,,,,,,,,,,,,,,,,,,,1,6.705000162,8,2.141000032,1,0,1200,813,1,1199,walking,11123,2019-10-22_23h22.11.060,SurveyExpMetaMem,3.2.3,Win32,60
,,,,,,,,,,,,,,,,,,,,4,7.140999794,2,0.785000086,1,0,1200,967,1,1199,horrible,11123,2019-10-22_23h22.11.060,SurveyExpMetaMem,3.2.3,Win32,60
,,,,,,,,,,,,,,,,,,,,5,6.099000216,6,0.97300005,1,0,1200,823,1,1199,nourish,11123,2019-10-22_23h22.11.060,SurveyExpMetaMem,3.2.3,Win32,60
,,,,,,,,,,,,,,,,,,,,4,3.15899992,1,0.352999926,1,0,1200,313,1,1199,rotten,11123,2019-10-22_23h22.11.060,SurveyExpMetaMem,3.2.3,Win32,60
,,,,,,,,,,,,,,,,,,,,5,4.807999849,6,1.621999979,1,0,1200,1163,1,1199,python,11123,2019-10-22_23h22.11.060,SurveyExpMetaMem,3.2.3,Win32,60
,,,,,,,,,,,,,,,,,,,,6,3.84100008,9,0.869999886,1,0,1200,235,1,1199,cheery,11123,2019-10-22_23h22.11.060,SurveyExpMetaMem,3.2.3,Win32,60
,,,,,,,,,,,,,,,,,,,,7,3.773999929,3,1.072000027,1,0,1200,1108,1,1199,spider,11123,2019-10-22_23h22.11.060,SurveyExpMetaMem,3.2.3,Win32,60
,,,,,,,,,,,,,,,,,,,,7,2.75999999,2,1.137000084,1,0,1200,1073,1,1199,bitch,11123,2019-10-22_23h22.11.060,SurveyExpMetaMem,3.2.3,Win32,60
,,,,,,,,,,,,,,,,,,,,9,4.318000078,1,0.573999882,1,0,1200,910,1,1199,abusive,11123,2019-10-22_23h22.11.060,SurveyExpMetaMem,3.2.3,Win32,60
,,,,,,,,,,,,,,,,,,,,8,2.763999939,2,0.645999908,1,0,1200,1029,1,1199,abduction,11123,2019-10-22_23h22.11.060,SurveyExpMetaMem,3.2.3,Win32,60
,,,,,,,,,,,,,,,,,,,,6,4.786999941,2,0.828999996,1,0,1200,310,1,1199,lonely,11123,2019-10-22_23h22.11.060,SurveyExpMetaMem,3.2.3,Win32,60
,,,,,,,,,,,,,,,,,,,,5,4.35800004,7,2.038000107,1,0,1200,820,1,1199,oxygen,11123,2019-10-22_23h22.11.060,SurveyExpMetaMem,3.2.3,Win32,60
,,,,,,,,,,,,,,,,,,,,5,1.516000032,5,0.411999941,1,0,1200,24,1,1199,model,11123,2019-10-22_23h22.11.060,SurveyExpMetaMem,3.2.3,Win32,60
,,,,,,,,,,,,,,,,,,,,5,1.090000153,5,0.513000011,1,0,1200,879,1,1199,bird,11123,2019-10-22_23h22.11.060,SurveyExpMetaMem,3.2.3,Win32,60
,,,,,,,,,,,,,,,,,,,,6,5.524999857,8,0.402999878,1,0,1200,82,1,1199,stunning,11123,2019-10-22_23h22.11.060,SurveyExpMetaMem,3.2.3,Win32,60
,,,,,,,,,,,,,,,,,,,,5,1.374000072,5,0.40500021,1,0,1200,649,1,1199,donkey,11123,2019-10-22_23h22.11.060,SurveyExpMetaMem,3.2.3,Win32,60
,,,,,,,,,,,,,,,,,,,,5,3.072999954,8,0.898999929,1,0,1200,188,1,1199,profit,11123,2019-10-22_23h22.11.060,SurveyExpMetaMem,3.2.3,Win32,60
,,,,,,,,,,,,,,,,,,,,7,2.185000181,5,3.657999992,1,0,1200,1113,1,1199,dagger,11123,2019-10-22_23h22.11.060,SurveyExpMetaMem,3.2.3,Win32,60
,,,,,,,,,,,,,,,,,,,,4,3.046000004,2,0.342000008,1,0,1200,956,1,1199,crushed,11123,2019-10-22_23h22.11.060,SurveyExpMetaMem,3.2.3,Win32,60
,,,,,,,,,,,,,,,,,,,,5,2.950000048,5,0.66899991,1,0,1200,1133,1,1199,slip,11123,2019-10-22_23h22.11.060,SurveyExpMetaMem,3.2.3,Win32,60
,,,,,,,,,,,,,,,,,,,,5,12.37300014,5,1.072000027,1,0,1200,612,1,1199,propeller,11123,2019-10-22_23h22.11.060,SurveyExpMetaMem,3.2.3,Win32,60
,,,,,,,,,,,,,,,,,,,,5,3.673000097,2,0.65199995,1,0,1200,1006,1,1199,rash,11123,2019-10-22_23h22.11.060,SurveyExpMetaMem,3.2.3,Win32,60
,,,,,,,,,,,,,,,,,,,,5,3.085999966,6,0.528999805,1,0,1200,816,1,1199,hippotamus,11123,2019-10-22_23h22.11.060,SurveyExpMetaMem,3.2.3,Win32,60
,,,,,,,,,,,,,,,,,,,,5,4.563999891,2,0.494999886,1,0,1200,947,1,1199,shame,11123,2019-10-22_23h22.11.060,SurveyExpMetaMem,3.2.3,Win32,60
,,,,,,,,,,,,,,,,,,,,6,10.80699992,3,0.337000132,1,0,1200,410,1,1199,tarnish,11123,2019-10-22_23h22.11.060,SurveyExpMetaMem,3.2.3,Win32,60
,,,,,,,,,,,,,,,,,,,,5,1.424999952,7,1.218999863,1,0,1200,791,1,1199,shoes,11123,2019-10-22_23h22.11.060,SurveyExpMetaMem,3.2.3,Win32,60
,,,,,,,,,,,,,,,,,,,,5,6.552000046,4,0.302000046,1,0,1200,1112,1,1199,pressure,11123,2019-10-22_23h22.11.060,SurveyExpMetaMem,3.2.3,Win32,60
,,,,,,,,,,,,,,,,,,,,5,2.083999872,5,0.366999865,1,0,1200,436,1,1199,mediocre,11123,2019-10-22_23h22.11.060,SurveyExpMetaMem,3.2.3,Win32,60
,,,,,,,,,,,,,,,,,,,,5,2.058000088,2,1.141000032,1,0,1200,348,1,1199,impotent,11123,2019-10-22_23h22.11.060,SurveyExpMetaMem,3.2.3,Win32,60
,,,,,,,,,,,,,,,,,,,,2,4.654999971,5,1.453000069,1,0,1200,454,1,1199,damp,11123,2019-10-22_23h22.11.060,SurveyExpMetaMem,3.2.3,Win32,60
,,,,,,,,,,,,,,,,,,,,1,2.903000116,3,1.572000027,1,0,1200,487,1,1199,junk,11123,2019-10-22_23h22.11.060,SurveyExpMetaMem,3.2.3,Win32,60
,,,,,,,,,,,,,,,,,,,,5,2.393000126,5,0.188000202,1,0,1200,561,1,1199,plain,11123,2019-10-22_23h22.11.060,SurveyExpMetaMem,3.2.3,Win32,60
,,,,,,,,,,,,,,,,,,,,8,4.070999861,3,3.207999945,1,0,1200,935,1,1199,despise,11123,2019-10-22_23h22.11.060,SurveyExpMetaMem,3.2.3,Win32,60
,,,,,,,,,,,,,,,,,,,,6,5.404999971,6,1.029999971,1,0,1200,893,1,1199,nature,11123,2019-10-22_23h22.11.060,SurveyExpMetaMem,3.2.3,Win32,60
,,,,,,,,,,,,,,,,,,,,3,6.056999922,3,1.226000071,1,0,1200,339,1,1199,chore,11123,2019-10-22_23h22.11.060,SurveyExpMetaMem,3.2.3,Win32,60
,,,,,,,,,,,,,,,,,,,,9,4.210999966,9,2.142999887,1,0,1200,226,1,1199,prize,11123,2019-10-22_23h22.11.060,SurveyExpMetaMem,3.2.3,Win32,60
,,,,,,,,,,,,,,,,,,,,7,16.85100007,4,1.59100008,1,0,1200,426,1,1199,con,11123,2019-10-22_23h22.11.060,SurveyExpMetaMem,3.2.3,Win32,60
,,,,,,,,,,,,,,,,,,,,5,1.733999968,5,0.304000139,1,0,1200,512,1,1199,insect,11123,2019-10-22_23h22.11.060,SurveyExpMetaMem,3.2.3,Win32,60
,,,,,,,,,,,,,,,,,,,,6,7.161000013,5,1.411000013,1,0,1200,74,1,1199,explore,11123,2019-10-22_23h22.11.060,SurveyExpMetaMem,3.2.3,Win32,60
,,,,,,,,,,,,,,,,,,,,5,3.356000185,2,1.204999924,1,0,1200,377,1,1199,complain,11123,2019-10-22_23h22.11.060,SurveyExpMetaMem,3.2.3,Win32,60
,,,,,,,,,,,,,,,,,,,,5,5,5,0.153999805,1,0,1200,527,1,1199,passive,11123,2019-10-22_23h22.11.060,SurveyExpMetaMem,3.2.3,Win32,60
,,,,,,,,,,,,,,,,,,,,5,27.20300007,5,0.694999933,1,0,1200,525,1,1199,stagnant,11123,2019-10-22_23h22.11.060,SurveyExpMetaMem,3.2.3,Win32,60
,,,,,,,,,,,,,,,,,,,,5,4.116999865,4,0.287000179,1,0,1200,481,1,1199,melancholy,11123,2019-10-22_23h22.11.060,SurveyExpMetaMem,3.2.3,Win32,60
,,,,,,,,,,,,,,,,,,,,5,14.05200005,4,1.128000021,1,0,1200,503,1,1199,sludge,11123,2019-10-22_23h22.11.060,SurveyExpMetaMem,3.2.3,Win32,60
,,,,,,,,,,,,,,,,,,,,9,3.654000044,9,0.421000004,1,0,1200,878,1,1199,sleep,11123,2019-10-22_23h22.11.060,SurveyExpMetaMem,3.2.3,Win32,60
,,,,,,,,,,,,,,,,,,,,5,4.272000074,5,0.305999994,1,0,1200,704,1,1199,flute,11123,2019-10-22_23h22.11.060,SurveyExpMetaMem,3.2.3,Win32,60
,,,,,,,,,,,,,,,,,,,,8,1.712000132,2,1.305000067,1,0,1200,1101,1,1199,scary,11123,2019-10-22_23h22.11.060,SurveyExpMetaMem,3.2.3,Win32,60
,,,,,,,,,,,,,,,,,,,,5,3.722000122,5,0.938000202,1,0,1200,763,1,1199,vegetables,11123,2019-10-22_23h22.11.060,SurveyExpMetaMem,3.2.3,Win32,60
,,,,,,,,,,,,,,,,,,,,5,2.861999989,3,1.01699996,1,0,1200,509,1,1199,ash,11123,2019-10-22_23h22.11.060,SurveyExpMetaMem,3.2.3,Win32,60
,,,,,,,,,,,,,,,,,,,,1,4.888000011,9,2.159999847,1,0,1200,899,1,1199,relax,11123,2019-10-22_23h22.11.060,SurveyExpMetaMem,3.2.3,Win32,60
,,,,,,,,,,,,,,,,,,,,5,3.811000109,5,0.434999943,1,0,1200,634,1,1199,glacier,11123,2019-10-22_23h22.11.060,SurveyExpMetaMem,3.2.3,Win32,60
,,,,,,,,,,,,,,,,,,,,7,4.088999987,1,0.886999846,1,0,1200,900,1,1199,suicide,11123,2019-10-22_23h22.11.060,SurveyExpMetaMem,3.2.3,Win32,60
,,,,,,,,,,,,,,,,,,,,7,2.937999964,1,1.226999998,1,0,1200,948,1,1199,pain,11123,2019-10-22_23h22.11.060,SurveyExpMetaMem,3.2.3,Win32,60
,,,,,,,,,,,,,,,,,,,,9,2.86500001,8,1.822000027,1,0,1200,233,1,1199,exhilaration,11123,2019-10-22_23h22.11.060,SurveyExpMetaMem,3.2.3,Win32,60
,,,,,,,,,,,,,,,,,,,,5,1.337000132,5,0.221999884,1,0,1200,579,1,1199,bus,11123,2019-10-22_23h22.11.060,SurveyExpMetaMem,3.2.3,Win32,60
,,,,,,,,,,,,,,,,,,,,5,0.957999945,5,0.242000103,1,0,1200,642,1,1199,newspaper,11123,2019-10-22_23h22.11.060,SurveyExpMetaMem,3.2.3,Win32,60
,,,,,,,,,,,,,,,,,,,,5,18.13499999,2,1.139999866,1,0,1200,366,1,1199,fatigue,11123,2019-10-22_23h22.11.060,SurveyExpMetaMem,3.2.3,Win32,60
,,,,,,,,,,,,,,,,,,,,5,1.027999878,5,0.493999958,1,0,1200,686,1,1199,phone,11123,2019-10-22_23h22.11.060,SurveyExpMetaMem,3.2.3,Win32,60
,,,,,,,,,,,,,,,,,,,,5,1.128999949,5,0.809000015,1,0,1200,219,1,1199,know,11123,2019-10-22_23h22.11.060,SurveyExpMetaMem,3.2.3,Win32,60
,,,,,,,,,,,,,,,,,,,,6,2.787999868,5,1.13499999,1,0,1200,1174,1,1199,beast,11123,2019-10-22_23h22.11.060,SurveyExpMetaMem,3.2.3,Win32,60
,,,,,,,,,,,,,,,,,,,,8,4.950000048,2,1.124000072,1,0,1200,1031,1,1199,fear,11123,2019-10-22_23h22.11.060,SurveyExpMetaMem,3.2.3,Win32,60
,,,,,,,,,,,,,,,,,,,,7,5.052999973,7,0.936000109,1,0,1200,168,1,1199,mate,11123,2019-10-22_23h22.11.060,SurveyExpMetaMem,3.2.3,Win32,60
,,,,,,,,,,,,,,,,,,,,7,11.52700019,4,1.084000111,1,0,1200,497,1,1199,pungent,11123,2019-10-22_23h22.11.060,SurveyExpMetaMem,3.2.3,Win32,60
,,,,,,,,,,,,,,,,,,,,3,5.900000095,1,0.881000042,1,0,1200,1071,1,1199,uncomfortable,11123,2019-10-22_23h22.11.060,SurveyExpMetaMem,3.2.3,Win32,60
,,,,,,,,,,,,,,,,,,,,5,2.931999922,2,1.769999981,1,0,1200,425,1,1199,crutch,11123,2019-10-22_23h22.11.060,SurveyExpMetaMem,3.2.3,Win32,60
,,,,,,,,,,,,,,,,,,,,6,2.808000088,6,0.271999836,1,0,1200,86,1,1199,talent,11123,2019-10-22_23h22.11.060,SurveyExpMetaMem,3.2.3,Win32,60
,,,,,,,,,,,,,,,,,,,,5,3.353000164,5,0.159000158,1,0,1200,781,1,1199,emerald,11123,2019-10-22_23h22.11.060,SurveyExpMetaMem,3.2.3,Win32,60
,,,,,,,,,,,,,,,,,,,,5,0.927999973,5,0.256000042,1,0,1200,107,1,1199,sandwich,11123,2019-10-22_23h22.11.060,SurveyExpMetaMem,3.2.3,Win32,60
,,,,,,,,,,,,,,,,,,,,5,7.548000097,5,0.213000059,1,0,1200,600,1,1199,parlor,11123,2019-10-22_23h22.11.060,SurveyExpMetaMem,3.2.3,Win32,60
,,,,,,,,,,,,,,,,,,,,5,10.49600005,5,0.32400012,1,0,1200,375,1,1199,manure,11123,2019-10-22_23h22.11.060,SurveyExpMetaMem,3.2.3,Win32,60
,,,,,,,,,,,,,,,,,,,,7,3.613000154,7,0.667000055,1,0,1200,16,1,1199,sing,11123,2019-10-22_23h22.11.060,SurveyExpMetaMem,3.2.3,Win32,60
,,,,,,,,,,,,,,,,,,,,7,1.676000118,9,1.236000061,1,0,1200,33,1,1199,sister,11123,2019-10-22_23h22.11.060,SurveyExpMetaMem,3.2.3,Win32,60
,,,,,,,,,,,,,,,,,,,,1,14.41700006,1,0.739000082,1,0,1200,938,1,1199,seasick,11123,2019-10-22_23h22.11.060,SurveyExpMetaMem,3.2.3,Win32,60
,,,,,,,,,,,,,,,,,,,,7,2.943000078,4,2.103000164,1,0,1200,1129,1,1199,spanking,11123,2019-10-22_23h22.11.060,SurveyExpMetaMem,3.2.3,Win32,60
,,,,,,,,,,,,,,,,,,,,4,2.820999861,1,0.435000181,1,0,1200,301,1,1199,sad,11123,2019-10-22_23h22.11.060,SurveyExpMetaMem,3.2.3,Win32,60
,,,,,,,,,,,,,,,,,,,,5,2.773000002,6,1.092999935,1,0,1200,615,1,1199,lad,11123,2019-10-22_23h22.11.060,SurveyExpMetaMem,3.2.3,Win32,60
,,,,,,,,,,,,,,,,,,,,6,4.387000084,8,0.302999973,1,0,1200,41,1,1199,progress,11123,2019-10-22_23h22.11.060,SurveyExpMetaMem,3.2.3,Win32,60
,,,,,,,,,,,,,,,,,,,,5,1.890000105,3,2.776000023,1,0,1200,442,1,1199,foolish,11123,2019-10-22_23h22.11.060,SurveyExpMetaMem,3.2.3,Win32,60
,,,,,,,,,,,,,,,,,,,,5,1.71600008,5,0.437000036,1,0,1200,808,1,1199,violinist,11123,2019-10-22_23h22.11.060,SurveyExpMetaMem,3.2.3,Win32,60
,,,,,,,,,,,,,,,,,,,,7,4.000999928,9,0.953000069,1,0,1200,173,1,1199,hope,11123,2019-10-22_23h22.11.060,SurveyExpMetaMem,3.2.3,Win32,60
,,,,,,,,,,,,,,,,,,,,5,1.365999937,5,0.633000135,1,0,1200,407,1,1199,handicap,11123,2019-10-22_23h22.11.060,SurveyExpMetaMem,3.2.3,Win32,60
,,,,,,,,,,,,,,,,,,,,5,4.853000164,5,0.322000027,1,0,1200,772,1,1199,ornament,11123,2019-10-22_23h22.11.060,SurveyExpMetaMem,3.2.3,Win32,60
,,,,,,,,,,,,,,,,,,,,6,2.368000031,6,0.795000076,1,0,1200,120,1,1199,imaginative,11123,2019-10-22_23h22.11.060,SurveyExpMetaMem,3.2.3,Win32,60
,,,,,,,,,,,,,,,,,,,,6,4.646999836,3,0.64199996,1,0,1200,925,1,1199,disloyal,11123,2019-10-22_23h22.11.060,SurveyExpMetaMem,3.2.3,Win32,60
,,,,,,,,,,,,,,,,,,,,7,6.035000086,4,1.927000046,1,0,1200,1026,1,1199,crisis,11123,2019-10-22_23h22.11.060,SurveyExpMetaMem,3.2.3,Win32,60
,,,,,,,,,,,,,,,,,,,,5,1.407999992,5,0.621000051,1,0,1200,719,1,1199,western,11123,2019-10-22_23h22.11.060,SurveyExpMetaMem,3.2.3,Win32,60
,,,,,,,,,,,,,,,,,,,,8,2.805000067,3,1.242000103,1,0,1200,981,1,1199,rage,11123,2019-10-22_23h22.11.060,SurveyExpMetaMem,3.2.3,Win32,60
,,,,,,,,,,,,,,,,,,,,5,1.503000021,5,0.661000013,1,0,1200,206,1,1199,comet,11123,2019-10-22_23h22.11.060,SurveyExpMetaMem,3.2.3,Win32,60
,,,,,,,,,,,,,,,,,,,,5,2.299000025,8,1.325000048,1,0,1200,139,1,1199,generosity,11123,2019-10-22_23h22.11.060,SurveyExpMetaMem,3.2.3,Win32,60
,,,,,,,,,,,,,,,,,,,,7,6.384000063,1,0.754000187,1,0,1200,903,1,1199,cancer,11123,2019-10-22_23h22.11.060,SurveyExpMetaMem,3.2.3,Win32,60
,,,,,,,,,,,,,,,,,,,,7,2.365999937,5,1.952000141,1,0,1200,1179,1,1199,nerves,11123,2019-10-22_23h22.11.060,SurveyExpMetaMem,3.2.3,Win32,60
,,,,,,,,,,,,,,,,,,,,7,6.062000036,9,1.203999996,1,0,1200,11,1,1199,astonished,11123,2019-10-22_23h22.11.060,SurveyExpMetaMem,3.2.3,Win32,60
,,,,,,,,,,,,,,,,,,,,5,4.027999878,2,0.799000025,1,0,1200,322,1,1199,widow,11123,2019-10-22_23h22.11.060,SurveyExpMetaMem,3.2.3,Win32,60
,,,,,,,,,,,,,,,,,,,,5,1.367000103,5,0.941999912,1,0,1200,796,1,1199,rose,11123,2019-10-22_23h22.11.060,SurveyExpMetaMem,3.2.3,Win32,60
,,,,,,,,,,,,,,,,,,,,6,2.571000099,3,1.756999969,1,0,1200,1039,1,1199,stalk,11123,2019-10-22_23h22.11.060,SurveyExpMetaMem,3.2.3,Win32,60
,,,,,,,,,,,,,,,,,,,,5,5.583999872,5,0.221999884,1,0,1200,1154,1,1199,politics,11123,2019-10-22_23h22.11.060,SurveyExpMetaMem,3.2.3,Win32,60
,,,,,,,,,,,,,,,,,,,,5,4.886999846,7,1.343999863,1,0,1200,224,1,1199,strengthen,11123,2019-10-22_23h22.11.060,SurveyExpMetaMem,3.2.3,Win32,60
,,,,,,,,,,,,,,,,,,,,5,1.582000017,3,0.851999998,1,0,1200,434,1,1199,frail,11123,2019-10-22_23h22.11.060,SurveyExpMetaMem,3.2.3,Win32,60
,,,,,,,,,,,,,,,,,,,,5,1.169000149,5,0.453999996,1,0,1200,795,1,1199,soup,11123,2019-10-22_23h22.11.060,SurveyExpMetaMem,3.2.3,Win32,60
,,,,,,,,,,,,,,,,,,,,5,1.551999807,1,0.81799984,1,0,1200,1036,1,1199,anxiety,11123,2019-10-22_23h22.11.060,SurveyExpMetaMem,3.2.3,Win32,60
,,,,,,,,,,,,,,,,,,,,5,1.476000071,5,0.47300005,1,0,1200,770,1,1199,buffalo,11123,2019-10-22_23h22.11.060,SurveyExpMetaMem,3.2.3,Win32,60
,,,,,,,,,,,,,,,,,,,,4,7.485000134,1,1.486000061,1,0,1200,926,1,1199,dead,11123,2019-10-22_23h22.11.060,SurveyExpMetaMem,3.2.3,Win32,60
,,,,,,,,,,,,,,,,,,,,1,2.366000175,3,1.646999836,1,0,1200,383,1,1199,messy,11123,2019-10-22_23h22.11.060,SurveyExpMetaMem,3.2.3,Win32,60
,,,,,,,,,,,,,,,,,,,,5,3.03399992,5,0.646000147,1,0,1200,588,1,1199,bandage,11123,2019-10-22_23h22.11.060,SurveyExpMetaMem,3.2.3,Win32,60
,,,,,,,,,,,,,,,,,,,,5,17.91999984,5,0.335000038,1,0,1200,727,1,1199,author,11123,2019-10-22_23h22.11.060,SurveyExpMetaMem,3.2.3,Win32,60
,,,,,,,,,,,,,,,,,,,,7,2.431999922,1,0.368999958,1,0,1200,901,1,1199,rape,11123,2019-10-22_23h22.11.060,SurveyExpMetaMem,3.2.3,Win32,60
,,,,,,,,,,,,,,,,,,,,6,3.430999994,4,0.944000006,1,0,1200,1099,1,1199,fire,11123,2019-10-22_23h22.11.060,SurveyExpMetaMem,3.2.3,Win32,60
,,,,,,,,,,,,,,,,,,,,6,6.938999891,6,2.204999924,1,0,1200,225,1,1199,strong,11123,2019-10-22_23h22.11.060,SurveyExpMetaMem,3.2.3,Win32,60
,,,,,,,,,,,,,,,,,,,,7,2.486000061,8,1.43599987,1,0,1200,148,1,1199,victory,11123,2019-10-22_23h22.11.060,SurveyExpMetaMem,3.2.3,Win32,60
,,,,,,,,,,,,,,,,,,,,7,3.258000135,9,0.592999935,1,0,1200,78,1,1199,energetic,11123,2019-10-22_23h22.11.060,SurveyExpMetaMem,3.2.3,Win32,60
,,,,,,,,,,,,,,,,,,,,4,10.34299994,1,1.506000042,1,0,1200,1041,1,1199,sin,11123,2019-10-22_23h22.11.060,SurveyExpMetaMem,3.2.3,Win32,60
,,,,,,,,,,,,,,,,,,,,1,0.215000153,1,5.93599987,1,0,1200,984,1,1199,despairing,11123,2019-10-22_23h22.11.060,SurveyExpMetaMem,3.2.3,Win32,60
,,,,,,,,,,,,,,,,,,,,5,53.48099995,5,0.243999958,1,0,1200,393,1,1199,droop,11123,2019-10-22_23h22.11.060,SurveyExpMetaMem,3.2.3,Win32,60
,,,,,,,,,,,,,,,,,,,,5,3.833000183,6,1.706999779,1,0,1200,29,1,1199,life,11123,2019-10-22_23h22.11.060,SurveyExpMetaMem,3.2.3,Win32,60
,,,,,,,,,,,,,,,,,,,,6,3.069000006,4,1.156000137,1,0,1200,1019,1,1199,fraud,11123,2019-10-22_23h22.11.060,SurveyExpMetaMem,3.2.3,Win32,60
,,,,,,,,,,,,,,,,,,,,5,3.127000093,5,0.696000099,1,0,1200,376,1,1199,incompetent,11123,2019-10-22_23h22.11.060,SurveyExpMetaMem,3.2.3,Win32,60
,,,,,,,,,,,,,,,,,,,,4,3.777000189,2,0.943000078,1,0,1200,999,1,1199,burdened,11123,2019-10-22_23h22.11.060,SurveyExpMetaMem,3.2.3,Win32,60
,,,,,,,,,,,,,,,,,,,,6,23.48900008,6,0.707000017,1,0,1200,607,1,1199,greyhound,11123,2019-10-22_23h22.11.060,SurveyExpMetaMem,3.2.3,Win32,60
,,,,,,,,,,,,,,,,,,,,7,5.383000135,1,0.730999947,1,0,1200,932,1,1199,bankrupt,11123,2019-10-22_23h22.11.060,SurveyExpMetaMem,3.2.3,Win32,60
,,,,,,,,,,,,,,,,,,,,8,5.985000134,7,1.652999878,1,0,1200,144,1,1199,aroused,11123,2019-10-22_23h22.11.060,SurveyExpMetaMem,3.2.3,Win32,60
,,,,,,,,,,,,,,,,,,,,6,2.700999975,3,0.670000076,1,0,1200,971,1,1199,crash,11123,2019-10-22_23h22.11.060,SurveyExpMetaMem,3.2.3,Win32,60
,,,,,,,,,,,,,,,,,,,,5,1.526000023,5,0.224999905,1,0,1200,616,1,1199,coat,11123,2019-10-22_23h22.11.060,SurveyExpMetaMem,3.2.3,Win32,60
,,,,,,,,,,,,,,,,,,,,5,2.302999973,4,1.187999964,1,0,1200,520,1,1199,gullible,11123,2019-10-22_23h22.11.060,SurveyExpMetaMem,3.2.3,Win32,60
,,,,,,,,,,,,,,,,,,,,6,2.67599988,5,2.529999971,1,0,1200,452,1,1199,scapegoat,11123,2019-10-22_23h22.11.060,SurveyExpMetaMem,3.2.3,Win32,60
,,,,,,,,,,,,,,,,,,,,4,2.592999935,3,0.601999998,1,0,1200,421,1,1199,stale,11123,2019-10-22_23h22.11.060,SurveyExpMetaMem,3.2.3,Win32,60
,,,,,,,,,,,,,,,,,,,,5,30.03500009,5,0.342000008,1,0,1200,1132,1,1199,anarchy,11123,2019-10-22_23h22.11.060,SurveyExpMetaMem,3.2.3,Win32,60
,,,,,,,,,,,,,,,,,,,,5,1.507999897,5,0.347000122,1,0,1200,441,1,1199,prohibit,11123,2019-10-22_23h22.11.060,SurveyExpMetaMem,3.2.3,Win32,60
,,,,,,,,,,,,,,,,,,,,5,1.792000055,5,0.598999977,1,0,1200,50,1,1199,bolt,11123,2019-10-22_23h22.11.060,SurveyExpMetaMem,3.2.3,Win32,60
,,,,,,,,,,,,,,,,,,,,5,1.220999956,5,0.38499999,1,0,1200,860,1,1199,silk,11123,2019-10-22_23h22.11.060,SurveyExpMetaMem,3.2.3,Win32,60
,,,,,,,,,,,,,,,,,,,,5,1.298000097,5,0.371000051,1,0,1200,620,1,1199,spray,11123,2019-10-22_23h22.11.060,SurveyExpMetaMem,3.2.3,Win32,60
,,,,,,,,,,,,,,,,,,,,5,2.025000095,5,1.385999918,1,0,1200,753,1,1199,patience,11123,2019-10-22_23h22.11.060,SurveyExpMetaMem,3.2.3,Win32,60
,,,,,,,,,,,,,,,,,,,,7,2.052000046,4,1.20299983,1,0,1200,1050,1,1199,scorn,11123,2019-10-22_23h22.11.060,SurveyExpMetaMem,3.2.3,Win32,60
,,,,,,,,,,,,,,,,,,,,5,1.292000055,5,0.252000093,1,0,1200,695,1,1199,teacher,11123,2019-10-22_23h22.11.060,SurveyExpMetaMem,3.2.3,Win32,60
,,,,,,,,,,,,,,,,,,,,5,1.019999981,5,0.229000092,1,0,1200,606,1,1199,easel,11123,2019-10-22_23h22.11.060,SurveyExpMetaMem,3.2.3,Win32,60
,,,,,,,,,,,,,,,,,,,,7,2.670000076,3,1.338000059,1,0,1200,986,1,1199,mad,11123,2019-10-22_23h22.11.060,SurveyExpMetaMem,3.2.3,Win32,60
,,,,,,,,,,,,,,,,,,,,5,16.01499987,2,0.770999908,1,0,1200,599,1,1199,obstinate,11123,2019-10-22_23h22.11.060,SurveyExpMetaMem,3.2.3,Win32,60
,,,,,,,,,,,,,,,,,,,,3,6.901000023,5,2.486999989,1,0,1200,837,1,1199,responsible,11123,2019-10-22_23h22.11.060,SurveyExpMetaMem,3.2.3,Win32,60
,,,,,,,,,,,,,,,,,,,,6,2.538000107,3,1.079999924,1,0,1200,319,1,1199,malaria,11123,2019-10-22_23h22.11.060,SurveyExpMetaMem,3.2.3,Win32,60
,,,,,,,,,,,,,,,,,,,,5,2.397000074,7,1.728000164,1,0,1200,749,1,1199,glasses,11123,2019-10-22_23h22.11.060,SurveyExpMetaMem,3.2.3,Win32,60
,,,,,,,,,,,,,,,,,,,,7,4.335999966,8,1.051999807,1,0,1200,299,1,1199,champion,11123,2019-10-22_23h22.11.060,SurveyExpMetaMem,3.2.3,Win32,60
,,,,,,,,,,,,,,,,,,,,4,4.279999971,1,0.898999929,1,0,1200,327,1,1199,misfortune,11123,2019-10-22_23h22.11.060,SurveyExpMetaMem,3.2.3,Win32,60
,,,,,,,,,,,,,,,,,,,,3,2.417999983,3,1.142000198,1,0,1200,474,1,1199,weary,11123,2019-10-22_23h22.11.060,SurveyExpMetaMem,3.2.3,Win32,60
,,,,,,,,,,,,,,,,,,,,5,6.051000118,5,0.361999989,1,0,1200,391,1,1199,detach,11123,2019-10-22_23h22.11.060,SurveyExpMetaMem,3.2.3,Win32,60
,,,,,,,,,,,,,,,,,,,,7,5.101999998,2,0.868999958,1,0,1200,268,1,1199,tickle,11123,2019-10-22_23h22.11.060,SurveyExpMetaMem,3.2.3,Win32,60
,,,,,,,,,,,,,,,,,,,,5,10.20699978,6,1.421999931,1,0,1200,705,1,1199,tolerant,11123,2019-10-22_23h22.11.060,SurveyExpMetaMem,3.2.3,Win32,60
,,,,,,,,,,,,,,,,,,,,5,1.351999998,5,0.46600008,1,0,1200,211,1,1199,surfer,11123,2019-10-22_23h22.11.060,SurveyExpMetaMem,3.2.3,Win32,60
,,,,,,,,,,,,,,,,,,,,5,1.019000053,5,0.687999964,1,0,1200,1159,1,1199,rifle,11123,2019-10-22_23h22.11.060,SurveyExpMetaMem,3.2.3,Win32,60
,,,,,,,,,,,,,,,,,,,,9,3.062999964,1,0.878000021,1,0,1200,904,1,1199,murderer,11123,2019-10-22_23h22.11.060,SurveyExpMetaMem,3.2.3,Win32,60
,,,,,,,,,,,,,,,,,,,,6,5.717000008,3,0.549999952,1,0,1200,427,1,1199,doubt,11123,2019-10-22_23h22.11.060,SurveyExpMetaMem,3.2.3,Win32,60
,,,,,,,,,,,,,,,,,,,,5,13.35500002,5,0.355000019,1,0,1200,748,1,1199,town,11123,2019-10-22_23h22.11.060,SurveyExpMetaMem,3.2.3,Win32,60
,,,,,,,,,,,,,,,,,,,,5,1.085999966,5,0.297999859,1,0,1200,553,1,1199,corner,11123,2019-10-22_23h22.11.060,SurveyExpMetaMem,3.2.3,Win32,60
,,,,,,,,,,,,,,,,,,,,9,2.900000095,1,1.253999949,1,0,1200,944,1,1199,kill,11123,2019-10-22_23h22.11.060,SurveyExpMetaMem,3.2.3,Win32,60
,,,,,,,,,,,,,,,,,,,,5,15.53200006,5,1.269999981,1,0,1200,413,1,1199,deficient,11123,2019-10-22_23h22.11.060,SurveyExpMetaMem,3.2.3,Win32,60
,,,,,,,,,,,,,,,,,,,,6,20.61899996,8,2.753000021,1,0,1200,835,1,1199,helpful,11123,2019-10-22_23h22.11.060,SurveyExpMetaMem,3.2.3,Win32,60
,,,,,,,,,,,,,,,,,,,,8,2.767999887,8,0.368999958,1,0,1200,124,1,1199,honeymoon,11123,2019-10-22_23h22.11.060,SurveyExpMetaMem,3.2.3,Win32,60
,,,,,,,,,,,,,,,,,,,,5,2.222000122,5,1.154000044,1,0,1200,153,1,1199,teach,11123,2019-10-22_23h22.11.060,SurveyExpMetaMem,3.2.3,Win32,60
,,,,,,,,,,,,,,,,,,,,6,2.496000051,3,0.912000179,1,0,1200,1076,1,1199,embarrassed,11123,2019-10-22_23h22.11.060,SurveyExpMetaMem,3.2.3,Win32,60
,,,,,,,,,,,,,,,,,,,,6,2.406999826,4,1.371000051,1,0,1200,397,1,1199,complaint,11123,2019-10-22_23h22.11.060,SurveyExpMetaMem,3.2.3,Win32,60
,,,,,,,,,,,,,,,,,,,,4,14.70600009,2,1.940999985,1,0,1200,401,1,1199,feeble,11123,2019-10-22_23h22.11.060,SurveyExpMetaMem,3.2.3,Win32,60
,,,,,,,,,,,,,,,,,,,,5,5.936000109,5,0.876000166,1,0,1200,515,1,1199,blues,11123,2019-10-22_23h22.11.060,SurveyExpMetaMem,3.2.3,Win32,60
,,,,,,,,,,,,,,,,,,,,7,7.417999983,6,1.453999996,1,0,1200,76,1,1199,midnight,11123,2019-10-22_23h22.11.060,SurveyExpMetaMem,3.2.3,Win32,60
,,,,,,,,,,,,,,,,,,,,1,2.282000065,1,0.722999811,1,0,1200,438,1,1199,dull,11123,2019-10-22_23h22.11.060,SurveyExpMetaMem,3.2.3,Win32,60
,,,,,,,,,,,,,,,,,,,,9,3.286000013,1,1.209000111,1,0,1200,954,1,1199,hostage,11123,2019-10-22_23h22.11.060,SurveyExpMetaMem,3.2.3,Win32,60
,,,,,,,,,,,,,,,,,,,,9,1.912999868,1,0.503000021,1,0,1200,983,1,1199,demonic,11123,2019-10-22_23h22.11.060,SurveyExpMetaMem,3.2.3,Win32,60
,,,,,,,,,,,,,,,,,,,,5,2.351999998,6,1.235000134,1,0,1200,22,1,1199,doughnut,11123,2019-10-22_23h22.11.060,SurveyExpMetaMem,3.2.3,Win32,60
,,,,,,,,,,,,,,,,,,,,7,2.582999945,7,0.39199996,1,0,1200,40,1,1199,kissing,11123,2019-10-22_23h22.11.060,SurveyExpMetaMem,3.2.3,Win32,60
,,,,,,,,,,,,,,,,,,,,6,4.043000221,6,1.148000002,1,0,1200,15,1,1199,curiosity,11123,2019-10-22_23h22.11.060,SurveyExpMetaMem,3.2.3,Win32,60
,,,,,,,,,,,,,,,,,,,,9,2.735000134,9,0.875999928,1,0,1200,296,1,1199,awesome,11123,2019-10-22_23h22.11.060,SurveyExpMetaMem,3.2.3,Win32,60
,,,,,,,,,,,,,,,,,,,,5,8.146999836,5,0.248000145,1,0,1200,696,1,1199,rink,11123,2019-10-22_23h22.11.060,SurveyExpMetaMem,3.2.3,Win32,60
,,,,,,,,,,,,,,,,,,,,5,4.714999914,4,0.247999907,1,0,1200,485,1,1199,pinch,11123,2019-10-22_23h22.11.060,SurveyExpMetaMem,3.2.3,Win32,60
,,,,,,,,,,,,,,,,,,,,1,3.802999973,9,1.491999865,1,0,1200,149,1,1199,loved,11123,2019-10-22_23h22.11.060,SurveyExpMetaMem,3.2.3,Win32,60
,,,,,,,,,,,,,,,,,,,,5,4.970999956,3,0.944000006,1,0,1200,419,1,1199,immature,11123,2019-10-22_23h22.11.060,SurveyExpMetaMem,3.2.3,Win32,60
,,,,,,,,,,,,,,,,,,,,7,1.720000029,3,0.607000113,1,0,1200,1021,1,1199,attack,11123,2019-10-22_23h22.11.060,SurveyExpMetaMem,3.2.3,Win32,60
,,,,,,,,,,,,,,,,,,,,6,3.81099987,8,1.289999962,1,0,1200,236,1,1199,amaze,11123,2019-10-22_23h22.11.060,SurveyExpMetaMem,3.2.3,Win32,60
,,,,,,,,,,,,,,,,,,,,5,1.434999943,5,0.394999981,1,0,1200,681,1,1199,fig,11123,2019-10-22_23h22.11.060,SurveyExpMetaMem,3.2.3,Win32,60
,,,,,,,,,,,,,,,,,,,,6,3.018999815,6,0.292000055,1,0,1200,255,1,1199,ass,11123,2019-10-22_23h22.11.060,SurveyExpMetaMem,3.2.3,Win32,60
,,,,,,,,,,,,,,,,,,,,5,11.3039999,5,0.351999998,1,0,1200,848,1,1199,graceful,11123,2019-10-22_23h22.11.060,SurveyExpMetaMem,3.2.3,Win32,60
,,,,,,,,,,,,,,,,,,,,5,1.311000109,5,0.523000002,1,0,1200,623,1,1199,suburban,11123,2019-10-22_23h22.11.060,SurveyExpMetaMem,3.2.3,Win32,60
,,,,,,,,,,,,,,,,,,,,5,13.69200015,5,0.743000031,1,0,1200,545,1,1199,tar,11123,2019-10-22_23h22.11.060,SurveyExpMetaMem,3.2.3,Win32,60
,,,,,,,,,,,,,,,,,,,,3,3.078999996,2,0.717999935,1,0,1200,318,1,1199,disappointment,11123,2019-10-22_23h22.11.060,SurveyExpMetaMem,3.2.3,Win32,60
,,,,,,,,,,,,,,,,,,,,5,1.744999886,5,0.312999964,1,0,1200,693,1,1199,key,11123,2019-10-22_23h22.11.060,SurveyExpMetaMem,3.2.3,Win32,60
,,,,,,,,,,,,,,,,,,,,5,2.201999903,5,1.385999918,1,0,1200,842,1,1199,breathe,11123,2019-10-22_23h22.11.060,SurveyExpMetaMem,3.2.3,Win32,60
,,,,,,,,,,,,,,,,,,,,1,6.849999905,9,1.872999907,1,0,1200,884,1,1199,grateful,11123,2019-10-22_23h22.11.060,SurveyExpMetaMem,3.2.3,Win32,60
,,,,,,,,,,,,,,,,,,,,5,3.078000069,5,0.351999998,1,0,1200,602,1,1199,vegetable,11123,2019-10-22_23h22.11.060,SurveyExpMetaMem,3.2.3,Win32,60
,,,,,,,,,,,,,,,,,,,,5,72.9000001,5,0.308000088,1,0,1200,872,1,1199,dignified,11123,2019-10-22_23h22.11.060,SurveyExpMetaMem,3.2.3,Win32,60
,,,,,,,,,,,,,,,,,,,,5,1.86500001,2,1.277999878,1,0,1200,309,1,1199,homeless,11123,2019-10-22_23h22.11.060,SurveyExpMetaMem,3.2.3,Win32,60
,,,,,,,,,,,,,,,,,,,,5,2.319999933,5,0.235999823,1,0,1200,734,1,1199,piano,11123,2019-10-22_23h22.11.060,SurveyExpMetaMem,3.2.3,Win32,60
,,,,,,,,,,,,,,,,,,,,5,1.138000011,5,0.416000128,1,0,1200,854,1,1199,river,11123,2019-10-22_23h22.11.060,SurveyExpMetaMem,3.2.3,Win32,60
,,,,,,,,,,,,,,,,,,,,6,3.598999977,4,3.753999949,1,0,1200,502,1,1199,crap,11123,2019-10-22_23h22.11.060,SurveyExpMetaMem,3.2.3,Win32,60
,,,,,,,,,,,,,,,,,,,,5,1.592999935,5,1.021000147,1,0,1200,773,1,1199,rational,11123,2019-10-22_23h22.11.060,SurveyExpMetaMem,3.2.3,Win32,60
,,,,,,,,,,,,,,,,,,,,7,3.146000147,9,0.750999928,1,0,1200,199,1,1199,laughter,11123,2019-10-22_23h22.11.060,SurveyExpMetaMem,3.2.3,Win32,60
,,,,,,,,,,,,,,,,,,,,8,4.140000105,5,1.052000046,1,0,1200,1045,1,1199,scalding,11123,2019-10-22_23h22.11.060,SurveyExpMetaMem,3.2.3,Win32,60
,,,,,,,,,,,,,,,,,,,,5,5.271000147,5,0.411999941,1,0,1200,1089,1,1199,ridicule,11123,2019-10-22_23h22.11.060,SurveyExpMetaMem,3.2.3,Win32,60
,,,,,,,,,,,,,,,,,,,,5,1.473999977,2,1.41899991,1,0,1200,657,1,1199,peanut,11123,2019-10-22_23h22.11.060,SurveyExpMetaMem,3.2.3,Win32,60
,,,,,,,,,,,,,,,,,,,,5,3.640000105,5,0.236999989,1,0,1200,121,1,1199,self,11123,2019-10-22_23h22.11.060,SurveyExpMetaMem,3.2.3,Win32,60
,,,,,,,,,,,,,,,,,,,,6,8.338999987,7,1.677999973,1,0,1200,265,1,1199,invent,11123,2019-10-22_23h22.11.060,SurveyExpMetaMem,3.2.3,Win32,60
,,,,,,,,,,,,,,,,,,,,5,14.08100009,5,0.184999943,1,0,1200,540,1,1199,derelict,11123,2019-10-22_23h22.11.060,SurveyExpMetaMem,3.2.3,Win32,60
,,,,,,,,,,,,,,,,,,,,4,3.319999933,2,1.825999975,1,0,1200,1094,1,1199,disruptive,11123,2019-10-22_23h22.11.060,SurveyExpMetaMem,3.2.3,Win32,60
,,,,,,,,,,,,,,,,,,,,6,3.388000011,1,0.316999912,1,0,1200,1002,1,1199,wounds,11123,2019-10-22_23h22.11.060,SurveyExpMetaMem,3.2.3,Win32,60
,,,,,,,,,,,,,,,,,,,,5,20.05999994,3,0.953000069,1,0,1200,418,1,1199,cheapskate,11123,2019-10-22_23h22.11.060,SurveyExpMetaMem,3.2.3,Win32,60
,,,,,,,,,,,,,,,,,,,,5,1.957999945,5,0.183000088,1,0,1200,43,1,1199,diamond,11123,2019-10-22_23h22.11.060,SurveyExpMetaMem,3.2.3,Win32,60
,,,,,,,,,,,,,,,,,,,,5,1.188999891,5,0.207999945,1,0,1200,698,1,1199,oven,11123,2019-10-22_23h22.11.060,SurveyExpMetaMem,3.2.3,Win32,60
,,,,,,,,,,,,,,,,,,,,7,3.381000042,3,0.738000154,1,0,1200,922,1,1199,nightmare,11123,2019-10-22_23h22.11.060,SurveyExpMetaMem,3.2.3,Win32,60
,,,,,,,,,,,,,,,,,,,,7,2.23300004,3,0.430999994,1,0,1200,1185,1,1199,shotgun,11123,2019-10-22_23h22.11.060,SurveyExpMetaMem,3.2.3,Win32,60
,,,,,,,,,,,,,,,,,,,,5,1.617999792,5,0.218000174,1,0,1200,637,1,1199,flock,11123,2019-10-22_23h22.11.060,SurveyExpMetaMem,3.2.3,Win32,60
,,,,,,,,,,,,,,,,,,,,8,21.89999986,2,0.937999964,1,0,1200,1153,1,1199,mangle,11123,2019-10-22_23h22.11.060,SurveyExpMetaMem,3.2.3,Win32,60
,,,,,,,,,,,,,,,,,,,,5,3.988999844,5,0.220999956,1,0,1200,590,1,1199,stool,11123,2019-10-22_23h22.11.060,SurveyExpMetaMem,3.2.3,Win32,60
,,,,,,,,,,,,,,,,,,,,5,1.489000082,5,0.236999989,1,0,1200,533,1,1199,busy,11123,2019-10-22_23h22.11.060,SurveyExpMetaMem,3.2.3,Win32,60
,,,,,,,,,,,,,,,,,,,,6,1.688000202,5,0.967000008,1,0,1200,1128,1,1199,fighting,11123,2019-10-22_23h22.11.060,SurveyExpMetaMem,3.2.3,Win32,60
,,,,,,,,,,,,,,,,,,,,5,3.479000092,5,0.288000107,1,0,1200,1114,1,1199,foe,11123,2019-10-22_23h22.11.060,SurveyExpMetaMem,3.2.3,Win32,60
,,,,,,,,,,,,,,,,,,,,6,2.500999928,4,0.889000177,1,0,1200,453,1,1199,prude,11123,2019-10-22_23h22.11.060,SurveyExpMetaMem,3.2.3,Win32,60
,,,,,,,,,,,,,,,,,,,,5,1.506000042,5,0.236999989,1,0,1200,212,1,1199,belief,11123,2019-10-22_23h22.11.060,SurveyExpMetaMem,3.2.3,Win32,60
,,,,,,,,,,,,,,,,,,,,5,0.753999949,5,0.218999863,1,0,1200,845,1,1199,honey,11123,2019-10-22_23h22.11.060,SurveyExpMetaMem,3.2.3,Win32,60
,,,,,,,,,,,,,,,,,,,,5,2.684000015,4,0.335000038,1,0,1200,1107,1,1199,snake,11123,2019-10-22_23h22.11.060,SurveyExpMetaMem,3.2.3,Win32,60
,,,,,,,,,,,,,,,,,,,,7,15.51900005,4,1.506000042,1,0,1200,1017,1,1199,aggravated,11123,2019-10-22_23h22.11.060,SurveyExpMetaMem,3.2.3,Win32,60
,,,,,,,,,,,,,,,,,,,,5,2.8349998,5,0.277000189,1,0,1200,806,1,1199,tree,11123,2019-10-22_23h22.11.060,SurveyExpMetaMem,3.2.3,Win32,60
,,,,,,,,,,,,,,,,,,,,5,1.052999973,5,0.225000143,1,0,1200,789,1,1199,green,11123,2019-10-22_23h22.11.060,SurveyExpMetaMem,3.2.3,Win32,60
,,,,,,,,,,,,,,,,,,,,5,2.422999859,4,0.571000099,1,0,1200,510,1,1199,excuse,11123,2019-10-22_23h22.11.060,SurveyExpMetaMem,3.2.3,Win32,60
,,,,,,,,,,,,,,,,,,,,3,3.649999857,2,1.006000042,1,0,1200,1199,1,1199,expensive,11123,2019-10-22_23h22.11.060,SurveyExpMetaMem,3.2.3,Win32,60
,,,,,,,,,,,,,,,,,,,,5,7.121000051,6,1.434999943,1,0,1200,158,1,1199,engage,11123,2019-10-22_23h22.11.060,SurveyExpMetaMem,3.2.3,Win32,60
,,,,,,,,,,,,,,,,,,,,5,0.93599987,5,0.244999886,1,0,1200,688,1,1199,jelly,11123,2019-10-22_23h22.11.060,SurveyExpMetaMem,3.2.3,Win32,60
,,,,,,,,,,,,,,,,,,,,3,5.096999884,3,2.459000111,1,0,1200,1160,1,1199,enlist,11123,2019-10-22_23h22.11.060,SurveyExpMetaMem,3.2.3,Win32,60
,,,,,,,,,,,,,,,,,,,,6,18.18700004,3,1.95299983,1,0,1200,486,1,1199,fool,11123,2019-10-22_23h22.11.060,SurveyExpMetaMem,3.2.3,Win32,60
,,,,,,,,,,,,,,,,,,,,3,5.797999859,7,1.686000109,1,0,1200,821,1,1199,cottage,11123,2019-10-22_23h22.11.060,SurveyExpMetaMem,3.2.3,Win32,60
,,,,,,,,,,,,,,,,,,,,7,2.250999928,4,1.694000006,1,0,1200,924,1,1199,terrible,11123,2019-10-22_23h22.11.060,SurveyExpMetaMem,3.2.3,Win32,60
,,,,,,,,,,,,,,,,,,,,5,62.73399997,4,1.685000181,1,0,1200,2,1,1199,zealous,11123,2019-10-22_23h22.11.060,SurveyExpMetaMem,3.2.3,Win32,60
,,,,,,,,,,,,,,,,,,,,5,24.39400005,5,0.26699996,1,0,1200,750,1,1199,porpoise,11123,2019-10-22_23h22.11.060,SurveyExpMetaMem,3.2.3,Win32,60
,,,,,,,,,,,,,,,,,,,,2,5.708999872,7,1.667999983,1,0,1200,708,1,1199,nursery,11123,2019-10-22_23h22.11.060,SurveyExpMetaMem,3.2.3,Win32,60
,,,,,,,,,,,,,,,,,,,,5,1.931999922,5,0.402999878,1,0,1200,614,1,1199,crossword,11123,2019-10-22_23h22.11.060,SurveyExpMetaMem,3.2.3,Win32,60
,,,,,,,,,,,,,,,,,,,,5,3.220999956,5,0.319000006,1,0,1200,34,1,1199,personality,11123,2019-10-22_23h22.11.060,SurveyExpMetaMem,3.2.3,Win32,60
,,,,,,,,,,,,,,,,,,,,7,2.063999891,7,0.802999973,1,0,1200,230,1,1199,eager,11123,2019-10-22_23h22.11.060,SurveyExpMetaMem,3.2.3,Win32,60
,,,,,,,,,,,,,,,,,,,,5,1.31099987,5,0.498999834,1,0,1200,745,1,1199,inform,11123,2019-10-22_23h22.11.060,SurveyExpMetaMem,3.2.3,Win32,60
,,,,,,,,,,,,,,,,,,,,6,13.18400002,5,0.610999823,1,0,1200,204,1,1199,crazy,11123,2019-10-22_23h22.11.060,SurveyExpMetaMem,3.2.3,Win32,60
,,,,,,,,,,,,,,,,,,,,6,2.388000011,4,1.95299983,1,0,1200,980,1,1199,liar,11123,2019-10-22_23h22.11.060,SurveyExpMetaMem,3.2.3,Win32,60
,,,,,,,,,,,,,,,,,,,,5,1.130000114,5,0.305000067,1,0,1200,699,1,1199,leg,11123,2019-10-22_23h22.11.060,SurveyExpMetaMem,3.2.3,Win32,60
,,,,,,,,,,,,,,,,,,,,5,1.683000088,5,0.279000044,1,0,1200,755,1,1199,soap,11123,2019-10-22_23h22.11.060,SurveyExpMetaMem,3.2.3,Win32,60
,,,,,,,,,,,,,,,,,,,,6,2.194000006,6,1.848999977,1,0,1200,1126,1,1199,offensive,11123,2019-10-22_23h22.11.060,SurveyExpMetaMem,3.2.3,Win32,60
,,,,,,,,,,,,,,,,,,,,6,1.334000111,6,0.513000011,1,0,1200,295,1,1199,passion,11123,2019-10-22_23h22.11.060,SurveyExpMetaMem,3.2.3,Win32,60
,,,,,,,,,,,,,,,,,,,,5,4.046999931,5,0.24000001,1,0,1200,760,1,1199,shrimp,11123,2019-10-22_23h22.11.060,SurveyExpMetaMem,3.2.3,Win32,60
,,,,,,,,,,,,,,,,,,,,6,3.219000101,7,1.269999981,1,0,1200,27,1,1199,gourmet,11123,2019-10-22_23h22.11.060,SurveyExpMetaMem,3.2.3,Win32,60
,,,,,,,,,,,,,,,,,,,,6,1.982000113,3,1.273000002,1,0,1200,1062,1,1199,shoplifter,11123,2019-10-22_23h22.11.060,SurveyExpMetaMem,3.2.3,Win32,60
,,,,,,,,,,,,,,,,,,,,5,2.561000109,5,0.187999964,1,0,1200,629,1,1199,barn,11123,2019-10-22_23h22.11.060,SurveyExpMetaMem,3.2.3,Win32,60
,,,,,,,,,,,,,,,,,,,,7,1.868000031,3,1.190000057,1,0,1200,1012,1,1199,gunshot,11123,2019-10-22_23h22.11.060,SurveyExpMetaMem,3.2.3,Win32,60
,,,,,,,,,,,,,,,,,,,,5,10.76600003,5,0.214999914,1,0,1200,702,1,1199,den,11123,2019-10-22_23h22.11.060,SurveyExpMetaMem,3.2.3,Win32,60
,,,,,,,,,,,,,,,,,,,,5,1.848999977,3,0.934999943,1,0,1200,420,1,1199,smoke,11123,2019-10-22_23h22.11.060,SurveyExpMetaMem,3.2.3,Win32,60
,,,,,,,,,,,,,,,,,,,,5,2.220999956,6,0.410000086,1,0,1200,797,1,1199,hamburger,11123,2019-10-22_23h22.11.060,SurveyExpMetaMem,3.2.3,Win32,60
,,,,,,,,,,,,,,,,,,,,6,2.799000025,2,0.312000036,1,0,1200,917,1,1199,slave,11123,2019-10-22_23h22.11.060,SurveyExpMetaMem,3.2.3,Win32,60
,,,,,,,,,,,,,,,,,,,,6,2.312000036,7,0.980000019,1,0,1200,23,1,1199,earn,11123,2019-10-22_23h22.11.060,SurveyExpMetaMem,3.2.3,Win32,60
,,,,,,,,,,,,,,,,,,,,7,2.460000038,9,1.036999941,1,0,1200,703,1,1199,book,11123,2019-10-22_23h22.11.060,SurveyExpMetaMem,3.2.3,Win32,60
,,,,,,,,,,,,,,,,,,,,5,3.854000092,6,0.570999861,1,0,1200,712,1,1199,harvest,11123,2019-10-22_23h22.11.060,SurveyExpMetaMem,3.2.3,Win32,60
,,,,,,,,,,,,,,,,,,,,5,4.907999992,5,0.297999859,1,0,1200,647,1,1199,accord,11123,2019-10-22_23h22.11.060,SurveyExpMetaMem,3.2.3,Win32,60
,,,,,,,,,,,,,,,,,,,,4,247.7709999,4,0.674000025,1,0,1200,325,1,1199,disability,11123,2019-10-22_23h22.11.060,SurveyExpMetaMem,3.2.3,Win32,60
,,,,,,,,,,,,,,,,,,,,5,1.985000134,5,1.13499999,1,0,1200,430,1,1199,cancel,11123,2019-10-22_23h22.11.060,SurveyExpMetaMem,3.2.3,Win32,60
,,,,,,,,,,,,,,,,,,,,5,1.076999903,5,0.263999939,1,0,1200,1104,1,1199,avalanche,11123,2019-10-22_23h22.11.060,SurveyExpMetaMem,3.2.3,Win32,60
,,,,,,,,,,,,,,,,,,,,3,3.940999985,5,0.86500001,1,0,1200,530,1,1199,erase,11123,2019-10-22_23h22.11.060,SurveyExpMetaMem,3.2.3,Win32,60
,,,,,,,,,,,,,,,,,,,,7,2.184000015,3,1.024000168,1,0,1200,909,1,1199,terrified,11123,2019-10-22_23h22.11.060,SurveyExpMetaMem,3.2.3,Win32,60
,,,,,,,,,,,,,,,,,,,,6,2.171000004,2,0.993999958,1,0,1200,955,1,1199,drown,11123,2019-10-22_23h22.11.060,SurveyExpMetaMem,3.2.3,Win32,60
,,,,,,,,,,,,,,,,,,,,3,7.875999928,7,1.610000134,1,0,1200,875,1,1199,fluffy,11123,2019-10-22_23h22.11.060,SurveyExpMetaMem,3.2.3,Win32,60
,,,,,,,,,,,,,,,,,,,,5,33.579,4,0.388000011,1,0,1200,927,1,1199,jail,11123,2019-10-22_23h22.11.060,SurveyExpMetaMem,3.2.3,Win32,60
,,,,,,,,,,,,,,,,,,,,5,2.547999859,5,0.302999973,1,0,1200,974,1,1199,roach,11123,2019-10-22_23h22.11.060,SurveyExpMetaMem,3.2.3,Win32,60
,,,,,,,,,,,,,,,,,,,,5,0.938000202,5,0.286999941,1,0,1200,73,1,1199,rhythm,11123,2019-10-22_23h22.11.060,SurveyExpMetaMem,3.2.3,Win32,60
,,,,,,,,,,,,,,,,,,,,3,4.159000158,7,5.496000051,1,0,1200,166,1,1199,unite,11123,2019-10-22_23h22.11.060,SurveyExpMetaMem,3.2.3,Win32,60
,,,,,,,,,,,,,,,,,,,,5,8.296000004,5,0.166000128,1,0,1200,571,1,1199,marrow,11123,2019-10-22_23h22.11.060,SurveyExpMetaMem,3.2.3,Win32,60
,,,,,,,,,,,,,,,,,,,,2,3.267999887,2,1.163000107,1,0,1200,324,1,1199,inferiority,11123,2019-10-22_23h22.11.060,SurveyExpMetaMem,3.2.3,Win32,60
,,,,,,,,,,,,,,,,,,,,5,1.885999918,5,0.262000084,1,0,1200,46,1,1199,god,11123,2019-10-22_23h22.11.060,SurveyExpMetaMem,3.2.3,Win32,60
,,,,,,,,,,,,,,,,,,,,5,22.9690001,5,0.407000065,1,0,1200,1117,1,1199,court,11123,2019-10-22_23h22.11.060,SurveyExpMetaMem,3.2.3,Win32,60
,,,,,,,,,,,,,,,,,,,,5,0.787999868,5,0.404000044,1,0,1200,671,1,1199,windmill,11123,2019-10-22_23h22.11.060,SurveyExpMetaMem,3.2.3,Win32,60
,,,,,,,,,,,,,,,,,,,,7,2.75,5,0.937000036,1,0,1200,1141,1,1199,shark,11123,2019-10-22_23h22.11.060,SurveyExpMetaMem,3.2.3,Win32,60
,,,,,,,,,,,,,,,,,,,,5,1.942000151,6,0.860000134,1,0,1200,810,1,1199,polite,11123,2019-10-22_23h22.11.060,SurveyExpMetaMem,3.2.3,Win32,60
,,,,,,,,,,,,,,,,,,,,5,2.052999973,5,0.171000004,1,0,1200,156,1,1199,gym,11123,2019-10-22_23h22.11.060,SurveyExpMetaMem,3.2.3,Win32,60
,,,,,,,,,,,,,,,,,,,,5,23.38400006,3,0.306999922,1,0,1200,332,1,1199,sewage,11123,2019-10-22_23h22.11.060,SurveyExpMetaMem,3.2.3,Win32,60
,,,,,,,,,,,,,,,,,,,,4,3.188999891,4,0.584000111,1,0,1200,351,1,1199,germs,11123,2019-10-22_23h22.11.060,SurveyExpMetaMem,3.2.3,Win32,60
,,,,,,,,,,,,,,,,,,,,2,5.376000166,8,1.661000013,1,0,1200,885,1,1199,cozy,11123,2019-10-22_23h22.11.060,SurveyExpMetaMem,3.2.3,Win32,60
,,,,,,,,,,,,,,,,,,,,6,5.447000027,8,1.095000029,1,0,1200,297,1,1199,pleasure,11123,2019-10-22_23h22.11.060,SurveyExpMetaMem,3.2.3,Win32,60
,,,,,,,,,,,,,,,,,,,,5,12.08100009,5,0.166999817,1,0,1200,280,1,1199,cookout,11123,2019-10-22_23h22.11.060,SurveyExpMetaMem,3.2.3,Win32,60
,,,,,,,,,,,,,,,,,,,,6,2.731000185,4,0.947000027,1,0,1200,1171,1,1199,chaos,11123,2019-10-22_23h22.11.060,SurveyExpMetaMem,3.2.3,Win32,60
,,,,,,,,,,,,,,,,,,,,3,9.745999813,5,2.046000004,1,0,1200,524,1,1199,sigh,11123,2019-10-22_23h22.11.060,SurveyExpMetaMem,3.2.3,Win32,60
,,,,,,,,,,,,,,,,,,,,6,16.01199985,6,0.835000038,1,0,1200,71,1,1199,spirit,11123,2019-10-22_23h22.11.060,SurveyExpMetaMem,3.2.3,Win32,60
,,,,,,,,,,,,,,,,,,,,4,3.997999907,2,0.875999928,1,0,1200,314,1,1199,hopeless,11123,2019-10-22_23h22.11.060,SurveyExpMetaMem,3.2.3,Win32,60
,,,,,,,,,,,,,,,,,,,,5,1.784999847,5,0.321000099,1,0,1200,159,1,1199,teenager,11123,2019-10-22_23h22.11.060,SurveyExpMetaMem,3.2.3,Win32,60
,,,,,,,,,,,,,,,,,,,,7,2.884000063,7,0.650000095,1,0,1200,113,1,1199,bridesmaid,11123,2019-10-22_23h22.11.060,SurveyExpMetaMem,3.2.3,Win32,60
,,,,,,,,,,,,,,,,,,,,6,7.125999928,2,0.488000154,1,0,1200,1156,1,1199,weapon,11123,2019-10-22_23h22.11.060,SurveyExpMetaMem,3.2.3,Win32,60
,,,,,,,,,,,,,,,,,,,,5,2.778000116,1,0.337999821,1,0,1200,253,1,1199,soldier,11123,2019-10-22_23h22.11.060,SurveyExpMetaMem,3.2.3,Win32,60
,,,,,,,,,,,,,,,,,,,,6,4.256000042,3,1.59800005,1,0,1200,1123,1,1199,haunt,11123,2019-10-22_23h22.11.060,SurveyExpMetaMem,3.2.3,Win32,60
,,,,,,,,,,,,,,,,,,,,5,1.617000103,5,0.298000097,1,0,1200,161,1,1199,limousine,11123,2019-10-22_23h22.11.060,SurveyExpMetaMem,3.2.3,Win32,60
,,,,,,,,,,,,,,,,,,,,7,2.645999908,8,0.745000124,1,0,1200,832,1,1199,candy,11123,2019-10-22_23h22.11.060,SurveyExpMetaMem,3.2.3,Win32,60
,,,,,,,,,,,,,,,,,,,,4,5.111999989,3,0.535000086,1,0,1200,345,1,1199,unfortunate,11123,2019-10-22_23h22.11.060,SurveyExpMetaMem,3.2.3,Win32,60
,,,,,,,,,,,,,,,,,,,,5,2.001000166,6,0.869000196,1,0,1200,128,1,1199,supper,11123,2019-10-22_23h22.11.060,SurveyExpMetaMem,3.2.3,Win32,60
,,,,,,,,,,,,,,,,,,,,5,1.220000029,5,0.359999895,1,0,1200,562,1,1199,average,11123,2019-10-22_23h22.11.060,SurveyExpMetaMem,3.2.3,Win32,60
,,,,,,,,,,,,,,,,,,,,5,1.233999968,5,0.304000139,1,0,1200,689,1,1199,land,11123,2019-10-22_23h22.11.060,SurveyExpMetaMem,3.2.3,Win32,60
,,,,,,,,,,,,,,,,,,,,5,1.217000008,5,0.259000063,1,0,1200,424,1,1199,fault,11123,2019-10-22_23h22.11.060,SurveyExpMetaMem,3.2.3,Win32,60
,,,,,,,,,,,,,,,,,,,,5,1.250999928,5,0.52699995,1,0,1200,220,1,1199,reef,11123,2019-10-22_23h22.11.060,SurveyExpMetaMem,3.2.3,Win32,60
,,,,,,,,,,,,,,,,,,,,5,2.227999926,4,0.652999878,1,0,1200,429,1,1199,cough,11123,2019-10-22_23h22.11.060,SurveyExpMetaMem,3.2.3,Win32,60
,,,,,,,,,,,,,,,,,,,,4,2.632999897,4,0.677999973,1,0,1200,1111,1,1199,bruise,11123,2019-10-22_23h22.11.060,SurveyExpMetaMem,3.2.3,Win32,60
,,,,,,,,,,,,,,,,,,,,3,6.286999941,4,0.620000124,1,0,1200,451,1,1199,lame,11123,2019-10-22_23h22.11.060,SurveyExpMetaMem,3.2.3,Win32,60
,,,,,,,,,,,,,,,,,,,,5,1.984999895,5,0.238000154,1,0,1200,1079,1,1199,critic,11123,2019-10-22_23h22.11.060,SurveyExpMetaMem,3.2.3,Win32,60
,,,,,,,,,,,,,,,,,,,,5,0.868999958,5,0.246000051,1,0,1200,654,1,1199,brief,11123,2019-10-22_23h22.11.060,SurveyExpMetaMem,3.2.3,Win32,60
,,,,,,,,,,,,,,,,,,,,5,3.900000095,5,0.687999964,1,0,1200,9,1,1199,try,11123,2019-10-22_23h22.11.060,SurveyExpMetaMem,3.2.3,Win32,60
,,,,,,,,,,,,,,,,,,,,5,1.351000071,5,0.243000031,1,0,1200,104,1,1199,freeway,11123,2019-10-22_23h22.11.060,SurveyExpMetaMem,3.2.3,Win32,60
,,,,,,,,,,,,,,,,,,,,3,10.01699996,3,0.262000084,1,0,1200,461,1,1199,ail,11123,2019-10-22_23h22.11.060,SurveyExpMetaMem,3.2.3,Win32,60
,,,,,,,,,,,,,,,,,,,,5,1.631999969,5,0.214999914,1,0,1200,814,1,1199,dress,11123,2019-10-22_23h22.11.060,SurveyExpMetaMem,3.2.3,Win32,60
,,,,,,,,,,,,,,,,,,,,6,2.811000109,5,0.924000025,1,0,1200,54,1,1199,alcohol,11123,2019-10-22_23h22.11.060,SurveyExpMetaMem,3.2.3,Win32,60
,,,,,,,,,,,,,,,,,,,,6,3.184000015,2,1.372999907,1,0,1200,1090,1,1199,destruction,11123,2019-10-22_23h22.11.060,SurveyExpMetaMem,3.2.3,Win32,60
,,,,,,,,,,,,,,,,,,,,5,3.699999809,5,1.969000101,1,0,1200,1190,1,1199,clench,11123,2019-10-22_23h22.11.060,SurveyExpMetaMem,3.2.3,Win32,60
,,,,,,,,,,,,,,,,,,,,5,10.30200005,5,0.306999922,1,0,1200,965,1,1199,traffic,11123,2019-10-22_23h22.11.060,SurveyExpMetaMem,3.2.3,Win32,60
,,,,,,,,,,,,,,,,,,,,5,0.825999975,7,2.570999861,1,0,1200,44,1,1199,diploma,11123,2019-10-22_23h22.11.060,SurveyExpMetaMem,3.2.3,Win32,60
,,,,,,,,,,,,,,,,,,,,6,2.284000158,7,0.319000006,1,0,1200,277,1,1199,cupcake,11123,2019-10-22_23h22.11.060,SurveyExpMetaMem,3.2.3,Win32,60
,,,,,,,,,,,,,,,,,,,,5,32.921,5,0.903000116,1,0,1200,1115,1,1199,invade,11123,2019-10-22_23h22.11.060,SurveyExpMetaMem,3.2.3,Win32,60
,,,,,,,,,,,,,,,,,,,,1,3.044000149,2,1.502000093,1,0,1200,416,1,1199,boring,11123,2019-10-22_23h22.11.060,SurveyExpMetaMem,3.2.3,Win32,60
,,,,,,,,,,,,,,,,,,,,6,50.71000004,3,0.355999947,1,0,1200,1007,1,1199,tornado,11123,2019-10-22_23h22.11.060,SurveyExpMetaMem,3.2.3,Win32,60
,,,,,,,,,,,,,,,,,,,,3,7.776000023,5,1.074999809,1,0,1200,836,1,1199,lounge,11123,2019-10-22_23h22.11.060,SurveyExpMetaMem,3.2.3,Win32,60
,,,,,,,,,,,,,,,,,,,,5,3.087000132,5,0.328999996,1,0,1200,687,1,1199,skinny,11123,2019-10-22_23h22.11.060,SurveyExpMetaMem,3.2.3,Win32,60
,,,,,,,,,,,,,,,,,,,,7,3.373999834,2,0.54399991,1,0,1200,916,1,1199,starvation,11123,2019-10-22_23h22.11.060,SurveyExpMetaMem,3.2.3,Win32,60
,,,,,,,,,,,,,,,,,,,,4,3.268000126,4,0.616000175,1,0,1200,490,1,1199,detached,11123,2019-10-22_23h22.11.060,SurveyExpMetaMem,3.2.3,Win32,60
,,,,,,,,,,,,,,,,,,,,6,7.467000008,3,1.046000004,1,0,1200,1055,1,1199,alarm,11123,2019-10-22_23h22.11.060,SurveyExpMetaMem,3.2.3,Win32,60
,,,,,,,,,,,,,,,,,,,,5,1.828999996,5,0.256000042,1,0,1200,710,1,1199,gender,11123,2019-10-22_23h22.11.060,SurveyExpMetaMem,3.2.3,Win32,60
,,,,,,,,,,,,,,,,,,,,5,1.486000061,5,0.194999933,1,0,1200,507,1,1199,smudge,11123,2019-10-22_23h22.11.060,SurveyExpMetaMem,3.2.3,Win32,60
,,,,,,,,,,,,,,,,,,,,5,0.802999973,5,0.213000059,1,0,1200,740,1,1199,groceries,11123,2019-10-22_23h22.11.060,SurveyExpMetaMem,3.2.3,Win32,60
,,,,,,,,,,,,,,,,,,,,5,1.019000053,5,0.203000069,1,0,1200,423,1,1199,stain,11123,2019-10-22_23h22.11.060,SurveyExpMetaMem,3.2.3,Win32,60
,,,,,,,,,,,,,,,,,,,,7,3.874000072,3,0.809999943,1,0,1200,1024,1,1199,burn,11123,2019-10-22_23h22.11.060,SurveyExpMetaMem,3.2.3,Win32,60
,,,,,,,,,,,,,,,,,,,,2,6.176000118,5,2.437000036,1,0,1200,862,1,1199,ease,11123,2019-10-22_23h22.11.060,SurveyExpMetaMem,3.2.3,Win32,60
,,,,,,,,,,,,,,,,,,,,7,7.371999979,8,1.029999971,1,0,1200,890,1,1199,carefree,11123,2019-10-22_23h22.11.060,SurveyExpMetaMem,3.2.3,Win32,60
,,,,,,,,,,,,,,,,,,,,5,1.575999975,5,0.226000071,1,0,1200,679,1,1199,yellow,11123,2019-10-22_23h22.11.060,SurveyExpMetaMem,3.2.3,Win32,60
,,,,,,,,,,,,,,,,,,,,3,4.190000057,3,1.911000013,1,0,1200,349,1,1199,mope,11123,2019-10-22_23h22.11.060,SurveyExpMetaMem,3.2.3,Win32,60
,,,,,,,,,,,,,,,,,,,,5,2.012000084,6,0.333999872,1,0,1200,140,1,1199,riches,11123,2019-10-22_23h22.11.060,SurveyExpMetaMem,3.2.3,Win32,60
,,,,,,,,,,,,,,,,,,,,6,16.17200017,6,0.587000132,1,0,1200,181,1,1199,fascinate,11123,2019-10-22_23h22.11.060,SurveyExpMetaMem,3.2.3,Win32,60
,,,,,,,,,,,,,,,,,,,,5,6.701999903,5,0.253000021,1,0,1200,584,1,1199,anus,11123,2019-10-22_23h22.11.060,SurveyExpMetaMem,3.2.3,Win32,60
,,,,,,,,,,,,,,,,,,,,7,3.474999905,5,1.828999996,1,0,1200,1198,1,1199,lightning,11123,2019-10-22_23h22.11.060,SurveyExpMetaMem,3.2.3,Win32,60
,,,,,,,,,,,,,,,,,,,,5,2.243999958,5,0.241000175,1,0,1200,89,1,1199,cruiseship,11123,2019-10-22_23h22.11.060,SurveyExpMetaMem,3.2.3,Win32,60
,,,,,,,,,,,,,,,,,,,,6,1.70600009,6,1.088999987,1,0,1200,1064,1,1199,sinful,11123,2019-10-22_23h22.11.060,SurveyExpMetaMem,3.2.3,Win32,60
,,,,,,,,,,,,,,,,,,,,5,2.809999943,5,0.336000204,1,0,1200,157,1,1199,reveal,11123,2019-10-22_23h22.11.060,SurveyExpMetaMem,3.2.3,Win32,60
,,,,,,,,,,,,,,,,,,,,5,3.871000051,5,0.470999956,1,0,1200,483,1,1199,condescension,11123,2019-10-22_23h22.11.060,SurveyExpMetaMem,3.2.3,Win32,60
,,,,,,,,,,,,,,,,,,,,5,1.407000065,6,1.52699995,1,0,1200,4,1,1199,night,11123,2019-10-22_23h22.11.060,SurveyExpMetaMem,3.2.3,Win32,60
,,,,,,,,,,,,,,,,,,,,6,2.644000053,6,0.697000027,1,0,1200,38,1,1199,cheeseburger,11123,2019-10-22_23h22.11.060,SurveyExpMetaMem,3.2.3,Win32,60
,,,,,,,,,,,,,,,,,,,,6,8.552999973,7,0.737999916,1,0,1200,886,1,1199,sunflower,11123,2019-10-22_23h22.11.060,SurveyExpMetaMem,3.2.3,Win32,60
,,,,,,,,,,,,,,,,,,,,5,3.503999949,5,0.325000048,1,0,1200,726,1,1199,crackers,11123,2019-10-22_23h22.11.060,SurveyExpMetaMem,3.2.3,Win32,60
,,,,,,,,,,,,,,,,,,,,7,2.541000128,7,1.022000074,1,0,1200,249,1,1199,award,11123,2019-10-22_23h22.11.060,SurveyExpMetaMem,3.2.3,Win32,60
,,,,,,,,,,,,,,,,,,,,5,1.097999811,5,0.279999971,1,0,1200,437,1,1199,blubber,11123,2019-10-22_23h22.11.060,SurveyExpMetaMem,3.2.3,Win32,60
,,,,,,,,,,,,,,,,,,,,5,6.471999884,7,1.271999836,1,0,1200,245,1,1199,beach,11123,2019-10-22_23h22.11.060,SurveyExpMetaMem,3.2.3,Win32,60
,,,,,,,,,,,,,,,,,,,,4,5.833000183,4,2.637000084,1,0,1200,583,1,1199,obey,11123,2019-10-22_23h22.11.060,SurveyExpMetaMem,3.2.3,Win32,60
,,,,,,,,,,,,,,,,,,,,3,2.538000107,2,1.154000044,1,0,1200,354,1,1199,cowardice,11123,2019-10-22_23h22.11.060,SurveyExpMetaMem,3.2.3,Win32,60
,,,,,,,,,,,,,,,,,,,,6,3.838999987,5,1.54399991,1,0,1200,448,1,1199,depart,11123,2019-10-22_23h22.11.060,SurveyExpMetaMem,3.2.3,Win32,60
,,,,,,,,,,,,,,,,,,,,4,3.450000048,3,0.493999958,1,0,1200,382,1,1199,vulnerable,11123,2019-10-22_23h22.11.060,SurveyExpMetaMem,3.2.3,Win32,60
,,,,,,,,,,,,,,,,,,,,5,33.148,5,0.241999865,1,0,1200,1170,1,1199,police,11123,2019-10-22_23h22.11.060,SurveyExpMetaMem,3.2.3,Win32,60
,,,,,,,,,,,,,,,,,,,,5,1.052999973,5,0.230000019,1,0,1200,1093,1,1199,hive,11123,2019-10-22_23h22.11.060,SurveyExpMetaMem,3.2.3,Win32,60
,,,,,,,,,,,,,,,,,,,,5,0.95600009,7,1.552999973,1,0,1200,865,1,1199,bliss,11123,2019-10-22_23h22.11.060,SurveyExpMetaMem,3.2.3,Win32,60
,,,,,,,,,,,,,,,,,,,,5,17.01099992,5,0.203000069,1,0,1200,783,1,1199,sprinkle,11123,2019-10-22_23h22.11.060,SurveyExpMetaMem,3.2.3,Win32,60
,,,,,,,,,,,,,,,,,,,,4,4.089999914,2,0.369999886,1,0,1200,364,1,1199,stink,11123,2019-10-22_23h22.11.060,SurveyExpMetaMem,3.2.3,Win32,60
,,,,,,,,,,,,,,,,,,,,3,6.529000044,1,2.136999846,1,0,1200,975,1,1199,insecure,11123,2019-10-22_23h22.11.060,SurveyExpMetaMem,3.2.3,Win32,60
,,,,,,,,,,,,,,,,,,,,5,2.812000036,5,0.161999941,1,0,1200,633,1,1199,cattle,11123,2019-10-22_23h22.11.060,SurveyExpMetaMem,3.2.3,Win32,60
,,,,,,,,,,,,,,,,,,,,5,5.156000137,5,0.152999878,1,0,1200,765,1,1199,candid,11123,2019-10-22_23h22.11.060,SurveyExpMetaMem,3.2.3,Win32,60
,,,,,,,,,,,,,,,,,,,,6,60.36100006,6,0.507000208,1,0,1200,217,1,1199,bravery,11123,2019-10-22_23h22.11.060,SurveyExpMetaMem,3.2.3,Win32,60
,,,,,,,,,,,,,,,,,,,,5,1.453999996,5,0.29700017,1,0,1200,610,1,1199,miniature,11123,2019-10-22_23h22.11.060,SurveyExpMetaMem,3.2.3,Win32,60
,,,,,,,,,,,,,,,,,,,,4,2.359000206,3,1.653000116,1,0,1200,340,1,1199,coward,11123,2019-10-22_23h22.11.060,SurveyExpMetaMem,3.2.3,Win32,60
,,,,,,,,,,,,,,,,,,,,5,5.151000023,5,0.380999804,1,0,1200,653,1,1199,detail,11123,2019-10-22_23h22.11.060,SurveyExpMetaMem,3.2.3,Win32,60
,,,,,,,,,,,,,,,,,,,,5,0.903999805,5,0.506000042,1,0,1200,723,1,1199,cinnamon,11123,2019-10-22_23h22.11.060,SurveyExpMetaMem,3.2.3,Win32,60
,,,,,,,,,,,,,,,,,,,,7,3.388000011,6,1.871999979,1,0,1200,1196,1,1199,breathless,11123,2019-10-22_23h22.11.060,SurveyExpMetaMem,3.2.3,Win32,60
,,,,,,,,,,,,,,,,,,,,5,5.565999985,4,0.453000069,1,0,1200,492,1,1199,naive,11123,2019-10-22_23h22.11.060,SurveyExpMetaMem,3.2.3,Win32,60
,,,,,,,,,,,,,,,,,,,,3,2.450999975,2,1.421999931,1,0,1200,920,1,1199,hurt,11123,2019-10-22_23h22.11.060,SurveyExpMetaMem,3.2.3,Win32,60
,,,,,,,,,,,,,,,,,,,,3,3.616999865,7,1.090999842,1,0,1200,811,1,1199,tenderness,11123,2019-10-22_23h22.11.060,SurveyExpMetaMem,3.2.3,Win32,60
,,,,,,,,,,,,,,,,,,,,7,2.2900002,5,1.516000032,1,0,1200,208,1,1199,wild,11123,2019-10-22_23h22.11.060,SurveyExpMetaMem,3.2.3,Win32,60
,,,,,,,,,,,,,,,,,,,,5,4.728000164,3,1.308000088,1,0,1200,334,1,1199,trash,11123,2019-10-22_23h22.11.060,SurveyExpMetaMem,3.2.3,Win32,60
,,,,,,,,,,,,,,,,,,,,5,6.833999872,5,0.414000034,1,0,1200,715,1,1199,sheltered,11123,2019-10-22_23h22.11.060,SurveyExpMetaMem,3.2.3,Win32,60
,,,,,,,,,,,,,,,,,,,,5,1.233999968,5,0.355000019,1,0,1200,730,1,1199,slogan,11123,2019-10-22_23h22.11.060,SurveyExpMetaMem,3.2.3,Win32,60
,,,,,,,,,,,,,,,,,,,,5,2.772000074,3,0.897000074,1,0,1200,329,1,1199,worse,11123,2019-10-22_23h22.11.060,SurveyExpMetaMem,3.2.3,Win32,60
,,,,,,,,,,,,,,,,,,,,7,2.23300004,7,1.169999838,1,0,1200,244,1,1199,sexy,11123,2019-10-22_23h22.11.060,SurveyExpMetaMem,3.2.3,Win32,60
,,,,,,,,,,,,,,,,,,,,5,2.434000015,4,1.179000139,1,0,1200,439,1,1199,spit,11123,2019-10-22_23h22.11.060,SurveyExpMetaMem,3.2.3,Win32,60
,,,,,,,,,,,,,,,,,,,,3,30.08100009,3,0.552000046,1,0,1200,447,1,1199,dishes,11123,2019-10-22_23h22.11.060,SurveyExpMetaMem,3.2.3,Win32,60
,,,,,,,,,,,,,,,,,,,,5,11.58399987,6,0.553000212,1,0,1200,169,1,1199,aid,11123,2019-10-22_23h22.11.060,SurveyExpMetaMem,3.2.3,Win32,60
,,,,,,,,,,,,,,,,,,,,5,2.347000122,5,0.377000093,1,0,1200,537,1,1199,absurd,11123,2019-10-22_23h22.11.060,SurveyExpMetaMem,3.2.3,Win32,60
,,,,,,,,,,,,,,,,,,,,3,6.266000032,3,0.34800005,1,0,1200,338,1,1199,obesity,11123,2019-10-22_23h22.11.060,SurveyExpMetaMem,3.2.3,Win32,60
,,,,,,,,,,,,,,,,,,,,6,6.563999891,8,0.898000002,1,0,1200,190,1,1199,rescue,11123,2019-10-22_23h22.11.060,SurveyExpMetaMem,3.2.3,Win32,60
,,,,,,,,,,,,,,,,,,,,7,16.25999999,2,0.915999889,1,0,1200,1157,1,1199,slayer,11123,2019-10-22_23h22.11.060,SurveyExpMetaMem,3.2.3,Win32,60
,,,,,,,,,,,,,,,,,,,,5,3.450999975,5,0.463000059,1,0,1200,626,1,1199,pan,11123,2019-10-22_23h22.11.060,SurveyExpMetaMem,3.2.3,Win32,60
,,,,,,,,,,,,,,,,,,,,5,4.601000071,8,1.805999994,1,0,1200,273,1,1199,worthwhile,11123,2019-10-22_23h22.11.060,SurveyExpMetaMem,3.2.3,Win32,60
,,,,,,,,,,,,,,,,,,,,5,2.516000032,5,0.299000025,1,0,1200,177,1,1199,frosting,11123,2019-10-22_23h22.11.060,SurveyExpMetaMem,3.2.3,Win32,60
,,,,,,,,,,,,,,,,,,,,5,2.164000034,2,0.881000042,1,0,1200,919,1,1199,loss,11123,2019-10-22_23h22.11.060,SurveyExpMetaMem,3.2.3,Win32,60
,,,,,,,,,,,,,,,,,,,,4,10.88899994,6,1.868000031,1,0,1200,635,1,1199,sensitive,11123,2019-10-22_23h22.11.060,SurveyExpMetaMem,3.2.3,Win32,60
,,,,,,,,,,,,,,,,,,,,5,2.215000153,5,0.230000019,1,0,1200,661,1,1199,cow,11123,2019-10-22_23h22.11.060,SurveyExpMetaMem,3.2.3,Win32,60
,,,,,,,,,,,,,,,,,,,,5,6.857000113,5,0.279000044,1,0,1200,554,1,1199,label,11123,2019-10-22_23h22.11.060,SurveyExpMetaMem,3.2.3,Win32,60
,,,,,,,,,,,,,,,,,,,,5,1.231999874,3,1.434000015,1,0,1200,462,1,1199,shallow,11123,2019-10-22_23h22.11.060,SurveyExpMetaMem,3.2.3,Win32,60
,,,,,,,,,,,,,,,,,,,,6,6.816999912,4,1.230999947,1,0,1200,1194,1,1199,obsession,11123,2019-10-22_23h22.11.060,SurveyExpMetaMem,3.2.3,Win32,60
,,,,,,,,,,,,,,,,,,,,5,1.680999994,3,0.60800004,1,0,1200,569,1,1199,onion,11123,2019-10-22_23h22.11.060,SurveyExpMetaMem,3.2.3,Win32,60
,,,,,,,,,,,,,,,,,,,,6,19.28299999,7,1.080999851,1,0,1200,643,1,1199,library,11123,2019-10-22_23h22.11.060,SurveyExpMetaMem,3.2.3,Win32,60
,,,,,,,,,,,,,,,,,,,,5,1.416999817,5,0.235000134,1,0,1200,663,1,1199,trout,11123,2019-10-22_23h22.11.060,SurveyExpMetaMem,3.2.3,Win32,60
,,,,,,,,,,,,,,,,,,,,5,4.948000193,5,0.243999958,1,0,1200,780,1,1199,grass,11123,2019-10-22_23h22.11.060,SurveyExpMetaMem,3.2.3,Win32,60
,,,,,,,,,,,,,,,,,,,,5,1.434000015,5,0.263000011,1,0,1200,825,1,1199,swan,11123,2019-10-22_23h22.11.060,SurveyExpMetaMem,3.2.3,Win32,60
,,,,,,,,,,,,,,,,,,,,2,10.71399999,4,1.446000099,1,0,1200,511,1,1199,slouch,11123,2019-10-22_23h22.11.060,SurveyExpMetaMem,3.2.3,Win32,60
,,,,,,,,,,,,,,,,,,,,5,2.774000168,4,1.703000069,1,0,1200,475,1,1199,nameless,11123,2019-10-22_23h22.11.060,SurveyExpMetaMem,3.2.3,Win32,60
,,,,,,,,,,,,,,,,,,,,8,2.368000031,5,1.450999975,1,0,1200,55,1,1199,rare,11123,2019-10-22_23h22.11.060,SurveyExpMetaMem,3.2.3,Win32,60
,,,,,,,,,,,,,,,,,,,,5,20.82999992,6,1.436000109,1,0,1200,131,1,1199,treat,11123,2019-10-22_23h22.11.060,SurveyExpMetaMem,3.2.3,Win32,60
,,,,,,,,,,,,,,,,,,,,5,2.118000031,5,0.371000051,1,0,1200,558,1,1199,punk,11123,2019-10-22_23h22.11.060,SurveyExpMetaMem,3.2.3,Win32,60
,,,,,,,,,,,,,,,,,,,,6,2.608999968,2,0.736000061,1,0,1200,1092,1,1199,rattlesnake,11123,2019-10-22_23h22.11.060,SurveyExpMetaMem,3.2.3,Win32,60
,,,,,,,,,,,,,,,,,,,,5,2.173000097,2,0.392999887,1,0,1200,1070,1,1199,bleed,11123,2019-10-22_23h22.11.060,SurveyExpMetaMem,3.2.3,Win32,60
,,,,,,,,,,,,,,,,,,,,3,4.274000168,2,0.887000084,1,0,1200,963,1,1199,dreadful,11123,2019-10-22_23h22.11.060,SurveyExpMetaMem,3.2.3,Win32,60
,,,,,,,,,,,,,,,,,,,,5,1.913000107,5,0.299000025,1,0,1200,7,1,1199,duet,11123,2019-10-22_23h22.11.060,SurveyExpMetaMem,3.2.3,Win32,60
,,,,,,,,,,,,,,,,,,,,5,1.00999999,8,1.075000048,1,0,1200,116,1,1199,carnival,11123,2019-10-22_23h22.11.060,SurveyExpMetaMem,3.2.3,Win32,60
,,,,,,,,,,,,,,,,,,,,7,2.671000004,9,0.523000002,1,0,1200,195,1,1199,laughing,11123,2019-10-22_23h22.11.060,SurveyExpMetaMem,3.2.3,Win32,60
,,,,,,,,,,,,,,,,,,,,6,43.1730001,8,1.270999908,1,0,1200,138,1,1199,blessings,11123,2019-10-22_23h22.11.060,SurveyExpMetaMem,3.2.3,Win32,60
,,,,,,,,,,,,,,,,,,,,5,124.573,5,0.125999928,1,0,1200,761,1,1199,corn,11123,2019-10-22_23h22.11.060,SurveyExpMetaMem,3.2.3,Win32,60
,,,,,,,,,,,,,,,,,,,,4,720.5969999,4,0.154000044,1,0,1200,471,1,1199,chump,11123,2019-10-22_23h22.11.060,SurveyExpMetaMem,3.2.3,Win32,60
,,,,,,,,,,,,,,,,,,,,2,311.1399999,8,2.128999949,1,0,1200,229,1,1199,heaven,11123,2019-10-22_23h22.11.060,SurveyExpMetaMem,3.2.3,Win32,60
,,,,,,,,,,,,,,,,,,,,5,2.144999981,5,0.154999971,1,0,1200,1146,1,1199,bug,11123,2019-10-22_23h22.11.060,SurveyExpMetaMem,3.2.3,Win32,60
,,,,,,,,,,,,,,,,,,,,3,3.882999897,1,1.464999914,1,0,1200,330,1,1199,sunburn,11123,2019-10-22_23h22.11.060,SurveyExpMetaMem,3.2.3,Win32,60
,,,,,,,,,,,,,,,,,,,,5,2.544999838,7,0.496999979,1,0,1200,672,1,1199,ketchup,11123,2019-10-22_23h22.11.060,SurveyExpMetaMem,3.2.3,Win32,60
,,,,,,,,,,,,,,,,,,,,5,4.263999939,5,0.197999954,1,0,1200,163,1,1199,gem,11123,2019-10-22_23h22.11.060,SurveyExpMetaMem,3.2.3,Win32,60
,,,,,,,,,,,,,,,,,,,,4,23.56900001,2,1.13499999,1,0,1200,964,1,1199,grieve,11123,2019-10-22_23h22.11.060,SurveyExpMetaMem,3.2.3,Win32,60
,,,,,,,,,,,,,,,,,,,,5,3.095999956,5,0.232000113,1,0,1200,640,1,1199,cabin,11123,2019-10-22_23h22.11.060,SurveyExpMetaMem,3.2.3,Win32,60
,,,,,,,,,,,,,,,,,,,,6,1.694999933,5,0.842999935,1,0,1200,1176,1,1199,vampire,11123,2019-10-22_23h22.11.060,SurveyExpMetaMem,3.2.3,Win32,60
,,,,,,,,,,,,,,,,,,,,7,8.985000134,7,1.636999846,1,0,1200,1051,1,1199,insane,11123,2019-10-22_23h22.11.060,SurveyExpMetaMem,3.2.3,Win32,60
,,,,,,,,,,,,,,,,,,,,5,14.08299994,6,0.583999872,1,0,1200,70,1,1199,cartoon,11123,2019-10-22_23h22.11.060,SurveyExpMetaMem,3.2.3,Win32,60
,,,,,,,,,,,,,,,,,,,,5,1.082000017,5,0.197999954,1,0,1200,831,1,1199,sofa,11123,2019-10-22_23h22.11.060,SurveyExpMetaMem,3.2.3,Win32,60
,,,,,,,,,,,,,,,,,,,,5,3.428999901,6,1.382999897,1,0,1200,782,1,1199,open,11123,2019-10-22_23h22.11.060,SurveyExpMetaMem,3.2.3,Win32,60
,,,,,,,,,,,,,,,,,,,,4,5.336000204,2,0.685000181,1,0,1200,991,1,1199,harass,11123,2019-10-22_23h22.11.060,SurveyExpMetaMem,3.2.3,Win32,60
,,,,,,,,,,,,,,,,,,,,7,5.049000025,6,2.880000114,1,0,1200,100,1,1199,intense,11123,2019-10-22_23h22.11.060,SurveyExpMetaMem,3.2.3,Win32,60
,,,,,,,,,,,,,,,,,,,,1,7.879999876,5,1.01699996,1,0,1200,720,1,1199,stable,11123,2019-10-22_23h22.11.060,SurveyExpMetaMem,3.2.3,Win32,60
,,,,,,,,,,,,,,,,,,,,4,3.048000097,5,0.999000072,1,0,1200,887,1,1199,elegant,11123,2019-10-22_23h22.11.060,SurveyExpMetaMem,3.2.3,Win32,60
,,,,,,,,,,,,,,,,,,,,6,7.713000059,8,0.90199995,1,0,1200,31,1,1199,brownie,11123,2019-10-22_23h22.11.060,SurveyExpMetaMem,3.2.3,Win32,60
,,,,,,,,,,,,,,,,,,,,5,4.651000023,5,0.185000181,1,0,1200,51,1,1199,body,11123,2019-10-22_23h22.11.060,SurveyExpMetaMem,3.2.3,Win32,60
,,,,,,,,,,,,,,,,,,,,5,4.611000061,3,1.114000082,1,0,1200,307,1,1199,sick,11123,2019-10-22_23h22.11.060,SurveyExpMetaMem,3.2.3,Win32,60
,,,,,,,,,,,,,,,,,,,,5,84.03600001,4,1.36500001,1,0,1200,1040,1,1199,communism,11123,2019-10-22_23h22.11.060,SurveyExpMetaMem,3.2.3,Win32,60
,,,,,,,,,,,,,,,,,,,,7,2.83100009,7,0.881999969,1,0,1200,844,1,1199,soul,11123,2019-10-22_23h22.11.060,SurveyExpMetaMem,3.2.3,Win32,60
,,,,,,,,,,,,,,,,,,,,7,2.555999994,8,1.636000156,1,0,1200,105,1,1199,curious,11123,2019-10-22_23h22.11.060,SurveyExpMetaMem,3.2.3,Win32,60
,,,,,,,,,,,,,,,,,,,,8,1.513000011,9,0.476000071,1,0,1200,183,1,1199,congratulate,11123,2019-10-22_23h22.11.060,SurveyExpMetaMem,3.2.3,Win32,60
,,,,,,,,,,,,,,,,,,,,1,3.367000103,8,1.996999979,1,0,1200,892,1,1199,untroubled,11123,2019-10-22_23h22.11.060,SurveyExpMetaMem,3.2.3,Win32,60
,,,,,,,,,,,,,,,,,,,,6,4.111999989,4,0.345999956,1,0,1200,1103,1,1199,mob,11123,2019-10-22_23h22.11.060,SurveyExpMetaMem,3.2.3,Win32,60
,,,,,,,,,,,,,,,,,,,,5,7.148999929,5,0.417000055,1,0,1200,65,1,1199,restaurant,11123,2019-10-22_23h22.11.060,SurveyExpMetaMem,3.2.3,Win32,60
,,,,,,,,,,,,,,,,,,,,6,2.477999926,9,0.837000132,1,0,1200,99,1,1199,funny,11123,2019-10-22_23h22.11.060,SurveyExpMetaMem,3.2.3,Win32,60
,,,,,,,,,,,,,,,,,,,,5,1.799000025,5,0.427000046,1,0,1200,682,1,1199,camel,11123,2019-10-22_23h22.11.060,SurveyExpMetaMem,3.2.3,Win32,60
,,,,,,,,,,,,,,,,,,,,5,1.649999857,4,1.229000092,1,0,1200,1023,1,1199,disorder,11123,2019-10-22_23h22.11.060,SurveyExpMetaMem,3.2.3,Win32,60
,,,,,,,,,,,,,,,,,,,,5,2.913000107,5,0.265000105,1,0,1200,506,1,1199,lower,11123,2019-10-22_23h22.11.060,SurveyExpMetaMem,3.2.3,Win32,60
,,,,,,,,,,,,,,,,,,,,7,9.360999823,9,1.015999794,1,0,1200,36,1,1199,puppy,11123,2019-10-22_23h22.11.060,SurveyExpMetaMem,3.2.3,Win32,60
,,,,,,,,,,,,,,,,,,,,4,2.723999977,2,0.450000048,1,0,1200,305,1,1199,frown,11123,2019-10-22_23h22.11.060,SurveyExpMetaMem,3.2.3,Win32,60
,,,,,,,,,,,,,,,,,,,,1,2.765000105,1,0.559999943,1,0,1200,993,1,1199,remorse,11123,2019-10-22_23h22.11.060,SurveyExpMetaMem,3.2.3,Win32,60
,,,,,,,,,,,,,,,,,,,,6,5.215999842,8,0.319000006,1,0,1200,175,1,1199,playground,11123,2019-10-22_23h22.11.060,SurveyExpMetaMem,3.2.3,Win32,60
,,,,,,,,,,,,,,,,,,,,4,9.299999952,3,1.390000105,1,0,1200,902,1,1199,rejected,11123,2019-10-22_23h22.11.060,SurveyExpMetaMem,3.2.3,Win32,60
,,,,,,,,,,,,,,,,,,,,5,5.19900012,8,0.275000095,1,0,1200,91,1,1199,pretty,11123,2019-10-22_23h22.11.060,SurveyExpMetaMem,3.2.3,Win32,60
,,,,,,,,,,,,,,,,,,,,6,26.02800012,5,1.832999945,1,0,1200,523,1,1199,witch,11123,2019-10-22_23h22.11.060,SurveyExpMetaMem,3.2.3,Win32,60
,,,,,,,,,,,,,,,,,,,,3,3.495000124,5,1.532999992,1,0,1200,396,1,1199,unpopular,11123,2019-10-22_23h22.11.060,SurveyExpMetaMem,3.2.3,Win32,60
,,,,,,,,,,,,,,,,,,,,5,3.149999857,5,0.299999952,1,0,1200,714,1,1199,courtyard,11123,2019-10-22_23h22.11.060,SurveyExpMetaMem,3.2.3,Win32,60
,,,,,,,,,,,,,,,,,,,,5,2.380000114,5,0.343999863,1,0,1200,676,1,1199,straighten,11123,2019-10-22_23h22.11.060,SurveyExpMetaMem,3.2.3,Win32,60
,,,,,,,,,,,,,,,,,,,,5,29.97799993,5,0.648999929,1,0,1200,998,1,1199,virus,11123,2019-10-22_23h22.11.060,SurveyExpMetaMem,3.2.3,Win32,60
,,,,,,,,,,,,,,,,,,,,5,3.562000036,5,0.314999819,1,0,1200,646,1,1199,wear,11123,2019-10-22_23h22.11.060,SurveyExpMetaMem,3.2.3,Win32,60
,,,,,,,,,,,,,,,,,,,,5,1.796000004,5,0.740999937,1,0,1200,321,1,1199,wart,11123,2019-10-22_23h22.11.060,SurveyExpMetaMem,3.2.3,Win32,60
,,,,,,,,,,,,,,,,,,,,4,2.417999983,2,0.396999836,1,0,1200,357,1,1199,whine,11123,2019-10-22_23h22.11.060,SurveyExpMetaMem,3.2.3,Win32,60
,,,,,,,,,,,,,,,,,,,,5,5.513000011,3,1.11500001,1,0,1200,468,1,1199,noose,11123,2019-10-22_23h22.11.060,SurveyExpMetaMem,3.2.3,Win32,60
,,,,,,,,,,,,,,,,,,,,5,5.278000116,5,1.999000072,1,0,1200,644,1,1199,farm,11123,2019-10-22_23h22.11.060,SurveyExpMetaMem,3.2.3,Win32,60
,,,,,,,,,,,,,,,,,,,,6,5.562000036,7,1.26699996,1,0,1200,172,1,1199,potential,11123,2019-10-22_23h22.11.060,SurveyExpMetaMem,3.2.3,Win32,60
,,,,,,,,,,,,,,,,,,,,7,2.07799983,3,0.768999815,1,0,1200,1047,1,1199,psycho,11123,2019-10-22_23h22.11.060,SurveyExpMetaMem,3.2.3,Win32,60
,,,,,,,,,,,,,,,,,,,,5,1.707999945,5,0.319000006,1,0,1200,807,1,1199,person,11123,2019-10-22_23h22.11.060,SurveyExpMetaMem,3.2.3,Win32,60
,,,,,,,,,,,,,,,,,,,,5,1.215999842,5,0.312999964,1,0,1200,400,1,1199,urine,11123,2019-10-22_23h22.11.060,SurveyExpMetaMem,3.2.3,Win32,60
,,,,,,,,,,,,,,,,,,,,5,4.897000074,5,1.114000082,1,0,1200,518,1,1199,report,11123,2019-10-22_23h22.11.060,SurveyExpMetaMem,3.2.3,Win32,60
,,,,,,,,,,,,,,,,,,,,4,5.114000082,2,0.446000099,1,0,1200,943,1,1199,trauma,11123,2019-10-22_23h22.11.060,SurveyExpMetaMem,3.2.3,Win32,60
,,,,,,,,,,,,,,,,,,,,5,10.46399999,5,0.316999912,1,0,1200,678,1,1199,lightbulb,11123,2019-10-22_23h22.11.060,SurveyExpMetaMem,3.2.3,Win32,60
,,,,,,,,,,,,,,,,,,,,8,2.249000072,8,1.016000032,1,0,1200,45,1,1199,sex,11123,2019-10-22_23h22.11.060,SurveyExpMetaMem,3.2.3,Win32,60
,,,,,,,,,,,,,,,,,,,,5,4.227999926,5,0.631999969,1,0,1200,1097,1,1199,bees,11123,2019-10-22_23h22.11.060,SurveyExpMetaMem,3.2.3,Win32,60
,,,,,,,,,,,,,,,,,,,,7,2.048000097,2,0.598999977,1,0,1200,1033,1,1199,horror,11123,2019-10-22_23h22.11.060,SurveyExpMetaMem,3.2.3,Win32,60
,,,,,,,,,,,,,,,,,,,,6,1.83100009,2,0.61500001,1,0,1200,962,1,1199,poisonous,11123,2019-10-22_23h22.11.060,SurveyExpMetaMem,3.2.3,Win32,60
,,,,,,,,,,,,,,,,,,,,5,2.612999916,3,2.098999977,1,0,1200,399,1,1199,withdrawn,11123,2019-10-22_23h22.11.060,SurveyExpMetaMem,3.2.3,Win32,60
,,,,,,,,,,,,,,,,,,,,5,2.146000147,6,0.764000177,1,0,1200,213,1,1199,fair,11123,2019-10-22_23h22.11.060,SurveyExpMetaMem,3.2.3,Win32,60
,,,,,,,,,,,,,,,,,,,,6,2.195999861,7,0.368999958,1,0,1200,270,1,1199,toddler,11123,2019-10-22_23h22.11.060,SurveyExpMetaMem,3.2.3,Win32,60
,,,,,,,,,,,,,,,,,,,,9,2.517999887,9,0.196999788,1,0,1200,136,1,1199,dog,11123,2019-10-22_23h22.11.060,SurveyExpMetaMem,3.2.3,Win32,60
,,,,,,,,,,,,,,,,,,,,5,1.648000002,5,0.230999947,1,0,1200,513,1,1199,bland,11123,2019-10-22_23h22.11.060,SurveyExpMetaMem,3.2.3,Win32,60
,,,,,,,,,,,,,,,,,,,,5,1.463999987,3,0.375,1,0,1200,914,1,1199,fail,11123,2019-10-22_23h22.11.060,SurveyExpMetaMem,3.2.3,Win32,60
,,,,,,,,,,,,,,,,,,,,6,3.051000118,7,1.217000008,1,0,1200,37,1,1199,magnificence,11123,2019-10-22_23h22.11.060,SurveyExpMetaMem,3.2.3,Win32,60
,,,,,,,,,,,,,,,,,,,,5,2.215999842,5,0.463999987,1,0,1200,1188,1,1199,swear,11123,2019-10-22_23h22.11.060,SurveyExpMetaMem,3.2.3,Win32,60
,,,,,,,,,,,,,,,,,,,,5,1.628000021,3,1.46600008,1,0,1200,592,1,1199,sweep,11123,2019-10-22_23h22.11.060,SurveyExpMetaMem,3.2.3,Win32,60
,,,,,,,,,,,,,,,,,,,,6,10.17400002,8,0.417999983,1,0,1200,231,1,1199,cherish,11123,2019-10-22_23h22.11.060,SurveyExpMetaMem,3.2.3,Win32,60
,,,,,,,,,,,,,,,,,,,,6,2.737999916,7,0.469000101,1,0,1200,21,1,1199,game,11123,2019-10-22_23h22.11.060,SurveyExpMetaMem,3.2.3,Win32,60
,,,,,,,,,,,,,,,,,,,,7,2.031000137,3,0.999000072,1,0,1200,990,1,1199,enraged,11123,2019-10-22_23h22.11.060,SurveyExpMetaMem,3.2.3,Win32,60
,,,,,,,,,,,,,,,,,,,,8,1.811000109,8,1.381999969,1,0,1200,275,1,1199,brilliant,11123,2019-10-22_23h22.11.060,SurveyExpMetaMem,3.2.3,Win32,60
,,,,,,,,,,,,,,,,,,,,6,3.881000042,7,0.979000092,1,0,1200,191,1,1199,compassion,11123,2019-10-22_23h22.11.060,SurveyExpMetaMem,3.2.3,Win32,60
,,,,,,,,,,,,,,,,,,,,8,2.133999825,9,0.698999882,1,0,1200,286,1,1199,superstar,11123,2019-10-22_23h22.11.060,SurveyExpMetaMem,3.2.3,Win32,60
,,,,,,,,,,,,,,,,,,,,5,3.213000059,5,0.180999994,1,0,1200,210,1,1199,elephant,11123,2019-10-22_23h22.11.060,SurveyExpMetaMem,3.2.3,Win32,60
,,,,,,,,,,,,,,,,,,,,8,2.228000164,5,2.065000057,1,0,1200,465,1,1199,void,11123,2019-10-22_23h22.11.060,SurveyExpMetaMem,3.2.3,Win32,60
,,,,,,,,,,,,,,,,,,,,5,5.592999935,5,0.848999977,1,0,1200,13,1,1199,mingle,11123,2019-10-22_23h22.11.060,SurveyExpMetaMem,3.2.3,Win32,60
,,,,,,,,,,,,,,,,,,,,5,14.67700005,5,0.400000095,1,0,1200,778,1,1199,adorn,11123,2019-10-22_23h22.11.060,SurveyExpMetaMem,3.2.3,Win32,60
,,,,,,,,,,,,,,,,,,,,4,2.162000179,2,0.516000032,1,0,1200,302,1,1199,loneliness,11123,2019-10-22_23h22.11.060,SurveyExpMetaMem,3.2.3,Win32,60
,,,,,,,,,,,,,,,,,,,,5,3.976999998,2,0.631999969,1,0,1200,405,1,1199,fatigued,11123,2019-10-22_23h22.11.060,SurveyExpMetaMem,3.2.3,Win32,60
,,,,,,,,,,,,,,,,,,,,5,1.776000023,5,0.263999939,1,0,1200,746,1,1199,proper,11123,2019-10-22_23h22.11.060,SurveyExpMetaMem,3.2.3,Win32,60
,,,,,,,,,,,,,,,,,,,,6,3.246000051,8,1.34800005,1,0,1200,171,1,1199,imagination,11123,2019-10-22_23h22.11.060,SurveyExpMetaMem,3.2.3,Win32,60
,,,,,,,,,,,,,,,,,,,,5,2.197999954,3,1.114000082,1,0,1200,428,1,1199,end,11123,2019-10-22_23h22.11.060,SurveyExpMetaMem,3.2.3,Win32,60
,,,,,,,,,,,,,,,,,,,,5,2.262999773,5,0.180999994,1,0,1200,841,1,1199,bathtub,11123,2019-10-22_23h22.11.060,SurveyExpMetaMem,3.2.3,Win32,60
,,,,,,,,,,,,,,,,,,,,4,5.680000067,3,0.61500001,1,0,1200,543,1,1199,gloat,11123,2019-10-22_23h22.11.060,SurveyExpMetaMem,3.2.3,Win32,60
,,,,,,,,,,,,,,,,,,,,4,1.593999863,3,0.398000002,1,0,1200,1081,1,1199,damage,11123,2019-10-22_23h22.11.060,SurveyExpMetaMem,3.2.3,Win32,60
,,,,,,,,,,,,,,,,,,,,6,12.44499993,5,0.964999914,1,0,1200,250,1,1199,erupt,11123,2019-10-22_23h22.11.060,SurveyExpMetaMem,3.2.3,Win32,60
,,,,,,,,,,,,,,,,,,,,6,3.54399991,3,0.547999859,1,0,1200,918,1,1199,gunpoint,11123,2019-10-22_23h22.11.060,SurveyExpMetaMem,3.2.3,Win32,60
,,,,,,,,,,,,,,,,,,,,5,2.782000065,2,0.809000015,1,0,1200,1065,1,1199,slap,11123,2019-10-22_23h22.11.060,SurveyExpMetaMem,3.2.3,Win32,60
,,,,,,,,,,,,,,,,,,,,5,2.799999952,5,0.345999956,1,0,1200,660,1,1199,rock,11123,2019-10-22_23h22.11.060,SurveyExpMetaMem,3.2.3,Win32,60
,,,,,,,,,,,,,,,,,,,,5,10.91100001,3,0.765999794,1,0,1200,560,1,1199,spurn,11123,2019-10-22_23h22.11.060,SurveyExpMetaMem,3.2.3,Win32,60
,,,,,,,,,,,,,,,,,,,,5,2.295000076,5,0.582999945,1,0,1200,648,1,1199,beads,11123,2019-10-22_23h22.11.060,SurveyExpMetaMem,3.2.3,Win32,60
,,,,,,,,,,,,,,,,,,,,7,3.911999941,7,1.4150002,1,0,1200,187,1,1199,excite,11123,2019-10-22_23h22.11.060,SurveyExpMetaMem,3.2.3,Win32,60
,,,,,,,,,,,,,,,,,,,,5,4.529999971,5,0.347000122,1,0,1200,19,1,1199,firefighter,11123,2019-10-22_23h22.11.060,SurveyExpMetaMem,3.2.3,Win32,60
,,,,,,,,,,,,,,,,,,,,2,3.184000015,7,0.952000141,1,0,1200,863,1,1199,fireplace,11123,2019-10-22_23h22.11.060,SurveyExpMetaMem,3.2.3,Win32,60
