mouse_4.x,mouse_4.y,mouse_4.leftButton,mouse_4.midButton,mouse_4.rightButton,mouse.x,mouse.y,mouse.leftButton,mouse.midButton,mouse.rightButton,mouse_2.x,mouse_2.y,mouse_2.leftButton,mouse_2.midButton,mouse_2.rightButton,mouse_3.x,mouse_3.y,mouse_3.leftButton,mouse_3.midButton,mouse_3.rightButton,A_key_resp.keys,A_key_resp.rt,key_resp.keys,key_resp.rt,trials.thisRepN,trials.thisTrialN,trials.thisN,trials.thisIndex,trials.ran,trials.order,word,ParticipantID,date,expName,psychopyVersion,OS,frameRate
0.119444459,-0.195370381,1,0,0,0.483333354,0.180555551,1,0,0,0.094444459,-0.194444455,1,0,0,0.036111125,-0.196296363,1,0,0,5,10.921,3,4.733999968,1,0,1200,1190,1,1199,clench,11133,2019-10-22_08h20.02.454,SurveyExpMetaMem,3.2.3,Win32,60
,,,,,,,,,,,,,,,,,,,,7,5.55700016,2,1.218000174,1,0,1200,317,1,1199,cry,11133,2019-10-22_08h20.02.454,SurveyExpMetaMem,3.2.3,Win32,60
,,,,,,,,,,,,,,,,,,,,4,6.792000055,2,1.495000124,1,0,1200,332,1,1199,sewage,11133,2019-10-22_08h20.02.454,SurveyExpMetaMem,3.2.3,Win32,60
,,,,,,,,,,,,,,,,,,,,1,3.427000046,5,2.135999918,1,0,1200,836,1,1199,lounge,11133,2019-10-22_08h20.02.454,SurveyExpMetaMem,3.2.3,Win32,60
,,,,,,,,,,,,,,,,,,,,8,2.907999992,8,2.555000067,1,0,1200,129,1,1199,fly,11133,2019-10-22_08h20.02.454,SurveyExpMetaMem,3.2.3,Win32,60
,,,,,,,,,,,,,,,,,,,,1,6.812000036,5,1.308000088,1,0,1200,744,1,1199,village,11133,2019-10-22_08h20.02.454,SurveyExpMetaMem,3.2.3,Win32,60
,,,,,,,,,,,,,,,,,,,,6,2.430000067,5,7.045999765,1,0,1200,59,1,1199,sports,11133,2019-10-22_08h20.02.454,SurveyExpMetaMem,3.2.3,Win32,60
,,,,,,,,,,,,,,,,,,,,7,2.971999884,7,1.055000067,1,0,1200,62,1,1199,interested,11133,2019-10-22_08h20.02.454,SurveyExpMetaMem,3.2.3,Win32,60
,,,,,,,,,,,,,,,,,,,,5,5.967000008,5,1.635999918,1,0,1200,826,1,1199,poem,11133,2019-10-22_08h20.02.454,SurveyExpMetaMem,3.2.3,Win32,60
,,,,,,,,,,,,,,,,,,,,5,3.796000004,5,0.852999926,1,0,1200,673,1,1199,bedspread,11133,2019-10-22_08h20.02.454,SurveyExpMetaMem,3.2.3,Win32,60
,,,,,,,,,,,,,,,,,,,,3,5.029999971,3,6.345000029,1,0,1200,497,1,1199,pungent,11133,2019-10-22_08h20.02.454,SurveyExpMetaMem,3.2.3,Win32,60
,,,,,,,,,,,,,,,,,,,,1,3.568000078,4,3.440999985,1,0,1200,559,1,1199,lazy,11133,2019-10-22_08h20.02.454,SurveyExpMetaMem,3.2.3,Win32,60
,,,,,,,,,,,,,,,,,,,,5,1.91899991,5,0.703999996,1,0,1200,855,1,1199,girl,11133,2019-10-22_08h20.02.454,SurveyExpMetaMem,3.2.3,Win32,60
,,,,,,,,,,,,,,,,,,,,5,3.940999985,5,0.787999868,1,0,1200,821,1,1199,cottage,11133,2019-10-22_08h20.02.454,SurveyExpMetaMem,3.2.3,Win32,60
,,,,,,,,,,,,,,,,,,,,5,3.351999998,5,0.470999956,1,0,1200,228,1,1199,suite,11133,2019-10-22_08h20.02.454,SurveyExpMetaMem,3.2.3,Win32,60
,,,,,,,,,,,,,,,,,,,,2,5.750999928,7,2.153000116,1,0,1200,837,1,1199,responsible,11133,2019-10-22_08h20.02.454,SurveyExpMetaMem,3.2.3,Win32,60
,,,,,,,,,,,,,,,,,,,,5,4.730000019,3,2.820000172,1,0,1200,366,1,1199,fatigue,11133,2019-10-22_08h20.02.454,SurveyExpMetaMem,3.2.3,Win32,60
,,,,,,,,,,,,,,,,,,,,8,3.111000061,2,1.323999882,1,0,1200,1043,1,1199,scold,11133,2019-10-22_08h20.02.454,SurveyExpMetaMem,3.2.3,Win32,60
,,,,,,,,,,,,,,,,,,,,5,10.65799999,2,2.407999992,1,0,1200,1023,1,1199,disorder,11133,2019-10-22_08h20.02.454,SurveyExpMetaMem,3.2.3,Win32,60
,,,,,,,,,,,,,,,,,,,,8,7.495000124,1,1.339999914,1,0,1200,1028,1,1199,terror,11133,2019-10-22_08h20.02.454,SurveyExpMetaMem,3.2.3,Win32,60
,,,,,,,,,,,,,,,,,,,,5,5.865999937,4,2.053999901,1,0,1200,561,1,1199,plain,11133,2019-10-22_08h20.02.454,SurveyExpMetaMem,3.2.3,Win32,60
,,,,,,,,,,,,,,,,,,,,5,1.325999975,5,0.523000002,1,0,1200,701,1,1199,telephone,11133,2019-10-22_08h20.02.454,SurveyExpMetaMem,3.2.3,Win32,60
,,,,,,,,,,,,,,,,,,,,6,2.742000103,7,2.00999999,1,0,1200,787,1,1199,dawn,11133,2019-10-22_08h20.02.454,SurveyExpMetaMem,3.2.3,Win32,60
,,,,,,,,,,,,,,,,,,,,7,4.205000162,6,0.846999884,1,0,1200,920,1,1199,hurt,11133,2019-10-22_08h20.02.454,SurveyExpMetaMem,3.2.3,Win32,60
,,,,,,,,,,,,,,,,,,,,6,9.381999969,1,0.579999924,1,0,1200,1079,1,1199,critic,11133,2019-10-22_08h20.02.454,SurveyExpMetaMem,3.2.3,Win32,60
,,,,,,,,,,,,,,,,,,,,7,2.870000124,8,1.427999973,1,0,1200,171,1,1199,imagination,11133,2019-10-22_08h20.02.454,SurveyExpMetaMem,3.2.3,Win32,60
,,,,,,,,,,,,,,,,,,,,7,5.250999928,4,2.525000095,1,0,1200,1053,1,1199,surgery,11133,2019-10-22_08h20.02.454,SurveyExpMetaMem,3.2.3,Win32,60
,,,,,,,,,,,,,,,,,,,,5,3.23300004,4,34.60100007,1,0,1200,993,1,1199,remorse,11133,2019-10-22_08h20.02.454,SurveyExpMetaMem,3.2.3,Win32,60
,,,,,,,,,,,,,,,,,,,,6,3.396999836,1,1.859999895,1,0,1200,911,1,1199,rejection,11133,2019-10-22_08h20.02.454,SurveyExpMetaMem,3.2.3,Win32,60
,,,,,,,,,,,,,,,,,,,,5,5.746999979,5,0.585999966,1,0,1200,1168,1,1199,financial,11133,2019-10-22_08h20.02.454,SurveyExpMetaMem,3.2.3,Win32,60
,,,,,,,,,,,,,,,,,,,,8,3.348999977,7,3.200999975,1,0,1200,252,1,1199,infatuated,11133,2019-10-22_08h20.02.454,SurveyExpMetaMem,3.2.3,Win32,60
,,,,,,,,,,,,,,,,,,,,7,2.888000011,3,0.661000013,1,0,1200,431,1,1199,itch,11133,2019-10-22_08h20.02.454,SurveyExpMetaMem,3.2.3,Win32,60
,,,,,,,,,,,,,,,,,,,,5,5.36500001,5,0.327000141,1,0,1200,641,1,1199,writer,11133,2019-10-22_08h20.02.454,SurveyExpMetaMem,3.2.3,Win32,60
,,,,,,,,,,,,,,,,,,,,8,2.071000099,2,1.507000208,1,0,1200,1052,1,1199,angry,11133,2019-10-22_08h20.02.454,SurveyExpMetaMem,3.2.3,Win32,60
,,,,,,,,,,,,,,,,,,,,5,7.57799983,3,0.637000084,1,0,1200,1045,1,1199,scalding,11133,2019-10-22_08h20.02.454,SurveyExpMetaMem,3.2.3,Win32,60
,,,,,,,,,,,,,,,,,,,,8,5.097000122,8,1.042999983,1,0,1200,77,1,1199,adore,11133,2019-10-22_08h20.02.454,SurveyExpMetaMem,3.2.3,Win32,60
,,,,,,,,,,,,,,,,,,,,5,1.63499999,5,0.187000036,1,0,1200,739,1,1199,seagull,11133,2019-10-22_08h20.02.454,SurveyExpMetaMem,3.2.3,Win32,60
,,,,,,,,,,,,,,,,,,,,5,2.886999846,3,1.443000078,1,0,1200,426,1,1199,con,11133,2019-10-22_08h20.02.454,SurveyExpMetaMem,3.2.3,Win32,60
,,,,,,,,,,,,,,,,,,,,5,1.617000103,5,0.301999807,1,0,1200,595,1,1199,vacuum,11133,2019-10-22_08h20.02.454,SurveyExpMetaMem,3.2.3,Win32,60
,,,,,,,,,,,,,,,,,,,,6,5.142999887,4,4.01699996,1,0,1200,1001,1,1199,rude,11133,2019-10-22_08h20.02.454,SurveyExpMetaMem,3.2.3,Win32,60
,,,,,,,,,,,,,,,,,,,,5,2.322000027,7,1.849999905,1,0,1200,265,1,1199,invent,11133,2019-10-22_08h20.02.454,SurveyExpMetaMem,3.2.3,Win32,60
,,,,,,,,,,,,,,,,,,,,6,4.526000023,9,0.64199996,1,0,1200,231,1,1199,cherish,11133,2019-10-22_08h20.02.454,SurveyExpMetaMem,3.2.3,Win32,60
,,,,,,,,,,,,,,,,,,,,5,4.479000092,6,1.621000051,1,0,1200,756,1,1199,plant,11133,2019-10-22_08h20.02.454,SurveyExpMetaMem,3.2.3,Win32,60
,,,,,,,,,,,,,,,,,,,,5,24.92199993,5,2.40199995,1,0,1200,619,1,1199,pulpit,11133,2019-10-22_08h20.02.454,SurveyExpMetaMem,3.2.3,Win32,60
,,,,,,,,,,,,,,,,,,,,6,4.212999821,4,35.21599984,1,0,1200,1072,1,1199,bothered,11133,2019-10-22_08h20.02.454,SurveyExpMetaMem,3.2.3,Win32,60
,,,,,,,,,,,,,,,,,,,,7,5.064999819,4,1.984999895,1,0,1200,251,1,1199,meteor,11133,2019-10-22_08h20.02.454,SurveyExpMetaMem,3.2.3,Win32,60
,,,,,,,,,,,,,,,,,,,,6,5.519000053,3,2.251000166,1,0,1200,995,1,1199,cult,11133,2019-10-22_08h20.02.454,SurveyExpMetaMem,3.2.3,Win32,60
,,,,,,,,,,,,,,,,,,,,3,7.962000132,8,5.995999813,1,0,1200,47,1,1199,enjoy,11133,2019-10-22_08h20.02.454,SurveyExpMetaMem,3.2.3,Win32,60
,,,,,,,,,,,,,,,,,,,,5,1.450999975,5,0.360999823,1,0,1200,656,1,1199,number,11133,2019-10-22_08h20.02.454,SurveyExpMetaMem,3.2.3,Win32,60
,,,,,,,,,,,,,,,,,,,,7,5.744999886,4,1.430999994,1,0,1200,1184,1,1199,reckless,11133,2019-10-22_08h20.02.454,SurveyExpMetaMem,3.2.3,Win32,60
,,,,,,,,,,,,,,,,,,,,5,5.296999931,3,1.952000141,1,0,1200,451,1,1199,lame,11133,2019-10-22_08h20.02.454,SurveyExpMetaMem,3.2.3,Win32,60
,,,,,,,,,,,,,,,,,,,,5,1.639000177,5,0.325999975,1,0,1200,128,1,1199,supper,11133,2019-10-22_08h20.02.454,SurveyExpMetaMem,3.2.3,Win32,60
,,,,,,,,,,,,,,,,,,,,5,2.883000135,5,0.227999926,1,0,1200,665,1,1199,read,11133,2019-10-22_08h20.02.454,SurveyExpMetaMem,3.2.3,Win32,60
,,,,,,,,,,,,,,,,,,,,5,1.127000093,5,0.174000025,1,0,1200,695,1,1199,teacher,11133,2019-10-22_08h20.02.454,SurveyExpMetaMem,3.2.3,Win32,60
,,,,,,,,,,,,,,,,,,,,5,2.661000013,4,0.244999886,1,0,1200,397,1,1199,complaint,11133,2019-10-22_08h20.02.454,SurveyExpMetaMem,3.2.3,Win32,60
,,,,,,,,,,,,,,,,,,,,9,7.105999947,7,2.861999989,1,0,1200,144,1,1199,aroused,11133,2019-10-22_08h20.02.454,SurveyExpMetaMem,3.2.3,Win32,60
,,,,,,,,,,,,,,,,,,,,6,5.303999901,3,2.363999844,1,0,1200,350,1,1199,inadequate,11133,2019-10-22_08h20.02.454,SurveyExpMetaMem,3.2.3,Win32,60
,,,,,,,,,,,,,,,,,,,,8,5.880000114,7,3.723999977,1,0,1200,117,1,1199,powerful,11133,2019-10-22_08h20.02.454,SurveyExpMetaMem,3.2.3,Win32,60
,,,,,,,,,,,,,,,,,,,,3,3.680000067,3,4.01699996,1,0,1200,399,1,1199,withdrawn,11133,2019-10-22_08h20.02.454,SurveyExpMetaMem,3.2.3,Win32,60
,,,,,,,,,,,,,,,,,,,,5,2.613000154,5,0.180999994,1,0,1200,495,1,1199,dust,11133,2019-10-22_08h20.02.454,SurveyExpMetaMem,3.2.3,Win32,60
,,,,,,,,,,,,,,,,,,,,6,9.711999893,4,1.483999968,1,0,1200,1044,1,1199,lost,11133,2019-10-22_08h20.02.454,SurveyExpMetaMem,3.2.3,Win32,60
,,,,,,,,,,,,,,,,,,,,6,5.473999977,7,0.894000053,1,0,1200,130,1,1199,great,11133,2019-10-22_08h20.02.454,SurveyExpMetaMem,3.2.3,Win32,60
,,,,,,,,,,,,,,,,,,,,5,7.01699996,3,2.64199996,1,0,1200,925,1,1199,disloyal,11133,2019-10-22_08h20.02.454,SurveyExpMetaMem,3.2.3,Win32,60
,,,,,,,,,,,,,,,,,,,,5,6.215000153,7,1.72300005,1,0,1200,886,1,1199,sunflower,11133,2019-10-22_08h20.02.454,SurveyExpMetaMem,3.2.3,Win32,60
,,,,,,,,,,,,,,,,,,,,5,2.150000095,5,0.644999981,1,0,1200,509,1,1199,ash,11133,2019-10-22_08h20.02.454,SurveyExpMetaMem,3.2.3,Win32,60
,,,,,,,,,,,,,,,,,,,,7,10.28600001,2,1.968000174,1,0,1200,1076,1,1199,embarrassed,11133,2019-10-22_08h20.02.454,SurveyExpMetaMem,3.2.3,Win32,60
,,,,,,,,,,,,,,,,,,,,6,8.458000183,2,2.006000042,1,0,1200,301,1,1199,sad,11133,2019-10-22_08h20.02.454,SurveyExpMetaMem,3.2.3,Win32,60
,,,,,,,,,,,,,,,,,,,,5,2.881999969,5,0.349000216,1,0,1200,640,1,1199,cabin,11133,2019-10-22_08h20.02.454,SurveyExpMetaMem,3.2.3,Win32,60
,,,,,,,,,,,,,,,,,,,,5,2.772000074,5,2.307999849,1,0,1200,584,1,1199,anus,11133,2019-10-22_08h20.02.454,SurveyExpMetaMem,3.2.3,Win32,60
,,,,,,,,,,,,,,,,,,,,5,6.302000046,4,1.679999828,1,0,1200,951,1,1199,castrate,11133,2019-10-22_08h20.02.454,SurveyExpMetaMem,3.2.3,Win32,60
,,,,,,,,,,,,,,,,,,,,5,10.97800016,4,1.953000069,1,0,1200,391,1,1199,detach,11133,2019-10-22_08h20.02.454,SurveyExpMetaMem,3.2.3,Win32,60
,,,,,,,,,,,,,,,,,,,,5,2.650000095,5,0.182999849,1,0,1200,637,1,1199,flock,11133,2019-10-22_08h20.02.454,SurveyExpMetaMem,3.2.3,Win32,60
,,,,,,,,,,,,,,,,,,,,5,1.488000154,5,2.970000029,1,0,1200,223,1,1199,fashion,11133,2019-10-22_08h20.02.454,SurveyExpMetaMem,3.2.3,Win32,60
,,,,,,,,,,,,,,,,,,,,6,3.66899991,6,0.726999998,1,0,1200,224,1,1199,strengthen,11133,2019-10-22_08h20.02.454,SurveyExpMetaMem,3.2.3,Win32,60
,,,,,,,,,,,,,,,,,,,,5,13.04099989,5,0.292000055,1,0,1200,733,1,1199,poetry,11133,2019-10-22_08h20.02.454,SurveyExpMetaMem,3.2.3,Win32,60
,,,,,,,,,,,,,,,,,,,,5,1.571000099,5,0.211999893,1,0,1200,19,1,1199,firefighter,11133,2019-10-22_08h20.02.454,SurveyExpMetaMem,3.2.3,Win32,60
,,,,,,,,,,,,,,,,,,,,1,2.739000082,6,3.717000008,1,0,1200,883,1,1199,sky,11133,2019-10-22_08h20.02.454,SurveyExpMetaMem,3.2.3,Win32,60
,,,,,,,,,,,,,,,,,,,,5,3.752000093,5,1.572999954,1,0,1200,571,1,1199,marrow,11133,2019-10-22_08h20.02.454,SurveyExpMetaMem,3.2.3,Win32,60
,,,,,,,,,,,,,,,,,,,,5,1.478999853,5,0.211999893,1,0,1200,612,1,1199,propeller,11133,2019-10-22_08h20.02.454,SurveyExpMetaMem,3.2.3,Win32,60
,,,,,,,,,,,,,,,,,,,,3,5.164999962,6,1.253000021,1,0,1200,179,1,1199,star,11133,2019-10-22_08h20.02.454,SurveyExpMetaMem,3.2.3,Win32,60
,,,,,,,,,,,,,,,,,,,,7,5.56099987,4,1.319999933,1,0,1200,389,1,1199,gloomy,11133,2019-10-22_08h20.02.454,SurveyExpMetaMem,3.2.3,Win32,60
,,,,,,,,,,,,,,,,,,,,4,7.756999969,2,3.217000008,1,0,1200,307,1,1199,sick,11133,2019-10-22_08h20.02.454,SurveyExpMetaMem,3.2.3,Win32,60
,,,,,,,,,,,,,,,,,,,,8,8.279000044,1,1.500999928,1,0,1200,955,1,1199,drown,11133,2019-10-22_08h20.02.454,SurveyExpMetaMem,3.2.3,Win32,60
,,,,,,,,,,,,,,,,,,,,4,5.267999887,5,0.590000153,1,0,1200,745,1,1199,inform,11133,2019-10-22_08h20.02.454,SurveyExpMetaMem,3.2.3,Win32,60
,,,,,,,,,,,,,,,,,,,,5,10.69999981,3,4.608999968,1,0,1200,919,1,1199,loss,11133,2019-10-22_08h20.02.454,SurveyExpMetaMem,3.2.3,Win32,60
,,,,,,,,,,,,,,,,,,,,5,2.350000143,5,0.337000132,1,0,1200,1189,1,1199,lava,11133,2019-10-22_08h20.02.454,SurveyExpMetaMem,3.2.3,Win32,60
,,,,,,,,,,,,,,,,,,,,5,1.471999884,5,0.174999952,1,0,1200,44,1,1199,diploma,11133,2019-10-22_08h20.02.454,SurveyExpMetaMem,3.2.3,Win32,60
,,,,,,,,,,,,,,,,,,,,7,3.323999882,2,1.38499999,1,0,1200,502,1,1199,crap,11133,2019-10-22_08h20.02.454,SurveyExpMetaMem,3.2.3,Win32,60
,,,,,,,,,,,,,,,,,,,,3,4.915999889,5,1.443000078,1,0,1200,746,1,1199,proper,11133,2019-10-22_08h20.02.454,SurveyExpMetaMem,3.2.3,Win32,60
,,,,,,,,,,,,,,,,,,,,5,1.915999889,5,0.246000051,1,0,1200,818,1,1199,priest,11133,2019-10-22_08h20.02.454,SurveyExpMetaMem,3.2.3,Win32,60
,,,,,,,,,,,,,,,,,,,,7,9.727999926,2,2.302999973,1,0,1200,939,1,1199,vomit,11133,2019-10-22_08h20.02.454,SurveyExpMetaMem,3.2.3,Win32,60
,,,,,,,,,,,,,,,,,,,,9,4.332000017,1,1.319999933,1,0,1200,1018,1,1199,distress,11133,2019-10-22_08h20.02.454,SurveyExpMetaMem,3.2.3,Win32,60
,,,,,,,,,,,,,,,,,,,,6,4.464999914,4,1.123999834,1,0,1200,635,1,1199,sensitive,11133,2019-10-22_08h20.02.454,SurveyExpMetaMem,3.2.3,Win32,60
,,,,,,,,,,,,,,,,,,,,2,5.73300004,7,2.024999857,1,0,1200,852,1,1199,caring,11133,2019-10-22_08h20.02.454,SurveyExpMetaMem,3.2.3,Win32,60
,,,,,,,,,,,,,,,,,,,,5,2.415999889,3,1.346999884,1,0,1200,1131,1,1199,envious,11133,2019-10-22_08h20.02.454,SurveyExpMetaMem,3.2.3,Win32,60
,,,,,,,,,,,,,,,,,,,,5,1.316999912,5,0.411999941,1,0,1200,839,1,1199,flower,11133,2019-10-22_08h20.02.454,SurveyExpMetaMem,3.2.3,Win32,60
,,,,,,,,,,,,,,,,,,,,8,5.822999954,9,4.243999958,1,0,1200,197,1,1199,happy,11133,2019-10-22_08h20.02.454,SurveyExpMetaMem,3.2.3,Win32,60
,,,,,,,,,,,,,,,,,,,,5,4.397000074,3,2.309999943,1,0,1200,1121,1,1199,ban,11133,2019-10-22_08h20.02.454,SurveyExpMetaMem,3.2.3,Win32,60
,,,,,,,,,,,,,,,,,,,,9,3.82400012,7,1.52699995,1,0,1200,298,1,1199,success,11133,2019-10-22_08h20.02.454,SurveyExpMetaMem,3.2.3,Win32,60
,,,,,,,,,,,,,,,,,,,,3,818.1129999,2,4.186999798,1,0,1200,966,1,1199,regretful,11133,2019-10-22_08h20.02.454,SurveyExpMetaMem,3.2.3,Win32,60
,,,,,,,,,,,,,,,,,,,,5,1.26699996,5,0.159999847,1,0,1200,518,1,1199,report,11133,2019-10-22_08h20.02.454,SurveyExpMetaMem,3.2.3,Win32,60
,,,,,,,,,,,,,,,,,,,,2,2.413000107,6,2.969000101,1,0,1200,882,1,1199,gentle,11133,2019-10-22_08h20.02.454,SurveyExpMetaMem,3.2.3,Win32,60
,,,,,,,,,,,,,,,,,,,,7,3.99000001,7,0.730999947,1,0,1200,282,1,1199,luck,11133,2019-10-22_08h20.02.454,SurveyExpMetaMem,3.2.3,Win32,60
,,,,,,,,,,,,,,,,,,,,5,1.369999886,5,0.129999876,1,0,1200,607,1,1199,greyhound,11133,2019-10-22_08h20.02.454,SurveyExpMetaMem,3.2.3,Win32,60
,,,,,,,,,,,,,,,,,,,,3,3.316999912,3,1.637000084,1,0,1200,348,1,1199,impotent,11133,2019-10-22_08h20.02.454,SurveyExpMetaMem,3.2.3,Win32,60
,,,,,,,,,,,,,,,,,,,,5,3.521000147,7,0.258999825,1,0,1200,169,1,1199,aid,11133,2019-10-22_08h20.02.454,SurveyExpMetaMem,3.2.3,Win32,60
,,,,,,,,,,,,,,,,,,,,6,4.724999905,1,0.743999958,1,0,1200,930,1,1199,poison,11133,2019-10-22_08h20.02.454,SurveyExpMetaMem,3.2.3,Win32,60
,,,,,,,,,,,,,,,,,,,,6,76.40100002,3,0.521000147,1,0,1200,1157,1,1199,slayer,11133,2019-10-22_08h20.02.454,SurveyExpMetaMem,3.2.3,Win32,60
,,,,,,,,,,,,,,,,,,,,2,10.48699999,8,0.855999947,1,0,1200,238,1,1199,sunshine,11133,2019-10-22_08h20.02.454,SurveyExpMetaMem,3.2.3,Win32,60
,,,,,,,,,,,,,,,,,,,,5,2.583999872,1,1.105999947,1,0,1200,935,1,1199,despise,11133,2019-10-22_08h20.02.454,SurveyExpMetaMem,3.2.3,Win32,60
,,,,,,,,,,,,,,,,,,,,6,34.3920002,5,0.04399991,1,0,1200,770,1,1199,buffalo,11133,2019-10-22_08h20.02.454,SurveyExpMetaMem,3.2.3,Win32,60
,,,,,,,,,,,,,,,,,,,,5,2.969000101,4,0.611000061,1,0,1200,387,1,1199,tax,11133,2019-10-22_08h20.02.454,SurveyExpMetaMem,3.2.3,Win32,60
,,,,,,,,,,,,,,,,,,,,7,63.34200001,7,1.907999992,1,0,1200,91,1,1199,pretty,11133,2019-10-22_08h20.02.454,SurveyExpMetaMem,3.2.3,Win32,60
,,,,,,,,,,,,,,,,,,,,5,1.438000202,5,0.187000036,1,0,1200,598,1,1199,feet,11133,2019-10-22_08h20.02.454,SurveyExpMetaMem,3.2.3,Win32,60
,,,,,,,,,,,,,,,,,,,,5,28.329,3,0.319999933,1,0,1200,959,1,1199,divorce,11133,2019-10-22_08h20.02.454,SurveyExpMetaMem,3.2.3,Win32,60
,,,,,,,,,,,,,,,,,,,,5,2.13499999,5,0.342999935,1,0,1200,102,1,1199,motorcycle,11133,2019-10-22_08h20.02.454,SurveyExpMetaMem,3.2.3,Win32,60
,,,,,,,,,,,,,,,,,,,,3,4.907999992,3,0.157999992,1,0,1200,379,1,1199,slob,11133,2019-10-22_08h20.02.454,SurveyExpMetaMem,3.2.3,Win32,60
,,,,,,,,,,,,,,,,,,,,5,1.031999826,5,0.143000126,1,0,1200,825,1,1199,swan,11133,2019-10-22_08h20.02.454,SurveyExpMetaMem,3.2.3,Win32,60
,,,,,,,,,,,,,,,,,,,,5,1.524999857,4,0.961999893,1,0,1200,442,1,1199,foolish,11133,2019-10-22_08h20.02.454,SurveyExpMetaMem,3.2.3,Win32,60
,,,,,,,,,,,,,,,,,,,,2,2.56099987,7,1.482000113,1,0,1200,894,1,1199,sunset,11133,2019-10-22_08h20.02.454,SurveyExpMetaMem,3.2.3,Win32,60
,,,,,,,,,,,,,,,,,,,,5,276.6139998,4,1.487999916,1,0,1200,418,1,1199,cheapskate,11133,2019-10-22_08h20.02.454,SurveyExpMetaMem,3.2.3,Win32,60
,,,,,,,,,,,,,,,,,,,,7,2.35800004,7,0.957000017,1,0,1200,292,1,1199,birthday,11133,2019-10-22_08h20.02.454,SurveyExpMetaMem,3.2.3,Win32,60
,,,,,,,,,,,,,,,,,,,,3,2.568000078,6,3.120999813,1,0,1200,848,1,1199,graceful,11133,2019-10-22_08h20.02.454,SurveyExpMetaMem,3.2.3,Win32,60
,,,,,,,,,,,,,,,,,,,,4,3.764999866,3,0.946000099,1,0,1200,374,1,1199,sluggish,11133,2019-10-22_08h20.02.454,SurveyExpMetaMem,3.2.3,Win32,60
,,,,,,,,,,,,,,,,,,,,8,2.849999905,6,2.502000093,1,0,1200,155,1,1199,ignite,11133,2019-10-22_08h20.02.454,SurveyExpMetaMem,3.2.3,Win32,60
,,,,,,,,,,,,,,,,,,,,3,2.451999903,4,1.153999805,1,0,1200,856,1,1199,leisurely,11133,2019-10-22_08h20.02.454,SurveyExpMetaMem,3.2.3,Win32,60
,,,,,,,,,,,,,,,,,,,,5,7.514999866,4,1.180000067,1,0,1200,466,1,1199,gnaw,11133,2019-10-22_08h20.02.454,SurveyExpMetaMem,3.2.3,Win32,60
,,,,,,,,,,,,,,,,,,,,5,5.568000078,5,1.294000149,1,0,1200,75,1,1199,actor,11133,2019-10-22_08h20.02.454,SurveyExpMetaMem,3.2.3,Win32,60
,,,,,,,,,,,,,,,,,,,,5,5.414999962,5,0.262000084,1,0,1200,741,1,1199,wheat,11133,2019-10-22_08h20.02.454,SurveyExpMetaMem,3.2.3,Win32,60
,,,,,,,,,,,,,,,,,,,,5,2.352999926,5,0.19900012,1,0,1200,674,1,1199,fitting,11133,2019-10-22_08h20.02.454,SurveyExpMetaMem,3.2.3,Win32,60
,,,,,,,,,,,,,,,,,,,,5,1.5,5,0.190000057,1,0,1200,813,1,1199,walking,11133,2019-10-22_08h20.02.454,SurveyExpMetaMem,3.2.3,Win32,60
,,,,,,,,,,,,,,,,,,,,4,3.384000063,2,1.302000046,1,0,1200,515,1,1199,blues,11133,2019-10-22_08h20.02.454,SurveyExpMetaMem,3.2.3,Win32,60
,,,,,,,,,,,,,,,,,,,,7,2.565999985,3,0.812000036,1,0,1200,977,1,1199,choke,11133,2019-10-22_08h20.02.454,SurveyExpMetaMem,3.2.3,Win32,60
,,,,,,,,,,,,,,,,,,,,5,4.197999954,5,0.161000013,1,0,1200,471,1,1199,chump,11133,2019-10-22_08h20.02.454,SurveyExpMetaMem,3.2.3,Win32,60
,,,,,,,,,,,,,,,,,,,,5,3.580999851,5,0.164999962,1,0,1200,696,1,1199,rink,11133,2019-10-22_08h20.02.454,SurveyExpMetaMem,3.2.3,Win32,60
,,,,,,,,,,,,,,,,,,,,6,21.59500003,8,1.752000093,1,0,1200,196,1,1199,smile,11133,2019-10-22_08h20.02.454,SurveyExpMetaMem,3.2.3,Win32,60
,,,,,,,,,,,,,,,,,,,,5,1.315999985,5,0.120999813,1,0,1200,682,1,1199,camel,11133,2019-10-22_08h20.02.454,SurveyExpMetaMem,3.2.3,Win32,60
,,,,,,,,,,,,,,,,,,,,5,80.37100005,5,0.135999918,1,0,1200,694,1,1199,pecan,11133,2019-10-22_08h20.02.454,SurveyExpMetaMem,3.2.3,Win32,60
,,,,,,,,,,,,,,,,,,,,5,3.237999916,3,0.152999878,1,0,1200,311,1,1199,discomfort,11133,2019-10-22_08h20.02.454,SurveyExpMetaMem,3.2.3,Win32,60
,,,,,,,,,,,,,,,,,,,,5,4.90899992,3,1.088999987,1,0,1200,486,1,1199,fool,11133,2019-10-22_08h20.02.454,SurveyExpMetaMem,3.2.3,Win32,60
,,,,,,,,,,,,,,,,,,,,5,62.13400006,5,0.34800005,1,0,1200,537,1,1199,absurd,11133,2019-10-22_08h20.02.454,SurveyExpMetaMem,3.2.3,Win32,60
,,,,,,,,,,,,,,,,,,,,4,4.139999866,3,0.736000061,1,0,1200,849,1,1199,blue,11133,2019-10-22_08h20.02.454,SurveyExpMetaMem,3.2.3,Win32,60
,,,,,,,,,,,,,,,,,,,,6,66.68199992,3,0.982000113,1,0,1200,638,1,1199,quench,11133,2019-10-22_08h20.02.454,SurveyExpMetaMem,3.2.3,Win32,60
,,,,,,,,,,,,,,,,,,,,6,3.947000027,2,1.118999958,1,0,1200,1126,1,1199,offensive,11133,2019-10-22_08h20.02.454,SurveyExpMetaMem,3.2.3,Win32,60
,,,,,,,,,,,,,,,,,,,,5,36.50500011,3,0.766000032,1,0,1200,1159,1,1199,rifle,11133,2019-10-22_08h20.02.454,SurveyExpMetaMem,3.2.3,Win32,60
,,,,,,,,,,,,,,,,,,,,7,19.82099986,4,0.640000105,1,0,1200,1192,1,1199,startled,11133,2019-10-22_08h20.02.454,SurveyExpMetaMem,3.2.3,Win32,60
,,,,,,,,,,,,,,,,,,,,5,4.059999943,4,1.139999866,1,0,1200,1096,1,1199,flood,11133,2019-10-22_08h20.02.454,SurveyExpMetaMem,3.2.3,Win32,60
,,,,,,,,,,,,,,,,,,,,5,3.602999926,3,2.95299983,1,0,1200,319,1,1199,malaria,11133,2019-10-22_08h20.02.454,SurveyExpMetaMem,3.2.3,Win32,60
,,,,,,,,,,,,,,,,,,,,7,4.253999949,4,1.334000111,1,0,1200,1122,1,1199,gossip,11133,2019-10-22_08h20.02.454,SurveyExpMetaMem,3.2.3,Win32,60
,,,,,,,,,,,,,,,,,,,,8,11.84700012,2,0.774999857,1,0,1200,1088,1,1199,forbid,11133,2019-10-22_08h20.02.454,SurveyExpMetaMem,3.2.3,Win32,60
,,,,,,,,,,,,,,,,,,,,5,46.06599998,5,0.112999916,1,0,1200,506,1,1199,lower,11133,2019-10-22_08h20.02.454,SurveyExpMetaMem,3.2.3,Win32,60
,,,,,,,,,,,,,,,,,,,,5,1.230999947,5,0.125,1,0,1200,6,1,1199,chest,11133,2019-10-22_08h20.02.454,SurveyExpMetaMem,3.2.3,Win32,60
,,,,,,,,,,,,,,,,,,,,3,3.937999964,6,1.303999901,1,0,1200,732,1,1199,humble,11133,2019-10-22_08h20.02.454,SurveyExpMetaMem,3.2.3,Win32,60
,,,,,,,,,,,,,,,,,,,,5,71.2099998,4,0.585999966,1,0,1200,380,1,1199,expire,11133,2019-10-22_08h20.02.454,SurveyExpMetaMem,3.2.3,Win32,60
,,,,,,,,,,,,,,,,,,,,8,2.562000036,5,0.943000078,1,0,1200,1099,1,1199,fire,11133,2019-10-22_08h20.02.454,SurveyExpMetaMem,3.2.3,Win32,60
,,,,,,,,,,,,,,,,,,,,5,3.532000065,4,1.187000036,1,0,1200,396,1,1199,unpopular,11133,2019-10-22_08h20.02.454,SurveyExpMetaMem,3.2.3,Win32,60
,,,,,,,,,,,,,,,,,,,,5,1.66899991,5,0.154999971,1,0,1200,33,1,1199,sister,11133,2019-10-22_08h20.02.454,SurveyExpMetaMem,3.2.3,Win32,60
,,,,,,,,,,,,,,,,,,,,5,1.175000191,5,0.18599987,1,0,1200,211,1,1199,surfer,11133,2019-10-22_08h20.02.454,SurveyExpMetaMem,3.2.3,Win32,60
,,,,,,,,,,,,,,,,,,,,6,90.61099982,3,0.228000164,1,0,1200,441,1,1199,prohibit,11133,2019-10-22_08h20.02.454,SurveyExpMetaMem,3.2.3,Win32,60
,,,,,,,,,,,,,,,,,,,,9,2.351999998,1,1.104000092,1,0,1200,1009,1,1199,frightened,11133,2019-10-22_08h20.02.454,SurveyExpMetaMem,3.2.3,Win32,60
,,,,,,,,,,,,,,,,,,,,7,6.264999866,3,1.468999863,1,0,1200,1051,1,1199,insane,11133,2019-10-22_08h20.02.454,SurveyExpMetaMem,3.2.3,Win32,60
,,,,,,,,,,,,,,,,,,,,5,52.03299999,3,0.106000185,1,0,1200,498,1,1199,alimony,11133,2019-10-22_08h20.02.454,SurveyExpMetaMem,3.2.3,Win32,60
,,,,,,,,,,,,,,,,,,,,5,102.7280002,6,0.90199995,1,0,1200,705,1,1199,tolerant,11133,2019-10-22_08h20.02.454,SurveyExpMetaMem,3.2.3,Win32,60
,,,,,,,,,,,,,,,,,,,,5,1.034999847,5,0.460999966,1,0,1200,691,1,1199,circle,11133,2019-10-22_08h20.02.454,SurveyExpMetaMem,3.2.3,Win32,60
,,,,,,,,,,,,,,,,,,,,5,0.851999998,5,0.171999931,1,0,1200,210,1,1199,elephant,11133,2019-10-22_08h20.02.454,SurveyExpMetaMem,3.2.3,Win32,60
,,,,,,,,,,,,,,,,,,,,5,3.072999954,3,0.274000168,1,0,1200,1060,1,1199,dent,11133,2019-10-22_08h20.02.454,SurveyExpMetaMem,3.2.3,Win32,60
,,,,,,,,,,,,,,,,,,,,8,2.80099988,3,0.920000076,1,0,1200,1101,1,1199,scary,11133,2019-10-22_08h20.02.454,SurveyExpMetaMem,3.2.3,Win32,60
,,,,,,,,,,,,,,,,,,,,5,2.308000088,5,0.303999901,1,0,1200,156,1,1199,gym,11133,2019-10-22_08h20.02.454,SurveyExpMetaMem,3.2.3,Win32,60
,,,,,,,,,,,,,,,,,,,,4,8.046999931,4,0.188999891,1,0,1200,470,1,1199,cynical,11133,2019-10-22_08h20.02.454,SurveyExpMetaMem,3.2.3,Win32,60
,,,,,,,,,,,,,,,,,,,,7,3.726000071,1,1.819999933,1,0,1200,954,1,1199,hostage,11133,2019-10-22_08h20.02.454,SurveyExpMetaMem,3.2.3,Win32,60
,,,,,,,,,,,,,,,,,,,,5,2.233999968,5,0.156999826,1,0,1200,56,1,1199,spice,11133,2019-10-22_08h20.02.454,SurveyExpMetaMem,3.2.3,Win32,60
,,,,,,,,,,,,,,,,,,,,5,3.13499999,3,0.360000134,1,0,1200,591,1,1199,bereavement,11133,2019-10-22_08h20.02.454,SurveyExpMetaMem,3.2.3,Win32,60
,,,,,,,,,,,,,,,,,,,,6,3.080999851,4,0.373000145,1,0,1200,1185,1,1199,shotgun,11133,2019-10-22_08h20.02.454,SurveyExpMetaMem,3.2.3,Win32,60
,,,,,,,,,,,,,,,,,,,,5,16.31000018,5,0.178999901,1,0,1200,209,1,1199,husband,11133,2019-10-22_08h20.02.454,SurveyExpMetaMem,3.2.3,Win32,60
,,,,,,,,,,,,,,,,,,,,3,3.389999866,5,1.186000109,1,0,1200,406,1,1199,tired,11133,2019-10-22_08h20.02.454,SurveyExpMetaMem,3.2.3,Win32,60
,,,,,,,,,,,,,,,,,,,,2,3.039000034,4,1.496999979,1,0,1200,511,1,1199,slouch,11133,2019-10-22_08h20.02.454,SurveyExpMetaMem,3.2.3,Win32,60
,,,,,,,,,,,,,,,,,,,,5,1.203000069,5,0.217999935,1,0,1200,675,1,1199,golfer,11133,2019-10-22_08h20.02.454,SurveyExpMetaMem,3.2.3,Win32,60
,,,,,,,,,,,,,,,,,,,,5,4.133000135,5,0.163000107,1,0,1200,768,1,1199,trait,11133,2019-10-22_08h20.02.454,SurveyExpMetaMem,3.2.3,Win32,60
,,,,,,,,,,,,,,,,,,,,5,2.121999979,5,0.203999996,1,0,1200,473,1,1199,senseless,11133,2019-10-22_08h20.02.454,SurveyExpMetaMem,3.2.3,Win32,60
,,,,,,,,,,,,,,,,,,,,5,124.3739998,5,0.15199995,1,0,1200,266,1,1199,juice,11133,2019-10-22_08h20.02.454,SurveyExpMetaMem,3.2.3,Win32,60
,,,,,,,,,,,,,,,,,,,,5,0.67200017,5,0.112999916,1,0,1200,628,1,1199,chess,11133,2019-10-22_08h20.02.454,SurveyExpMetaMem,3.2.3,Win32,60
,,,,,,,,,,,,,,,,,,,,3,4.024999857,8,0.685000181,1,0,1200,835,1,1199,helpful,11133,2019-10-22_08h20.02.454,SurveyExpMetaMem,3.2.3,Win32,60
,,,,,,,,,,,,,,,,,,,,5,1.924000025,5,0.170000076,1,0,1200,145,1,1199,me,11133,2019-10-22_08h20.02.454,SurveyExpMetaMem,3.2.3,Win32,60
,,,,,,,,,,,,,,,,,,,,6,5.590999842,3,1.072000027,1,0,1200,1112,1,1199,pressure,11133,2019-10-22_08h20.02.454,SurveyExpMetaMem,3.2.3,Win32,60
,,,,,,,,,,,,,,,,,,,,8,2.003000021,8,2.441999912,1,0,1200,40,1,1199,kissing,11133,2019-10-22_08h20.02.454,SurveyExpMetaMem,3.2.3,Win32,60
,,,,,,,,,,,,,,,,,,,,5,1.356999874,7,2.503999949,1,0,1200,864,1,1199,blanket,11133,2019-10-22_08h20.02.454,SurveyExpMetaMem,3.2.3,Win32,60
,,,,,,,,,,,,,,,,,,,,6,110.675,6,3.019000053,1,0,1200,535,1,1199,ramble,11133,2019-10-22_08h20.02.454,SurveyExpMetaMem,3.2.3,Win32,60
,,,,,,,,,,,,,,,,,,,,6,52.03600001,1,2.055000067,1,0,1200,915,1,1199,abuse,11133,2019-10-22_08h20.02.454,SurveyExpMetaMem,3.2.3,Win32,60
,,,,,,,,,,,,,,,,,,,,5,2.246999979,6,1.002000093,1,0,1200,163,1,1199,gem,11133,2019-10-22_08h20.02.454,SurveyExpMetaMem,3.2.3,Win32,60
,,,,,,,,,,,,,,,,,,,,7,62.91000009,5,0.991000175,1,0,1200,222,1,1199,waterskiing,11133,2019-10-22_08h20.02.454,SurveyExpMetaMem,3.2.3,Win32,60
,,,,,,,,,,,,,,,,,,,,5,2.316999912,5,0.302999973,1,0,1200,830,1,1199,pear,11133,2019-10-22_08h20.02.454,SurveyExpMetaMem,3.2.3,Win32,60
,,,,,,,,,,,,,,,,,,,,3,2.881999969,5,2.451999903,1,0,1200,860,1,1199,silk,11133,2019-10-22_08h20.02.454,SurveyExpMetaMem,3.2.3,Win32,60
,,,,,,,,,,,,,,,,,,,,7,4.368000031,4,0.730000019,1,0,1200,150,1,1199,vodka,11133,2019-10-22_08h20.02.454,SurveyExpMetaMem,3.2.3,Win32,60
,,,,,,,,,,,,,,,,,,,,1,6.779000044,9,1.314999819,1,0,1200,186,1,1199,holiday,11133,2019-10-22_08h20.02.454,SurveyExpMetaMem,3.2.3,Win32,60
,,,,,,,,,,,,,,,,,,,,3,5.993999958,8,1.140000105,1,0,1200,272,1,1199,confidence,11133,2019-10-22_08h20.02.454,SurveyExpMetaMem,3.2.3,Win32,60
,,,,,,,,,,,,,,,,,,,,5,12.51600003,5,0.177000046,1,0,1200,648,1,1199,beads,11133,2019-10-22_08h20.02.454,SurveyExpMetaMem,3.2.3,Win32,60
,,,,,,,,,,,,,,,,,,,,6,2.765000105,1,0.322000027,1,0,1200,1020,1,1199,malice,11133,2019-10-22_08h20.02.454,SurveyExpMetaMem,3.2.3,Win32,60
,,,,,,,,,,,,,,,,,,,,6,92.55299997,2,0.542999983,1,0,1200,560,1,1199,spurn,11133,2019-10-22_08h20.02.454,SurveyExpMetaMem,3.2.3,Win32,60
,,,,,,,,,,,,,,,,,,,,8,2.788000107,7,1.259000063,1,0,1200,81,1,1199,best,11133,2019-10-22_08h20.02.454,SurveyExpMetaMem,3.2.3,Win32,60
,,,,,,,,,,,,,,,,,,,,2,2.174000025,5,0.671999931,1,0,1200,847,1,1199,moon,11133,2019-10-22_08h20.02.454,SurveyExpMetaMem,3.2.3,Win32,60
,,,,,,,,,,,,,,,,,,,,5,3.774999857,3,0.988999844,1,0,1200,528,1,1199,dirt,11133,2019-10-22_08h20.02.454,SurveyExpMetaMem,3.2.3,Win32,60
,,,,,,,,,,,,,,,,,,,,4,4.297999859,4,0.736999989,1,0,1200,488,1,1199,rusty,11133,2019-10-22_08h20.02.454,SurveyExpMetaMem,3.2.3,Win32,60
,,,,,,,,,,,,,,,,,,,,5,2.397000074,3,1.045000076,1,0,1200,906,1,1199,syphilis,11133,2019-10-22_08h20.02.454,SurveyExpMetaMem,3.2.3,Win32,60
,,,,,,,,,,,,,,,,,,,,5,52.47099996,3,0.072999954,1,0,1200,340,1,1199,coward,11133,2019-10-22_08h20.02.454,SurveyExpMetaMem,3.2.3,Win32,60
,,,,,,,,,,,,,,,,,,,,9,3.36500001,2,0.768000126,1,0,1200,1161,1,1199,shock,11133,2019-10-22_08h20.02.454,SurveyExpMetaMem,3.2.3,Win32,60
,,,,,,,,,,,,,,,,,,,,6,2.369999886,5,0.851000071,1,0,1200,60,1,1199,bikini,11133,2019-10-22_08h20.02.454,SurveyExpMetaMem,3.2.3,Win32,60
,,,,,,,,,,,,,,,,,,,,4,2.633999825,3,0.753999949,1,0,1200,403,1,1199,wither,11133,2019-10-22_08h20.02.454,SurveyExpMetaMem,3.2.3,Win32,60
,,,,,,,,,,,,,,,,,,,,5,4.998000145,3,1.420000076,1,0,1200,1075,1,1199,apprehension,11133,2019-10-22_08h20.02.454,SurveyExpMetaMem,3.2.3,Win32,60
,,,,,,,,,,,,,,,,,,,,6,2.256999969,3,0.792999983,1,0,1200,1197,1,1199,command,11133,2019-10-22_08h20.02.454,SurveyExpMetaMem,3.2.3,Win32,60
,,,,,,,,,,,,,,,,,,,,5,67.796,5,0.139000177,1,0,1200,776,1,1199,doll,11133,2019-10-22_08h20.02.454,SurveyExpMetaMem,3.2.3,Win32,60
,,,,,,,,,,,,,,,,,,,,5,3.256999969,4,0.769999981,1,0,1200,938,1,1199,seasick,11133,2019-10-22_08h20.02.454,SurveyExpMetaMem,3.2.3,Win32,60
,,,,,,,,,,,,,,,,,,,,3,3,5,0.404000044,1,0,1200,806,1,1199,tree,11133,2019-10-22_08h20.02.454,SurveyExpMetaMem,3.2.3,Win32,60
,,,,,,,,,,,,,,,,,,,,4,10.27800012,5,0.936000109,1,0,1200,273,1,1199,worthwhile,11133,2019-10-22_08h20.02.454,SurveyExpMetaMem,3.2.3,Win32,60
,,,,,,,,,,,,,,,,,,,,5,1.194000006,5,0.314999819,1,0,1200,472,1,1199,bald,11133,2019-10-22_08h20.02.454,SurveyExpMetaMem,3.2.3,Win32,60
,,,,,,,,,,,,,,,,,,,,5,207.2350001,5,0.171999931,1,0,1200,219,1,1199,know,11133,2019-10-22_08h20.02.454,SurveyExpMetaMem,3.2.3,Win32,60
,,,,,,,,,,,,,,,,,,,,5,0.684999943,5,0.576999903,1,0,1200,65,1,1199,restaurant,11133,2019-10-22_08h20.02.454,SurveyExpMetaMem,3.2.3,Win32,60
,,,,,,,,,,,,,,,,,,,,3,2.233999968,9,0.969000101,1,0,1200,180,1,1199,embrace,11133,2019-10-22_08h20.02.454,SurveyExpMetaMem,3.2.3,Win32,60
,,,,,,,,,,,,,,,,,,,,5,2.332999945,4,0.063999891,1,0,1200,513,1,1199,bland,11133,2019-10-22_08h20.02.454,SurveyExpMetaMem,3.2.3,Win32,60
,,,,,,,,,,,,,,,,,,,,6,2.220000029,6,0.806999922,1,0,1200,161,1,1199,limousine,11133,2019-10-22_08h20.02.454,SurveyExpMetaMem,3.2.3,Win32,60
,,,,,,,,,,,,,,,,,,,,5,5.240999937,4,0.170000076,1,0,1200,572,1,1199,cast,11133,2019-10-22_08h20.02.454,SurveyExpMetaMem,3.2.3,Win32,60
,,,,,,,,,,,,,,,,,,,,6,2.587000132,1,1.029000044,1,0,1200,903,1,1199,cancer,11133,2019-10-22_08h20.02.454,SurveyExpMetaMem,3.2.3,Win32,60
,,,,,,,,,,,,,,,,,,,,4,3.26699996,4,1.460999966,1,0,1200,550,1,1199,fart,11133,2019-10-22_08h20.02.454,SurveyExpMetaMem,3.2.3,Win32,60
,,,,,,,,,,,,,,,,,,,,6,130.01,4,2.776000023,1,0,1200,17,1,1199,outgoing,11133,2019-10-22_08h20.02.454,SurveyExpMetaMem,3.2.3,Win32,60
,,,,,,,,,,,,,,,,,,,,5,1.931999922,5,0.538000107,1,0,1200,134,1,1199,dollar,11133,2019-10-22_08h20.02.454,SurveyExpMetaMem,3.2.3,Win32,60
,,,,,,,,,,,,,,,,,,,,5,23.8039999,6,0.139000177,1,0,1200,778,1,1199,adorn,11133,2019-10-22_08h20.02.454,SurveyExpMetaMem,3.2.3,Win32,60
,,,,,,,,,,,,,,,,,,,,5,2.319000006,5,0.121000051,1,0,1200,594,1,1199,moss,11133,2019-10-22_08h20.02.454,SurveyExpMetaMem,3.2.3,Win32,60
,,,,,,,,,,,,,,,,,,,,4,2.417999983,5,2.101999998,1,0,1200,670,1,1199,urinate,11133,2019-10-22_08h20.02.454,SurveyExpMetaMem,3.2.3,Win32,60
,,,,,,,,,,,,,,,,,,,,5,55.79100013,5,0.125,1,0,1200,159,1,1199,teenager,11133,2019-10-22_08h20.02.454,SurveyExpMetaMem,3.2.3,Win32,60
,,,,,,,,,,,,,,,,,,,,5,2,5,0.148000002,1,0,1200,666,1,1199,verify,11133,2019-10-22_08h20.02.454,SurveyExpMetaMem,3.2.3,Win32,60
,,,,,,,,,,,,,,,,,,,,5,1.184999943,5,0.155999899,1,0,1200,738,1,1199,horse,11133,2019-10-22_08h20.02.454,SurveyExpMetaMem,3.2.3,Win32,60
,,,,,,,,,,,,,,,,,,,,5,0.686000109,5,0.138999939,1,0,1200,557,1,1199,class,11133,2019-10-22_08h20.02.454,SurveyExpMetaMem,3.2.3,Win32,60
,,,,,,,,,,,,,,,,,,,,4,2.93200016,5,1.180000067,1,0,1200,414,1,1199,pity,11133,2019-10-22_08h20.02.454,SurveyExpMetaMem,3.2.3,Win32,60
,,,,,,,,,,,,,,,,,,,,5,1.322999954,5,0.184999943,1,0,1200,617,1,1199,tomato,11133,2019-10-22_08h20.02.454,SurveyExpMetaMem,3.2.3,Win32,60
,,,,,,,,,,,,,,,,,,,,4,2.741999865,2,0.406000137,1,0,1200,347,1,1199,unpleasant,11133,2019-10-22_08h20.02.454,SurveyExpMetaMem,3.2.3,Win32,60
,,,,,,,,,,,,,,,,,,,,6,3.733999968,4,0.025000095,1,0,1200,443,1,1199,incorrect,11133,2019-10-22_08h20.02.454,SurveyExpMetaMem,3.2.3,Win32,60
,,,,,,,,,,,,,,,,,,,,5,0.851999998,5,0.315000057,1,0,1200,274,1,1199,song,11133,2019-10-22_08h20.02.454,SurveyExpMetaMem,3.2.3,Win32,60
,,,,,,,,,,,,,,,,,,,,5,69.79399991,5,0.104000092,1,0,1200,604,1,1199,lamp,11133,2019-10-22_08h20.02.454,SurveyExpMetaMem,3.2.3,Win32,60
,,,,,,,,,,,,,,,,,,,,5,0.828999996,5,0.154000044,1,0,1200,965,1,1199,traffic,11133,2019-10-22_08h20.02.454,SurveyExpMetaMem,3.2.3,Win32,60
,,,,,,,,,,,,,,,,,,,,4,4.039000034,2,0.652999878,1,0,1200,310,1,1199,lonely,11133,2019-10-22_08h20.02.454,SurveyExpMetaMem,3.2.3,Win32,60
,,,,,,,,,,,,,,,,,,,,4,2.433000088,4,0.519999981,1,0,1200,422,1,1199,doubtful,11133,2019-10-22_08h20.02.454,SurveyExpMetaMem,3.2.3,Win32,60
,,,,,,,,,,,,,,,,,,,,1,2.203999996,8,1.321000099,1,0,1200,865,1,1199,bliss,11133,2019-10-22_08h20.02.454,SurveyExpMetaMem,3.2.3,Win32,60
,,,,,,,,,,,,,,,,,,,,5,5.299000025,7,0.055999994,1,0,1200,15,1,1199,curiosity,11133,2019-10-22_08h20.02.454,SurveyExpMetaMem,3.2.3,Win32,60
,,,,,,,,,,,,,,,,,,,,5,73.79900002,4,0.027000189,1,0,1200,556,1,1199,allege,11133,2019-10-22_08h20.02.454,SurveyExpMetaMem,3.2.3,Win32,60
,,,,,,,,,,,,,,,,,,,,5,2.561000109,6,0.944999933,1,0,1200,34,1,1199,personality,11133,2019-10-22_08h20.02.454,SurveyExpMetaMem,3.2.3,Win32,60
,,,,,,,,,,,,,,,,,,,,9,4.154000044,2,1.420000076,1,0,1200,990,1,1199,enraged,11133,2019-10-22_08h20.02.454,SurveyExpMetaMem,3.2.3,Win32,60
,,,,,,,,,,,,,,,,,,,,8,26.16300011,4,1.037999868,1,0,1200,8,1,1199,extreme,11133,2019-10-22_08h20.02.454,SurveyExpMetaMem,3.2.3,Win32,60
,,,,,,,,,,,,,,,,,,,,3,3.914000034,1,2.736000061,1,0,1200,465,1,1199,void,11133,2019-10-22_08h20.02.454,SurveyExpMetaMem,3.2.3,Win32,60
,,,,,,,,,,,,,,,,,,,,5,66.51200008,4,0.288000107,1,0,1200,358,1,1199,waste,11133,2019-10-22_08h20.02.454,SurveyExpMetaMem,3.2.3,Win32,60
,,,,,,,,,,,,,,,,,,,,8,2.525000095,5,1.07400012,1,0,1200,12,1,1199,mountain,11133,2019-10-22_08h20.02.454,SurveyExpMetaMem,3.2.3,Win32,60
,,,,,,,,,,,,,,,,,,,,5,2.619000196,3,0.84100008,1,0,1200,520,1,1199,gullible,11133,2019-10-22_08h20.02.454,SurveyExpMetaMem,3.2.3,Win32,60
,,,,,,,,,,,,,,,,,,,,1,2.006000042,7,1.420999765,1,0,1200,870,1,1199,safe,11133,2019-10-22_08h20.02.454,SurveyExpMetaMem,3.2.3,Win32,60
,,,,,,,,,,,,,,,,,,,,3,9.687000036,6,1.228999853,1,0,1200,735,1,1199,tea,11133,2019-10-22_08h20.02.454,SurveyExpMetaMem,3.2.3,Win32,60
,,,,,,,,,,,,,,,,,,,,6,54.66400003,5,1.523000002,1,0,1200,279,1,1199,bargain,11133,2019-10-22_08h20.02.454,SurveyExpMetaMem,3.2.3,Win32,60
,,,,,,,,,,,,,,,,,,,,4,2.389000177,2,1.988000154,1,0,1200,964,1,1199,grieve,11133,2019-10-22_08h20.02.454,SurveyExpMetaMem,3.2.3,Win32,60
,,,,,,,,,,,,,,,,,,,,8,1.938999891,7,0.78399992,1,0,1200,271,1,1199,applaud,11133,2019-10-22_08h20.02.454,SurveyExpMetaMem,3.2.3,Win32,60
,,,,,,,,,,,,,,,,,,,,5,3.267999887,5,0.157000065,1,0,1200,767,1,1199,civil,11133,2019-10-22_08h20.02.454,SurveyExpMetaMem,3.2.3,Win32,60
,,,,,,,,,,,,,,,,,,,,4,42.23399997,8,1.021000147,1,0,1200,884,1,1199,grateful,11133,2019-10-22_08h20.02.454,SurveyExpMetaMem,3.2.3,Win32,60
,,,,,,,,,,,,,,,,,,,,5,3.773000002,4,0.625,1,0,1200,505,1,1199,exhaust,11133,2019-10-22_08h20.02.454,SurveyExpMetaMem,3.2.3,Win32,60
,,,,,,,,,,,,,,,,,,,,9,3.24000001,7,1.069000006,1,0,1200,109,1,1199,new,11133,2019-10-22_08h20.02.454,SurveyExpMetaMem,3.2.3,Win32,60
,,,,,,,,,,,,,,,,,,,,8,2.250999928,9,1.164000034,1,0,1200,124,1,1199,honeymoon,11133,2019-10-22_08h20.02.454,SurveyExpMetaMem,3.2.3,Win32,60
,,,,,,,,,,,,,,,,,,,,4,3.506000042,8,1.319999933,1,0,1200,711,1,1199,sympathetic,11133,2019-10-22_08h20.02.454,SurveyExpMetaMem,3.2.3,Win32,60
,,,,,,,,,,,,,,,,,,,,6,3.953999996,5,1.088999987,1,0,1200,285,1,1199,gold,11133,2019-10-22_08h20.02.454,SurveyExpMetaMem,3.2.3,Win32,60
,,,,,,,,,,,,,,,,,,,,5,44.11899996,2,1.674999952,1,0,1200,467,1,1199,FALSE,11133,2019-10-22_08h20.02.454,SurveyExpMetaMem,3.2.3,Win32,60
,,,,,,,,,,,,,,,,,,,,1,30.55999994,4,1.744999886,1,0,1200,926,1,1199,dead,11133,2019-10-22_08h20.02.454,SurveyExpMetaMem,3.2.3,Win32,60
,,,,,,,,,,,,,,,,,,,,5,80.44599986,4,0.069999933,1,0,1200,588,1,1199,bandage,11133,2019-10-22_08h20.02.454,SurveyExpMetaMem,3.2.3,Win32,60
,,,,,,,,,,,,,,,,,,,,3,2.388000011,3,0.421999931,1,0,1200,474,1,1199,weary,11133,2019-10-22_08h20.02.454,SurveyExpMetaMem,3.2.3,Win32,60
,,,,,,,,,,,,,,,,,,,,5,1.505000114,5,0.138000011,1,0,1200,765,1,1199,candid,11133,2019-10-22_08h20.02.454,SurveyExpMetaMem,3.2.3,Win32,60
,,,,,,,,,,,,,,,,,,,,3,4.470999956,6,2.723999977,1,0,1200,524,1,1199,sigh,11133,2019-10-22_08h20.02.454,SurveyExpMetaMem,3.2.3,Win32,60
,,,,,,,,,,,,,,,,,,,,6,7.004999876,6,0.796000004,1,0,1200,87,1,1199,cookie,11133,2019-10-22_08h20.02.454,SurveyExpMetaMem,3.2.3,Win32,60
,,,,,,,,,,,,,,,,,,,,5,23.44799995,2,0.336999893,1,0,1200,992,1,1199,addict,11133,2019-10-22_08h20.02.454,SurveyExpMetaMem,3.2.3,Win32,60
,,,,,,,,,,,,,,,,,,,,7,2.951999903,6,1.111000061,1,0,1200,13,1,1199,mingle,11133,2019-10-22_08h20.02.454,SurveyExpMetaMem,3.2.3,Win32,60
,,,,,,,,,,,,,,,,,,,,6,2.686000109,3,0.991999865,1,0,1200,508,1,1199,haphazard,11133,2019-10-22_08h20.02.454,SurveyExpMetaMem,3.2.3,Win32,60
,,,,,,,,,,,,,,,,,,,,4,33.43700004,7,0.176000118,1,0,1200,775,1,1199,pancakes,11133,2019-10-22_08h20.02.454,SurveyExpMetaMem,3.2.3,Win32,60
,,,,,,,,,,,,,,,,,,,,7,2.5,8,0.660000086,1,0,1200,99,1,1199,funny,11133,2019-10-22_08h20.02.454,SurveyExpMetaMem,3.2.3,Win32,60
,,,,,,,,,,,,,,,,,,,,5,45.72000003,5,0.136000156,1,0,1200,620,1,1199,spray,11133,2019-10-22_08h20.02.454,SurveyExpMetaMem,3.2.3,Win32,60
,,,,,,,,,,,,,,,,,,,,5,0.906999826,5,0.123000145,1,0,1200,684,1,1199,send,11133,2019-10-22_08h20.02.454,SurveyExpMetaMem,3.2.3,Win32,60
,,,,,,,,,,,,,,,,,,,,6,2.785000086,6,0.121999979,1,0,1200,814,1,1199,dress,11133,2019-10-22_08h20.02.454,SurveyExpMetaMem,3.2.3,Win32,60
,,,,,,,,,,,,,,,,,,,,2,3.323999882,5,0.103000164,1,0,1200,645,1,1199,telescope,11133,2019-10-22_08h20.02.454,SurveyExpMetaMem,3.2.3,Win32,60
,,,,,,,,,,,,,,,,,,,,1,3.774000168,7,0.345000029,1,0,1200,174,1,1199,snow,11133,2019-10-22_08h20.02.454,SurveyExpMetaMem,3.2.3,Win32,60
,,,,,,,,,,,,,,,,,,,,4,47.34799981,3,1.003000021,1,0,1200,381,1,1199,sloppy,11133,2019-10-22_08h20.02.454,SurveyExpMetaMem,3.2.3,Win32,60
,,,,,,,,,,,,,,,,,,,,7,3.950999975,3,1.269999981,1,0,1200,1098,1,1199,confused,11133,2019-10-22_08h20.02.454,SurveyExpMetaMem,3.2.3,Win32,60
,,,,,,,,,,,,,,,,,,,,9,1.81799984,1,0.697000027,1,0,1200,1037,1,1199,scared,11133,2019-10-22_08h20.02.454,SurveyExpMetaMem,3.2.3,Win32,60
,,,,,,,,,,,,,,,,,,,,5,4.072999954,1,1.061000109,1,0,1200,483,1,1199,condescension,11133,2019-10-22_08h20.02.454,SurveyExpMetaMem,3.2.3,Win32,60
,,,,,,,,,,,,,,,,,,,,5,1.381999969,5,0.170000076,1,0,1200,807,1,1199,person,11133,2019-10-22_08h20.02.454,SurveyExpMetaMem,3.2.3,Win32,60
,,,,,,,,,,,,,,,,,,,,8,2.18900013,8,0.715000153,1,0,1200,181,1,1199,fascinate,11133,2019-10-22_08h20.02.454,SurveyExpMetaMem,3.2.3,Win32,60
,,,,,,,,,,,,,,,,,,,,5,3.829999924,4,1.039000034,1,0,1200,477,1,1199,separate,11133,2019-10-22_08h20.02.454,SurveyExpMetaMem,3.2.3,Win32,60
,,,,,,,,,,,,,,,,,,,,7,3.215999842,5,1.201999903,1,0,1200,104,1,1199,freeway,11133,2019-10-22_08h20.02.454,SurveyExpMetaMem,3.2.3,Win32,60
,,,,,,,,,,,,,,,,,,,,6,2.510000229,5,0.618999958,1,0,1200,241,1,1199,car,11133,2019-10-22_08h20.02.454,SurveyExpMetaMem,3.2.3,Win32,60
,,,,,,,,,,,,,,,,,,,,5,3.914999962,1,1.075000048,1,0,1200,452,1,1199,scapegoat,11133,2019-10-22_08h20.02.454,SurveyExpMetaMem,3.2.3,Win32,60
,,,,,,,,,,,,,,,,,,,,6,7.452000141,6,0.678999901,1,0,1200,18,1,1199,mail,11133,2019-10-22_08h20.02.454,SurveyExpMetaMem,3.2.3,Win32,60
,,,,,,,,,,,,,,,,,,,,5,496.1529999,4,1.368999958,1,0,1200,1187,1,1199,drill,11133,2019-10-22_08h20.02.454,SurveyExpMetaMem,3.2.3,Win32,60
,,,,,,,,,,,,,,,,,,,,4,85.11899996,4,0.453999996,1,0,1200,432,1,1199,resign,11133,2019-10-22_08h20.02.454,SurveyExpMetaMem,3.2.3,Win32,60
,,,,,,,,,,,,,,,,,,,,7,1.985999823,7,1.012000084,1,0,1200,185,1,1199,flirt,11133,2019-10-22_08h20.02.454,SurveyExpMetaMem,3.2.3,Win32,60
,,,,,,,,,,,,,,,,,,,,7,63.86699986,5,0.570000172,1,0,1200,55,1,1199,rare,11133,2019-10-22_08h20.02.454,SurveyExpMetaMem,3.2.3,Win32,60
,,,,,,,,,,,,,,,,,,,,3,2.215999842,5,1.662000179,1,0,1200,743,1,1199,herbal,11133,2019-10-22_08h20.02.454,SurveyExpMetaMem,3.2.3,Win32,60
,,,,,,,,,,,,,,,,,,,,6,33.21700001,3,0.739000082,1,0,1200,902,1,1199,rejected,11133,2019-10-22_08h20.02.454,SurveyExpMetaMem,3.2.3,Win32,60
,,,,,,,,,,,,,,,,,,,,3,6.582000017,2,0.871999979,1,0,1200,318,1,1199,disappointment,11133,2019-10-22_08h20.02.454,SurveyExpMetaMem,3.2.3,Win32,60
,,,,,,,,,,,,,,,,,,,,7,86.20700002,7,1.024999857,1,0,1200,132,1,1199,silly,11133,2019-10-22_08h20.02.454,SurveyExpMetaMem,3.2.3,Win32,60
,,,,,,,,,,,,,,,,,,,,5,1.384000063,5,0.16899991,1,0,1200,613,1,1199,cup,11133,2019-10-22_08h20.02.454,SurveyExpMetaMem,3.2.3,Win32,60
,,,,,,,,,,,,,,,,,,,,5,2.71999979,2,1.459000111,1,0,1200,322,1,1199,widow,11133,2019-10-22_08h20.02.454,SurveyExpMetaMem,3.2.3,Win32,60
,,,,,,,,,,,,,,,,,,,,7,2.233999968,5,0.316999912,1,0,1200,67,1,1199,penthouse,11133,2019-10-22_08h20.02.454,SurveyExpMetaMem,3.2.3,Win32,60
,,,,,,,,,,,,,,,,,,,,3,2.213999987,3,2.17200017,1,0,1200,438,1,1199,dull,11133,2019-10-22_08h20.02.454,SurveyExpMetaMem,3.2.3,Win32,60
,,,,,,,,,,,,,,,,,,,,5,38.16199994,5,0.335000038,1,0,1200,575,1,1199,paragraph,11133,2019-10-22_08h20.02.454,SurveyExpMetaMem,3.2.3,Win32,60
,,,,,,,,,,,,,,,,,,,,4,2.177000046,3,2.309000015,1,0,1200,1070,1,1199,bleed,11133,2019-10-22_08h20.02.454,SurveyExpMetaMem,3.2.3,Win32,60
,,,,,,,,,,,,,,,,,,,,5,4.85800004,4,0.667999983,1,0,1200,1085,1,1199,sever,11133,2019-10-22_08h20.02.454,SurveyExpMetaMem,3.2.3,Win32,60
,,,,,,,,,,,,,,,,,,,,7,2.263000011,5,0.703000069,1,0,1200,256,1,1199,galaxy,11133,2019-10-22_08h20.02.454,SurveyExpMetaMem,3.2.3,Win32,60
,,,,,,,,,,,,,,,,,,,,5,129.964,5,0.108999968,1,0,1200,14,1,1199,attain,11133,2019-10-22_08h20.02.454,SurveyExpMetaMem,3.2.3,Win32,60
,,,,,,,,,,,,,,,,,,,,7,2.448999882,3,0.795000076,1,0,1200,945,1,1199,demon,11133,2019-10-22_08h20.02.454,SurveyExpMetaMem,3.2.3,Win32,60
,,,,,,,,,,,,,,,,,,,,8,14.91000009,9,0.921000004,1,0,1200,199,1,1199,laughter,11133,2019-10-22_08h20.02.454,SurveyExpMetaMem,3.2.3,Win32,60
,,,,,,,,,,,,,,,,,,,,7,4.371999979,5,0.118999958,1,0,1200,119,1,1199,stereo,11133,2019-10-22_08h20.02.454,SurveyExpMetaMem,3.2.3,Win32,60
,,,,,,,,,,,,,,,,,,,,5,3.271000147,5,0.649000168,1,0,1200,713,1,1199,mobile,11133,2019-10-22_08h20.02.454,SurveyExpMetaMem,3.2.3,Win32,60
,,,,,,,,,,,,,,,,,,,,3,2.812999964,3,0.43599987,1,0,1200,1069,1,1199,defeat,11133,2019-10-22_08h20.02.454,SurveyExpMetaMem,3.2.3,Win32,60
,,,,,,,,,,,,,,,,,,,,7,32.07000017,4,0.220000029,1,0,1200,956,1,1199,crushed,11133,2019-10-22_08h20.02.454,SurveyExpMetaMem,3.2.3,Win32,60
,,,,,,,,,,,,,,,,,,,,7,170.579,9,0.878000021,1,0,1200,95,1,1199,giggle,11133,2019-10-22_08h20.02.454,SurveyExpMetaMem,3.2.3,Win32,60
,,,,,,,,,,,,,,,,,,,,5,70.92900014,5,0.169999838,1,0,1200,777,1,1199,casual,11133,2019-10-22_08h20.02.454,SurveyExpMetaMem,3.2.3,Win32,60
,,,,,,,,,,,,,,,,,,,,2,4.368000031,3,1.019999981,1,0,1200,359,1,1199,bored,11133,2019-10-22_08h20.02.454,SurveyExpMetaMem,3.2.3,Win32,60
,,,,,,,,,,,,,,,,,,,,6,4.914000034,6,3.190999985,1,0,1200,455,1,1199,chubby,11133,2019-10-22_08h20.02.454,SurveyExpMetaMem,3.2.3,Win32,60
,,,,,,,,,,,,,,,,,,,,8,2.523999929,4,2.986000061,1,0,1200,1176,1,1199,vampire,11133,2019-10-22_08h20.02.454,SurveyExpMetaMem,3.2.3,Win32,60
,,,,,,,,,,,,,,,,,,,,7,16.38900018,6,1.734999895,1,0,1200,225,1,1199,strong,11133,2019-10-22_08h20.02.454,SurveyExpMetaMem,3.2.3,Win32,60
,,,,,,,,,,,,,,,,,,,,2,2.753999949,4,1.292000055,1,0,1200,478,1,1199,numb,11133,2019-10-22_08h20.02.454,SurveyExpMetaMem,3.2.3,Win32,60
,,,,,,,,,,,,,,,,,,,,5,3.438999891,1,1.189999819,1,0,1200,976,1,1199,tumor,11133,2019-10-22_08h20.02.454,SurveyExpMetaMem,3.2.3,Win32,60
,,,,,,,,,,,,,,,,,,,,6,3.098999977,3,0.802999973,1,0,1200,952,1,1199,troubled,11133,2019-10-22_08h20.02.454,SurveyExpMetaMem,3.2.3,Win32,60
,,,,,,,,,,,,,,,,,,,,5,2.003000021,3,1.569999933,1,0,1200,430,1,1199,cancel,11133,2019-10-22_08h20.02.454,SurveyExpMetaMem,3.2.3,Win32,60
,,,,,,,,,,,,,,,,,,,,3,3.242000103,3,0.536000013,1,0,1200,433,1,1199,uninteresting,11133,2019-10-22_08h20.02.454,SurveyExpMetaMem,3.2.3,Win32,60
,,,,,,,,,,,,,,,,,,,,8,2.907999992,5,0.718999863,1,0,1200,269,1,1199,extravagant,11133,2019-10-22_08h20.02.454,SurveyExpMetaMem,3.2.3,Win32,60
,,,,,,,,,,,,,,,,,,,,5,18.07099986,8,1.309000015,1,0,1200,147,1,1199,cure,11133,2019-10-22_08h20.02.454,SurveyExpMetaMem,3.2.3,Win32,60
,,,,,,,,,,,,,,,,,,,,6,72.01399994,5,0.302000046,1,0,1200,639,1,1199,outlet,11133,2019-10-22_08h20.02.454,SurveyExpMetaMem,3.2.3,Win32,60
,,,,,,,,,,,,,,,,,,,,7,6.832000017,6,2.256000042,1,0,1200,693,1,1199,key,11133,2019-10-22_08h20.02.454,SurveyExpMetaMem,3.2.3,Win32,60
,,,,,,,,,,,,,,,,,,,,5,2.667999983,3,1.457000017,1,0,1200,334,1,1199,trash,11133,2019-10-22_08h20.02.454,SurveyExpMetaMem,3.2.3,Win32,60
,,,,,,,,,,,,,,,,,,,,7,2.687000036,1,1.686000109,1,0,1200,940,1,1199,war,11133,2019-10-22_08h20.02.454,SurveyExpMetaMem,3.2.3,Win32,60
,,,,,,,,,,,,,,,,,,,,5,23.44900012,5,0.119999886,1,0,1200,623,1,1199,suburban,11133,2019-10-22_08h20.02.454,SurveyExpMetaMem,3.2.3,Win32,60
,,,,,,,,,,,,,,,,,,,,5,1.02699995,5,0.131000042,1,0,1200,661,1,1199,cow,11133,2019-10-22_08h20.02.454,SurveyExpMetaMem,3.2.3,Win32,60
,,,,,,,,,,,,,,,,,,,,5,1.266000032,5,0.143000126,1,0,1200,220,1,1199,reef,11133,2019-10-22_08h20.02.454,SurveyExpMetaMem,3.2.3,Win32,60
,,,,,,,,,,,,,,,,,,,,7,2.491000175,4,3.365999937,1,0,1200,1173,1,1199,lurk,11133,2019-10-22_08h20.02.454,SurveyExpMetaMem,3.2.3,Win32,60
,,,,,,,,,,,,,,,,,,,,8,2.139999866,8,1.131999969,1,0,1200,116,1,1199,carnival,11133,2019-10-22_08h20.02.454,SurveyExpMetaMem,3.2.3,Win32,60
,,,,,,,,,,,,,,,,,,,,5,1.690999985,4,0.730999947,1,0,1200,487,1,1199,junk,11133,2019-10-22_08h20.02.454,SurveyExpMetaMem,3.2.3,Win32,60
,,,,,,,,,,,,,,,,,,,,6,2.017999887,7,0.511000156,1,0,1200,43,1,1199,diamond,11133,2019-10-22_08h20.02.454,SurveyExpMetaMem,3.2.3,Win32,60
,,,,,,,,,,,,,,,,,,,,8,3.266000032,7,0.234999895,1,0,1200,289,1,1199,concert,11133,2019-10-22_08h20.02.454,SurveyExpMetaMem,3.2.3,Win32,60
,,,,,,,,,,,,,,,,,,,,5,3.032999992,2,1.424000025,1,0,1200,309,1,1199,homeless,11133,2019-10-22_08h20.02.454,SurveyExpMetaMem,3.2.3,Win32,60
,,,,,,,,,,,,,,,,,,,,9,2.277000189,1,1.046999931,1,0,1200,1171,1,1199,chaos,11133,2019-10-22_08h20.02.454,SurveyExpMetaMem,3.2.3,Win32,60
,,,,,,,,,,,,,,,,,,,,7,138.0090001,3,1.996000051,1,0,1200,1013,1,1199,guilty,11133,2019-10-22_08h20.02.454,SurveyExpMetaMem,3.2.3,Win32,60
,,,,,,,,,,,,,,,,,,,,2,3.551000118,8,0.970000029,1,0,1200,294,1,1199,confident,11133,2019-10-22_08h20.02.454,SurveyExpMetaMem,3.2.3,Win32,60
,,,,,,,,,,,,,,,,,,,,5,2.252000093,4,1.101999998,1,0,1200,545,1,1199,tar,11133,2019-10-22_08h20.02.454,SurveyExpMetaMem,3.2.3,Win32,60
,,,,,,,,,,,,,,,,,,,,6,2.035000086,5,0.437999964,1,0,1200,110,1,1199,animal,11133,2019-10-22_08h20.02.454,SurveyExpMetaMem,3.2.3,Win32,60
,,,,,,,,,,,,,,,,,,,,7,1.983999968,3,0.475999832,1,0,1200,1016,1,1199,awful,11133,2019-10-22_08h20.02.454,SurveyExpMetaMem,3.2.3,Win32,60
,,,,,,,,,,,,,,,,,,,,8,2.53399992,2,0.835999966,1,0,1200,946,1,1199,amputate,11133,2019-10-22_08h20.02.454,SurveyExpMetaMem,3.2.3,Win32,60
,,,,,,,,,,,,,,,,,,,,3,2.701999903,8,0.485999823,1,0,1200,857,1,1199,thankful,11133,2019-10-22_08h20.02.454,SurveyExpMetaMem,3.2.3,Win32,60
,,,,,,,,,,,,,,,,,,,,5,1.750999928,5,0.10800004,1,0,1200,1153,1,1199,mangle,11133,2019-10-22_08h20.02.454,SurveyExpMetaMem,3.2.3,Win32,60
,,,,,,,,,,,,,,,,,,,,7,1.921999931,1,0.718999863,1,0,1200,918,1,1199,gunpoint,11133,2019-10-22_08h20.02.454,SurveyExpMetaMem,3.2.3,Win32,60
,,,,,,,,,,,,,,,,,,,,5,3.138000011,5,0.08100009,1,0,1200,662,1,1199,bib,11133,2019-10-22_08h20.02.454,SurveyExpMetaMem,3.2.3,Win32,60
,,,,,,,,,,,,,,,,,,,,4,12.05900002,3,1.370000124,1,0,1200,325,1,1199,disability,11133,2019-10-22_08h20.02.454,SurveyExpMetaMem,3.2.3,Win32,60
,,,,,,,,,,,,,,,,,,,,8,1.725999832,4,0.743999958,1,0,1200,1179,1,1199,nerves,11133,2019-10-22_08h20.02.454,SurveyExpMetaMem,3.2.3,Win32,60
,,,,,,,,,,,,,,,,,,,,3,108.566,5,0.636999846,1,0,1200,677,1,1199,handwriting,11133,2019-10-22_08h20.02.454,SurveyExpMetaMem,3.2.3,Win32,60
,,,,,,,,,,,,,,,,,,,,6,4.502000093,4,0.603000164,1,0,1200,457,1,1199,confuse,11133,2019-10-22_08h20.02.454,SurveyExpMetaMem,3.2.3,Win32,60
,,,,,,,,,,,,,,,,,,,,8,1.684999943,7,1.454999924,1,0,1200,198,1,1199,comedy,11133,2019-10-22_08h20.02.454,SurveyExpMetaMem,3.2.3,Win32,60
,,,,,,,,,,,,,,,,,,,,5,3.767000198,5,0.130000114,1,0,1200,838,1,1199,nestle,11133,2019-10-22_08h20.02.454,SurveyExpMetaMem,3.2.3,Win32,60
,,,,,,,,,,,,,,,,,,,,6,4.93599987,4,1.727999926,1,0,1200,523,1,1199,witch,11133,2019-10-22_08h20.02.454,SurveyExpMetaMem,3.2.3,Win32,60
,,,,,,,,,,,,,,,,,,,,5,6.31400013,3,0.644999981,1,0,1200,425,1,1199,crutch,11133,2019-10-22_08h20.02.454,SurveyExpMetaMem,3.2.3,Win32,60
,,,,,,,,,,,,,,,,,,,,6,5.413000107,2,0.835999966,1,0,1200,921,1,1199,humiliation,11133,2019-10-22_08h20.02.454,SurveyExpMetaMem,3.2.3,Win32,60
,,,,,,,,,,,,,,,,,,,,7,2.453000069,1,0.573000193,1,0,1200,908,1,1199,suffer,11133,2019-10-22_08h20.02.454,SurveyExpMetaMem,3.2.3,Win32,60
,,,,,,,,,,,,,,,,,,,,5,8.802999973,3,0.521000147,1,0,1200,551,1,1199,coal,11133,2019-10-22_08h20.02.454,SurveyExpMetaMem,3.2.3,Win32,60
,,,,,,,,,,,,,,,,,,,,4,7.105999947,9,1.039000034,1,0,1200,191,1,1199,compassion,11133,2019-10-22_08h20.02.454,SurveyExpMetaMem,3.2.3,Win32,60
,,,,,,,,,,,,,,,,,,,,5,3.799999952,6,0.145999908,1,0,1200,723,1,1199,cinnamon,11133,2019-10-22_08h20.02.454,SurveyExpMetaMem,3.2.3,Win32,60
,,,,,,,,,,,,,,,,,,,,8,2.686000109,6,1.154000044,1,0,1200,267,1,1199,bold,11133,2019-10-22_08h20.02.454,SurveyExpMetaMem,3.2.3,Win32,60
,,,,,,,,,,,,,,,,,,,,5,2.485000134,3,2.26699996,1,0,1200,324,1,1199,inferiority,11133,2019-10-22_08h20.02.454,SurveyExpMetaMem,3.2.3,Win32,60
,,,,,,,,,,,,,,,,,,,,1,2.16899991,8,1.157000065,1,0,1200,192,1,1199,pleased,11133,2019-10-22_08h20.02.454,SurveyExpMetaMem,3.2.3,Win32,60
,,,,,,,,,,,,,,,,,,,,5,21.60800004,4,0.109000206,1,0,1200,485,1,1199,pinch,11133,2019-10-22_08h20.02.454,SurveyExpMetaMem,3.2.3,Win32,60
,,,,,,,,,,,,,,,,,,,,2,95.41499996,6,0.743000031,1,0,1200,862,1,1199,ease,11133,2019-10-22_08h20.02.454,SurveyExpMetaMem,3.2.3,Win32,60
,,,,,,,,,,,,,,,,,,,,5,1.720999956,5,0.125999928,1,0,1200,152,1,1199,hire,11133,2019-10-22_08h20.02.454,SurveyExpMetaMem,3.2.3,Win32,60
,,,,,,,,,,,,,,,,,,,,3,2.3349998,8,0.95600009,1,0,1200,98,1,1199,affection,11133,2019-10-22_08h20.02.454,SurveyExpMetaMem,3.2.3,Win32,60
,,,,,,,,,,,,,,,,,,,,5,55.32500005,5,0.109999895,1,0,1200,764,1,1199,coin,11133,2019-10-22_08h20.02.454,SurveyExpMetaMem,3.2.3,Win32,60
,,,,,,,,,,,,,,,,,,,,8,2.399999857,2,0.728000164,1,0,1200,1000,1,1199,threat,11133,2019-10-22_08h20.02.454,SurveyExpMetaMem,3.2.3,Win32,60
,,,,,,,,,,,,,,,,,,,,5,1.983999968,4,2.123999834,1,0,1200,1062,1,1199,shoplifter,11133,2019-10-22_08h20.02.454,SurveyExpMetaMem,3.2.3,Win32,60
,,,,,,,,,,,,,,,,,,,,7,2.56400013,2,1.191999912,1,0,1200,998,1,1199,virus,11133,2019-10-22_08h20.02.454,SurveyExpMetaMem,3.2.3,Win32,60
,,,,,,,,,,,,,,,,,,,,5,3.731000185,4,1.024999857,1,0,1200,1027,1,1199,criticism,11133,2019-10-22_08h20.02.454,SurveyExpMetaMem,3.2.3,Win32,60
,,,,,,,,,,,,,,,,,,,,7,2.032000065,7,0.536999941,1,0,1200,281,1,1199,summer,11133,2019-10-22_08h20.02.454,SurveyExpMetaMem,3.2.3,Win32,60
,,,,,,,,,,,,,,,,,,,,5,3.049999952,4,1.822999954,1,0,1200,454,1,1199,damp,11133,2019-10-22_08h20.02.454,SurveyExpMetaMem,3.2.3,Win32,60
,,,,,,,,,,,,,,,,,,,,9,3.357000113,1,0.495000124,1,0,1200,1036,1,1199,anxiety,11133,2019-10-22_08h20.02.454,SurveyExpMetaMem,3.2.3,Win32,60
,,,,,,,,,,,,,,,,,,,,2,3.007000208,7,0.892999887,1,0,1200,722,1,1199,consoled,11133,2019-10-22_08h20.02.454,SurveyExpMetaMem,3.2.3,Win32,60
,,,,,,,,,,,,,,,,,,,,5,6.296999931,6,1.437000036,1,0,1200,46,1,1199,god,11133,2019-10-22_08h20.02.454,SurveyExpMetaMem,3.2.3,Win32,60
,,,,,,,,,,,,,,,,,,,,8,36.96500015,1,0.919999838,1,0,1200,1073,1,1199,bitch,11133,2019-10-22_08h20.02.454,SurveyExpMetaMem,3.2.3,Win32,60
,,,,,,,,,,,,,,,,,,,,2,5,6,0.877999783,1,0,1200,213,1,1199,fair,11133,2019-10-22_08h20.02.454,SurveyExpMetaMem,3.2.3,Win32,60
,,,,,,,,,,,,,,,,,,,,8,1.639999866,8,0.544000149,1,0,1200,146,1,1199,congratulations,11133,2019-10-22_08h20.02.454,SurveyExpMetaMem,3.2.3,Win32,60
,,,,,,,,,,,,,,,,,,,,9,1.417999983,3,1.260999918,1,0,1200,1118,1,1199,frantic,11133,2019-10-22_08h20.02.454,SurveyExpMetaMem,3.2.3,Win32,60
,,,,,,,,,,,,,,,,,,,,6,1.632999897,2,1.15199995,1,0,1200,923,1,1199,punish,11133,2019-10-22_08h20.02.454,SurveyExpMetaMem,3.2.3,Win32,60
,,,,,,,,,,,,,,,,,,,,7,4.23300004,1,0.674000025,1,0,1200,300,1,1199,unhappy,11133,2019-10-22_08h20.02.454,SurveyExpMetaMem,3.2.3,Win32,60
,,,,,,,,,,,,,,,,,,,,5,1.937999964,3,0.724999905,1,0,1200,253,1,1199,soldier,11133,2019-10-22_08h20.02.454,SurveyExpMetaMem,3.2.3,Win32,60
,,,,,,,,,,,,,,,,,,,,5,2.117000103,4,0.462000132,1,0,1200,494,1,1199,butcher,11133,2019-10-22_08h20.02.454,SurveyExpMetaMem,3.2.3,Win32,60
,,,,,,,,,,,,,,,,,,,,6,267.819,8,0.792999983,1,0,1200,42,1,1199,accomplish,11133,2019-10-22_08h20.02.454,SurveyExpMetaMem,3.2.3,Win32,60
,,,,,,,,,,,,,,,,,,,,6,1.763999939,2,1.086000204,1,0,1200,982,1,1199,robbery,11133,2019-10-22_08h20.02.454,SurveyExpMetaMem,3.2.3,Win32,60
,,,,,,,,,,,,,,,,,,,,9,2.65199995,6,2.434000015,1,0,1200,207,1,1199,erect,11133,2019-10-22_08h20.02.454,SurveyExpMetaMem,3.2.3,Win32,60
,,,,,,,,,,,,,,,,,,,,8,49.79400015,5,1.201999903,1,0,1200,1198,1,1199,lightning,11133,2019-10-22_08h20.02.454,SurveyExpMetaMem,3.2.3,Win32,60
,,,,,,,,,,,,,,,,,,,,3,2.383000135,5,0.353999853,1,0,1200,774,1,1199,leaves,11133,2019-10-22_08h20.02.454,SurveyExpMetaMem,3.2.3,Win32,60
,,,,,,,,,,,,,,,,,,,,3,3.072999954,4,1.469000101,1,0,1200,542,1,1199,loose,11133,2019-10-22_08h20.02.454,SurveyExpMetaMem,3.2.3,Win32,60
,,,,,,,,,,,,,,,,,,,,6,1.975000143,1,1.294000149,1,0,1200,446,1,1199,greedy,11133,2019-10-22_08h20.02.454,SurveyExpMetaMem,3.2.3,Win32,60
,,,,,,,,,,,,,,,,,,,,7,2.361999989,3,0.75999999,1,0,1200,1066,1,1199,annoy,11133,2019-10-22_08h20.02.454,SurveyExpMetaMem,3.2.3,Win32,60
,,,,,,,,,,,,,,,,,,,,5,3.639999866,4,1.392999887,1,0,1200,343,1,1199,fever,11133,2019-10-22_08h20.02.454,SurveyExpMetaMem,3.2.3,Win32,60
,,,,,,,,,,,,,,,,,,,,8,3.35800004,4,4.067000151,1,0,1200,1175,1,1199,prostitute,11133,2019-10-22_08h20.02.454,SurveyExpMetaMem,3.2.3,Win32,60
,,,,,,,,,,,,,,,,,,,,7,25.28900003,7,1.24000001,1,0,1200,32,1,1199,festival,11133,2019-10-22_08h20.02.454,SurveyExpMetaMem,3.2.3,Win32,60
,,,,,,,,,,,,,,,,,,,,2,1.834000111,6,0.838000059,1,0,1200,753,1,1199,patience,11133,2019-10-22_08h20.02.454,SurveyExpMetaMem,3.2.3,Win32,60
,,,,,,,,,,,,,,,,,,,,8,1.902999878,4,1.267999887,1,0,1200,1105,1,1199,flee,11133,2019-10-22_08h20.02.454,SurveyExpMetaMem,3.2.3,Win32,60
,,,,,,,,,,,,,,,,,,,,5,2.467999935,5,1.625999928,1,0,1200,101,1,1199,alien,11133,2019-10-22_08h20.02.454,SurveyExpMetaMem,3.2.3,Win32,60
,,,,,,,,,,,,,,,,,,,,5,3.90899992,5,0.684999943,1,0,1200,38,1,1199,cheeseburger,11133,2019-10-22_08h20.02.454,SurveyExpMetaMem,3.2.3,Win32,60
,,,,,,,,,,,,,,,,,,,,4,5.559000015,8,0.845999956,1,0,1200,811,1,1199,tenderness,11133,2019-10-22_08h20.02.454,SurveyExpMetaMem,3.2.3,Win32,60
,,,,,,,,,,,,,,,,,,,,5,1.851999998,4,0.835999966,1,0,1200,1111,1,1199,bruise,11133,2019-10-22_08h20.02.454,SurveyExpMetaMem,3.2.3,Win32,60
,,,,,,,,,,,,,,,,,,,,8,1.917999983,4,1.96600008,1,0,1200,5,1,1199,drunk,11133,2019-10-22_08h20.02.454,SurveyExpMetaMem,3.2.3,Win32,60
,,,,,,,,,,,,,,,,,,,,5,19.49499989,3,1.984000206,1,0,1200,408,1,1199,bore,11133,2019-10-22_08h20.02.454,SurveyExpMetaMem,3.2.3,Win32,60
,,,,,,,,,,,,,,,,,,,,9,2.038000107,5,3.019000053,1,0,1200,250,1,1199,erupt,11133,2019-10-22_08h20.02.454,SurveyExpMetaMem,3.2.3,Win32,60
,,,,,,,,,,,,,,,,,,,,4,5.31400013,4,1.302999973,1,0,1200,479,1,1199,period,11133,2019-10-22_08h20.02.454,SurveyExpMetaMem,3.2.3,Win32,60
,,,,,,,,,,,,,,,,,,,,4,5.042999983,4,0.243999958,1,0,1200,547,1,1199,cellar,11133,2019-10-22_08h20.02.454,SurveyExpMetaMem,3.2.3,Win32,60
,,,,,,,,,,,,,,,,,,,,6,2.319000006,1,0.786000013,1,0,1200,904,1,1199,murderer,11133,2019-10-22_08h20.02.454,SurveyExpMetaMem,3.2.3,Win32,60
,,,,,,,,,,,,,,,,,,,,7,33.148,8,0.655999899,1,0,1200,247,1,1199,graduate,11133,2019-10-22_08h20.02.454,SurveyExpMetaMem,3.2.3,Win32,60
,,,,,,,,,,,,,,,,,,,,6,3.165999889,7,0.287000179,1,0,1200,127,1,1199,glamorous,11133,2019-10-22_08h20.02.454,SurveyExpMetaMem,3.2.3,Win32,60
,,,,,,,,,,,,,,,,,,,,6,3.455999851,8,1.27699995,1,0,1200,239,1,1199,compassionate,11133,2019-10-22_08h20.02.454,SurveyExpMetaMem,3.2.3,Win32,60
,,,,,,,,,,,,,,,,,,,,5,1.964999914,5,2.601999998,1,0,1200,1154,1,1199,politics,11133,2019-10-22_08h20.02.454,SurveyExpMetaMem,3.2.3,Win32,60
,,,,,,,,,,,,,,,,,,,,9,7.59800005,3,1.212999821,1,0,1200,1177,1,1199,pang,11133,2019-10-22_08h20.02.454,SurveyExpMetaMem,3.2.3,Win32,60
,,,,,,,,,,,,,,,,,,,,3,3.93200016,7,0.646000147,1,0,1200,202,1,1199,mercy,11133,2019-10-22_08h20.02.454,SurveyExpMetaMem,3.2.3,Win32,60
,,,,,,,,,,,,,,,,,,,,7,2.674999952,5,0.659999847,1,0,1200,730,1,1199,slogan,11133,2019-10-22_08h20.02.454,SurveyExpMetaMem,3.2.3,Win32,60
,,,,,,,,,,,,,,,,,,,,1,3.166999817,6,1.062000036,1,0,1200,544,1,1199,snail,11133,2019-10-22_08h20.02.454,SurveyExpMetaMem,3.2.3,Win32,60
,,,,,,,,,,,,,,,,,,,,3,6.65199995,5,2.76699996,1,0,1200,610,1,1199,miniature,11133,2019-10-22_08h20.02.454,SurveyExpMetaMem,3.2.3,Win32,60
,,,,,,,,,,,,,,,,,,,,6,3.019000053,5,0.610000134,1,0,1200,114,1,1199,raise,11133,2019-10-22_08h20.02.454,SurveyExpMetaMem,3.2.3,Win32,60
,,,,,,,,,,,,,,,,,,,,3,2.144000053,3,0.223999977,1,0,1200,302,1,1199,loneliness,11133,2019-10-22_08h20.02.454,SurveyExpMetaMem,3.2.3,Win32,60
,,,,,,,,,,,,,,,,,,,,8,1.950999975,2,0.95299983,1,0,1200,960,1,1199,irritated,11133,2019-10-22_08h20.02.454,SurveyExpMetaMem,3.2.3,Win32,60
,,,,,,,,,,,,,,,,,,,,4,109.4980001,6,0.319000006,1,0,1200,769,1,1199,relate,11133,2019-10-22_08h20.02.454,SurveyExpMetaMem,3.2.3,Win32,60
,,,,,,,,,,,,,,,,,,,,3,2.75,3,0.371999979,1,0,1200,313,1,1199,rotten,11133,2019-10-22_08h20.02.454,SurveyExpMetaMem,3.2.3,Win32,60
,,,,,,,,,,,,,,,,,,,,6,2.382999897,7,2.001000166,1,0,1200,1183,1,1199,emotional,11133,2019-10-22_08h20.02.454,SurveyExpMetaMem,3.2.3,Win32,60
,,,,,,,,,,,,,,,,,,,,5,11.16200018,5,0.25,1,0,1200,215,1,1199,salary,11133,2019-10-22_08h20.02.454,SurveyExpMetaMem,3.2.3,Win32,60
,,,,,,,,,,,,,,,,,,,,6,50.3039999,3,0.481000185,1,0,1200,423,1,1199,stain,11133,2019-10-22_08h20.02.454,SurveyExpMetaMem,3.2.3,Win32,60
,,,,,,,,,,,,,,,,,,,,7,3.776000023,5,0.269999981,1,0,1200,243,1,1199,fame,11133,2019-10-22_08h20.02.454,SurveyExpMetaMem,3.2.3,Win32,60
,,,,,,,,,,,,,,,,,,,,4,75.9059999,8,0.812000036,1,0,1200,90,1,1199,satisfaction,11133,2019-10-22_08h20.02.454,SurveyExpMetaMem,3.2.3,Win32,60
,,,,,,,,,,,,,,,,,,,,5,68.14499998,4,0.205000162,1,0,1200,543,1,1199,gloat,11133,2019-10-22_08h20.02.454,SurveyExpMetaMem,3.2.3,Win32,60
,,,,,,,,,,,,,,,,,,,,7,1.617000103,3,0.770999908,1,0,1200,1048,1,1199,paranoid,11133,2019-10-22_08h20.02.454,SurveyExpMetaMem,3.2.3,Win32,60
,,,,,,,,,,,,,,,,,,,,2,2.08100009,7,1.371000051,1,0,1200,889,1,1199,wise,11133,2019-10-22_08h20.02.454,SurveyExpMetaMem,3.2.3,Win32,60
,,,,,,,,,,,,,,,,,,,,6,2.588999987,4,1.101999998,1,0,1200,1181,1,1199,blade,11133,2019-10-22_08h20.02.454,SurveyExpMetaMem,3.2.3,Win32,60
,,,,,,,,,,,,,,,,,,,,9,1.483999968,2,0.830000162,1,0,1200,1103,1,1199,mob,11133,2019-10-22_08h20.02.454,SurveyExpMetaMem,3.2.3,Win32,60
,,,,,,,,,,,,,,,,,,,,5,5.643000126,6,0.555999994,1,0,1200,84,1,1199,eat,11133,2019-10-22_08h20.02.454,SurveyExpMetaMem,3.2.3,Win32,60
,,,,,,,,,,,,,,,,,,,,7,1.993999958,7,0.920000076,1,0,1200,136,1,1199,dog,11133,2019-10-22_08h20.02.454,SurveyExpMetaMem,3.2.3,Win32,60
,,,,,,,,,,,,,,,,,,,,7,74.9920001,6,0.085999966,1,0,1200,74,1,1199,explore,11133,2019-10-22_08h20.02.454,SurveyExpMetaMem,3.2.3,Win32,60
,,,,,,,,,,,,,,,,,,,,5,1.960999966,5,0.118999958,1,0,1200,663,1,1199,trout,11133,2019-10-22_08h20.02.454,SurveyExpMetaMem,3.2.3,Win32,60
,,,,,,,,,,,,,,,,,,,,2,2.384000063,6,0.786000013,1,0,1200,853,1,1199,breeze,11133,2019-10-22_08h20.02.454,SurveyExpMetaMem,3.2.3,Win32,60
,,,,,,,,,,,,,,,,,,,,5,2.694000006,4,0.958000183,1,0,1200,484,1,1199,leave,11133,2019-10-22_08h20.02.454,SurveyExpMetaMem,3.2.3,Win32,60
,,,,,,,,,,,,,,,,,,,,6,3.722000122,5,1.372999907,1,0,1200,1155,1,1199,tangle,11133,2019-10-22_08h20.02.454,SurveyExpMetaMem,3.2.3,Win32,60
,,,,,,,,,,,,,,,,,,,,8,1.684000015,8,0.63499999,1,0,1200,125,1,1199,dancing,11133,2019-10-22_08h20.02.454,SurveyExpMetaMem,3.2.3,Win32,60
,,,,,,,,,,,,,,,,,,,,7,2.235999823,8,0.273999929,1,0,1200,39,1,1199,birth,11133,2019-10-22_08h20.02.454,SurveyExpMetaMem,3.2.3,Win32,60
,,,,,,,,,,,,,,,,,,,,6,8.694999933,2,1.552000046,1,0,1200,914,1,1199,fail,11133,2019-10-22_08h20.02.454,SurveyExpMetaMem,3.2.3,Win32,60
,,,,,,,,,,,,,,,,,,,,6,3.28399992,2,1.203000069,1,0,1200,1120,1,1199,gun,11133,2019-10-22_08h20.02.454,SurveyExpMetaMem,3.2.3,Win32,60
,,,,,,,,,,,,,,,,,,,,8,2.306999922,2,0.986000061,1,0,1200,994,1,1199,repulsed,11133,2019-10-22_08h20.02.454,SurveyExpMetaMem,3.2.3,Win32,60
,,,,,,,,,,,,,,,,,,,,5,3.138000011,4,1.88499999,1,0,1200,490,1,1199,detached,11133,2019-10-22_08h20.02.454,SurveyExpMetaMem,3.2.3,Win32,60
,,,,,,,,,,,,,,,,,,,,5,2.865999937,4,0.70600009,1,0,1200,1074,1,1199,detain,11133,2019-10-22_08h20.02.454,SurveyExpMetaMem,3.2.3,Win32,60
,,,,,,,,,,,,,,,,,,,,6,3.404000044,3,0.969000101,1,0,1200,439,1,1199,spit,11133,2019-10-22_08h20.02.454,SurveyExpMetaMem,3.2.3,Win32,60
,,,,,,,,,,,,,,,,,,,,1,1.677999973,7,0.987999916,1,0,1200,878,1,1199,sleep,11133,2019-10-22_08h20.02.454,SurveyExpMetaMem,3.2.3,Win32,60
,,,,,,,,,,,,,,,,,,,,5,2.177999973,5,0.172999859,1,0,1200,710,1,1199,gender,11133,2019-10-22_08h20.02.454,SurveyExpMetaMem,3.2.3,Win32,60
,,,,,,,,,,,,,,,,,,,,5,3.797999859,5,0.128999949,1,0,1200,618,1,1199,ceiling,11133,2019-10-22_08h20.02.454,SurveyExpMetaMem,3.2.3,Win32,60
,,,,,,,,,,,,,,,,,,,,9,1.656000137,1,0.386999846,1,0,1200,901,1,1199,rape,11133,2019-10-22_08h20.02.454,SurveyExpMetaMem,3.2.3,Win32,60
,,,,,,,,,,,,,,,,,,,,5,3.910000086,4,0.22300005,1,0,1200,429,1,1199,cough,11133,2019-10-22_08h20.02.454,SurveyExpMetaMem,3.2.3,Win32,60
,,,,,,,,,,,,,,,,,,,,5,2.112999916,5,0.311999798,1,0,1200,672,1,1199,ketchup,11133,2019-10-22_08h20.02.454,SurveyExpMetaMem,3.2.3,Win32,60
,,,,,,,,,,,,,,,,,,,,5,2.485999823,3,0.759000063,1,0,1200,342,1,1199,alienation,11133,2019-10-22_08h20.02.454,SurveyExpMetaMem,3.2.3,Win32,60
,,,,,,,,,,,,,,,,,,,,5,1.714999914,5,0.327000141,1,0,1200,698,1,1199,oven,11133,2019-10-22_08h20.02.454,SurveyExpMetaMem,3.2.3,Win32,60
,,,,,,,,,,,,,,,,,,,,7,2.72300005,5,0.953000069,1,0,1200,859,1,1199,serene,11133,2019-10-22_08h20.02.454,SurveyExpMetaMem,3.2.3,Win32,60
,,,,,,,,,,,,,,,,,,,,9,1.753000021,7,1.004999876,1,0,1200,45,1,1199,sex,11133,2019-10-22_08h20.02.454,SurveyExpMetaMem,3.2.3,Win32,60
,,,,,,,,,,,,,,,,,,,,6,16.72399998,3,0.495999813,1,0,1200,1169,1,1199,enforcement,11133,2019-10-22_08h20.02.454,SurveyExpMetaMem,3.2.3,Win32,60
,,,,,,,,,,,,,,,,,,,,5,1.159999847,4,0.620999813,1,0,1200,526,1,1199,dry,11133,2019-10-22_08h20.02.454,SurveyExpMetaMem,3.2.3,Win32,60
,,,,,,,,,,,,,,,,,,,,5,1.724999905,3,0.487999916,1,0,1200,349,1,1199,mope,11133,2019-10-22_08h20.02.454,SurveyExpMetaMem,3.2.3,Win32,60
,,,,,,,,,,,,,,,,,,,,5,1.118999958,5,0.136000156,1,0,1200,758,1,1199,camera,11133,2019-10-22_08h20.02.454,SurveyExpMetaMem,3.2.3,Win32,60
,,,,,,,,,,,,,,,,,,,,5,1.086999893,5,0.132999897,1,0,1200,785,1,1199,pond,11133,2019-10-22_08h20.02.454,SurveyExpMetaMem,3.2.3,Win32,60
,,,,,,,,,,,,,,,,,,,,7,2.715999842,7,0.363000154,1,0,1200,270,1,1199,toddler,11133,2019-10-22_08h20.02.454,SurveyExpMetaMem,3.2.3,Win32,60
,,,,,,,,,,,,,,,,,,,,5,2.641000032,4,0.847999811,1,0,1200,329,1,1199,worse,11133,2019-10-22_08h20.02.454,SurveyExpMetaMem,3.2.3,Win32,60
,,,,,,,,,,,,,,,,,,,,6,2.614999771,3,0.388000011,1,0,1200,1050,1,1199,scorn,11133,2019-10-22_08h20.02.454,SurveyExpMetaMem,3.2.3,Win32,60
,,,,,,,,,,,,,,,,,,,,5,2.183000088,3,1.385999918,1,0,1200,458,1,1199,refuse,11133,2019-10-22_08h20.02.454,SurveyExpMetaMem,3.2.3,Win32,60
,,,,,,,,,,,,,,,,,,,,5,2.068000078,5,0.171999931,1,0,1200,64,1,1199,brain,11133,2019-10-22_08h20.02.454,SurveyExpMetaMem,3.2.3,Win32,60
,,,,,,,,,,,,,,,,,,,,5,2.366999865,5,0.171000004,1,0,1200,153,1,1199,teach,11133,2019-10-22_08h20.02.454,SurveyExpMetaMem,3.2.3,Win32,60
,,,,,,,,,,,,,,,,,,,,8,1.661000013,7,0.909000158,1,0,1200,851,1,1199,cool,11133,2019-10-22_08h20.02.454,SurveyExpMetaMem,3.2.3,Win32,60
,,,,,,,,,,,,,,,,,,,,7,3.392999887,3,1.402999878,1,0,1200,1049,1,1199,electrocute,11133,2019-10-22_08h20.02.454,SurveyExpMetaMem,3.2.3,Win32,60
,,,,,,,,,,,,,,,,,,,,8,3.998000145,2,0.68900013,1,0,1200,942,1,1199,aggravation,11133,2019-10-22_08h20.02.454,SurveyExpMetaMem,3.2.3,Win32,60
,,,,,,,,,,,,,,,,,,,,2,4.713000059,5,1.003999949,1,0,1200,715,1,1199,sheltered,11133,2019-10-22_08h20.02.454,SurveyExpMetaMem,3.2.3,Win32,60
,,,,,,,,,,,,,,,,,,,,1,3.499000072,5,1.91899991,1,0,1200,718,1,1199,flow,11133,2019-10-22_08h20.02.454,SurveyExpMetaMem,3.2.3,Win32,60
,,,,,,,,,,,,,,,,,,,,6,4.569000006,5,1.493000031,1,0,1200,261,1,1199,windsurfers,11133,2019-10-22_08h20.02.454,SurveyExpMetaMem,3.2.3,Win32,60
,,,,,,,,,,,,,,,,,,,,5,4.279000044,4,0.236000061,1,0,1200,419,1,1199,immature,11133,2019-10-22_08h20.02.454,SurveyExpMetaMem,3.2.3,Win32,60
,,,,,,,,,,,,,,,,,,,,5,1.291000128,5,0.39199996,1,0,1200,339,1,1199,chore,11133,2019-10-22_08h20.02.454,SurveyExpMetaMem,3.2.3,Win32,60
,,,,,,,,,,,,,,,,,,,,6,3.154999971,6,0.786000013,1,0,1200,70,1,1199,cartoon,11133,2019-10-22_08h20.02.454,SurveyExpMetaMem,3.2.3,Win32,60
,,,,,,,,,,,,,,,,,,,,5,1.78399992,5,0.144000053,1,0,1200,437,1,1199,blubber,11133,2019-10-22_08h20.02.454,SurveyExpMetaMem,3.2.3,Win32,60
,,,,,,,,,,,,,,,,,,,,6,6.617000103,5,1.421000004,1,0,1200,118,1,1199,conquer,11133,2019-10-22_08h20.02.454,SurveyExpMetaMem,3.2.3,Win32,60
,,,,,,,,,,,,,,,,,,,,5,2.980000019,5,0.345000029,1,0,1200,601,1,1199,roof,11133,2019-10-22_08h20.02.454,SurveyExpMetaMem,3.2.3,Win32,60
,,,,,,,,,,,,,,,,,,,,5,1.733999968,4,0.776000023,1,0,1200,1059,1,1199,harsh,11133,2019-10-22_08h20.02.454,SurveyExpMetaMem,3.2.3,Win32,60
,,,,,,,,,,,,,,,,,,,,7,2.551000118,2,1.011000156,1,0,1200,1038,1,1199,pervert,11133,2019-10-22_08h20.02.454,SurveyExpMetaMem,3.2.3,Win32,60
,,,,,,,,,,,,,,,,,,,,2,2.631999969,8,0.986000061,1,0,1200,877,1,1199,bless,11133,2019-10-22_08h20.02.454,SurveyExpMetaMem,3.2.3,Win32,60
,,,,,,,,,,,,,,,,,,,,5,2.27699995,5,1.139999866,1,0,1200,126,1,1199,rich,11133,2019-10-22_08h20.02.454,SurveyExpMetaMem,3.2.3,Win32,60
,,,,,,,,,,,,,,,,,,,,4,16.83900023,4,0.462000132,1,0,1200,331,1,1199,casket,11133,2019-10-22_08h20.02.454,SurveyExpMetaMem,3.2.3,Win32,60
,,,,,,,,,,,,,,,,,,,,7,1.875,3,0.696000099,1,0,1200,1152,1,1199,scream,11133,2019-10-22_08h20.02.454,SurveyExpMetaMem,3.2.3,Win32,60
,,,,,,,,,,,,,,,,,,,,5,1.914000034,2,1.485000134,1,0,1200,975,1,1199,insecure,11133,2019-10-22_08h20.02.454,SurveyExpMetaMem,3.2.3,Win32,60
,,,,,,,,,,,,,,,,,,,,5,1.757999897,4,0.762000084,1,0,1200,927,1,1199,jail,11133,2019-10-22_08h20.02.454,SurveyExpMetaMem,3.2.3,Win32,60
,,,,,,,,,,,,,,,,,,,,5,4.037999868,5,0.138000011,1,0,1200,600,1,1199,parlor,11133,2019-10-22_08h20.02.454,SurveyExpMetaMem,3.2.3,Win32,60
,,,,,,,,,,,,,,,,,,,,5,1.284999847,5,0.159999847,1,0,1200,861,1,1199,nectar,11133,2019-10-22_08h20.02.454,SurveyExpMetaMem,3.2.3,Win32,60
,,,,,,,,,,,,,,,,,,,,5,2.224999905,6,0.267999887,1,0,1200,734,1,1199,piano,11133,2019-10-22_08h20.02.454,SurveyExpMetaMem,3.2.3,Win32,60
,,,,,,,,,,,,,,,,,,,,5,2.601999998,4,0.464999914,1,0,1200,305,1,1199,frown,11133,2019-10-22_08h20.02.454,SurveyExpMetaMem,3.2.3,Win32,60
,,,,,,,,,,,,,,,,,,,,1,1.286000013,5,0.941999912,1,0,1200,899,1,1199,relax,11133,2019-10-22_08h20.02.454,SurveyExpMetaMem,3.2.3,Win32,60
,,,,,,,,,,,,,,,,,,,,8,2.315999985,5,1.56400013,1,0,1200,108,1,1199,naked,11133,2019-10-22_08h20.02.454,SurveyExpMetaMem,3.2.3,Win32,60
,,,,,,,,,,,,,,,,,,,,5,1.868999958,5,0.154000044,1,0,1200,724,1,1199,owl,11133,2019-10-22_08h20.02.454,SurveyExpMetaMem,3.2.3,Win32,60
,,,,,,,,,,,,,,,,,,,,8,1.503000021,2,1.054000139,1,0,1200,933,1,1199,afraid,11133,2019-10-22_08h20.02.454,SurveyExpMetaMem,3.2.3,Win32,60
,,,,,,,,,,,,,,,,,,,,6,2.054000139,8,0.610999823,1,0,1200,284,1,1199,delight,11133,2019-10-22_08h20.02.454,SurveyExpMetaMem,3.2.3,Win32,60
,,,,,,,,,,,,,,,,,,,,5,3.151000023,5,0.662000179,1,0,1200,872,1,1199,dignified,11133,2019-10-22_08h20.02.454,SurveyExpMetaMem,3.2.3,Win32,60
,,,,,,,,,,,,,,,,,,,,5,1.00999999,5,0.193000078,1,0,1200,1158,1,1199,dentist,11133,2019-10-22_08h20.02.454,SurveyExpMetaMem,3.2.3,Win32,60
,,,,,,,,,,,,,,,,,,,,5,1.582999945,3,0.937000036,1,0,1200,1080,1,1199,broken,11133,2019-10-22_08h20.02.454,SurveyExpMetaMem,3.2.3,Win32,60
,,,,,,,,,,,,,,,,,,,,5,1.435000181,4,0.171000004,1,0,1200,424,1,1199,fault,11133,2019-10-22_08h20.02.454,SurveyExpMetaMem,3.2.3,Win32,60
,,,,,,,,,,,,,,,,,,,,5,1.03399992,5,0.141000032,1,0,1200,1145,1,1199,officer,11133,2019-10-22_08h20.02.454,SurveyExpMetaMem,3.2.3,Win32,60
,,,,,,,,,,,,,,,,,,,,7,1.891000032,2,0.636999846,1,0,1200,1022,1,1199,creepy,11133,2019-10-22_08h20.02.454,SurveyExpMetaMem,3.2.3,Win32,60
,,,,,,,,,,,,,,,,,,,,5,3.287999868,5,0.170000076,1,0,1200,634,1,1199,glacier,11133,2019-10-22_08h20.02.454,SurveyExpMetaMem,3.2.3,Win32,60
,,,,,,,,,,,,,,,,,,,,5,2.059999943,5,0.177000046,1,0,1200,676,1,1199,straighten,11133,2019-10-22_08h20.02.454,SurveyExpMetaMem,3.2.3,Win32,60
,,,,,,,,,,,,,,,,,,,,5,0.753000021,5,0.171000004,1,0,1200,747,1,1199,furniture,11133,2019-10-22_08h20.02.454,SurveyExpMetaMem,3.2.3,Win32,60
,,,,,,,,,,,,,,,,,,,,3,2.301000118,5,0.237999916,1,0,1200,812,1,1199,harp,11133,2019-10-22_08h20.02.454,SurveyExpMetaMem,3.2.3,Win32,60
,,,,,,,,,,,,,,,,,,,,5,1.105999947,5,0.154000044,1,0,1200,625,1,1199,hat,11133,2019-10-22_08h20.02.454,SurveyExpMetaMem,3.2.3,Win32,60
,,,,,,,,,,,,,,,,,,,,6,3.384000063,3,0.2099998,1,0,1200,599,1,1199,obstinate,11133,2019-10-22_08h20.02.454,SurveyExpMetaMem,3.2.3,Win32,60
,,,,,,,,,,,,,,,,,,,,6,3.772000074,4,0.037000179,1,0,1200,996,1,1199,sting,11133,2019-10-22_08h20.02.454,SurveyExpMetaMem,3.2.3,Win32,60
,,,,,,,,,,,,,,,,,,,,8,3.950999975,3,1.335000038,1,0,1200,1166,1,1199,compulsive,11133,2019-10-22_08h20.02.454,SurveyExpMetaMem,3.2.3,Win32,60
,,,,,,,,,,,,,,,,,,,,4,2.603000164,4,0.125999928,1,0,1200,385,1,1199,tiresome,11133,2019-10-22_08h20.02.454,SurveyExpMetaMem,3.2.3,Win32,60
,,,,,,,,,,,,,,,,,,,,8,1.615999937,2,0.993999958,1,0,1200,1047,1,1199,psycho,11133,2019-10-22_08h20.02.454,SurveyExpMetaMem,3.2.3,Win32,60
,,,,,,,,,,,,,,,,,,,,4,5.332000017,7,0.452000141,1,0,1200,217,1,1199,bravery,11133,2019-10-22_08h20.02.454,SurveyExpMetaMem,3.2.3,Win32,60
,,,,,,,,,,,,,,,,,,,,5,2.010999918,5,0.153000116,1,0,1200,685,1,1199,makeup,11133,2019-10-22_08h20.02.454,SurveyExpMetaMem,3.2.3,Win32,60
,,,,,,,,,,,,,,,,,,,,5,1.026000023,5,0.155999899,1,0,1200,632,1,1199,avenue,11133,2019-10-22_08h20.02.454,SurveyExpMetaMem,3.2.3,Win32,60
,,,,,,,,,,,,,,,,,,,,6,5.932999849,4,3.06099987,1,0,1200,937,1,1199,prison,11133,2019-10-22_08h20.02.454,SurveyExpMetaMem,3.2.3,Win32,60
,,,,,,,,,,,,,,,,,,,,5,2.933000088,5,0.720999956,1,0,1200,527,1,1199,passive,11133,2019-10-22_08h20.02.454,SurveyExpMetaMem,3.2.3,Win32,60
,,,,,,,,,,,,,,,,,,,,2,2.440000057,5,0.610999823,1,0,1200,842,1,1199,breathe,11133,2019-10-22_08h20.02.454,SurveyExpMetaMem,3.2.3,Win32,60
,,,,,,,,,,,,,,,,,,,,5,1.292999983,5,0.338999987,1,0,1200,642,1,1199,newspaper,11133,2019-10-22_08h20.02.454,SurveyExpMetaMem,3.2.3,Win32,60
,,,,,,,,,,,,,,,,,,,,9,1.63499999,1,0.868999958,1,0,1200,900,1,1199,suicide,11133,2019-10-22_08h20.02.454,SurveyExpMetaMem,3.2.3,Win32,60
,,,,,,,,,,,,,,,,,,,,5,4.672999859,3,1.375999928,1,0,1200,1071,1,1199,uncomfortable,11133,2019-10-22_08h20.02.454,SurveyExpMetaMem,3.2.3,Win32,60
,,,,,,,,,,,,,,,,,,,,7,1.772000074,4,0.820999861,1,0,1200,1065,1,1199,slap,11133,2019-10-22_08h20.02.454,SurveyExpMetaMem,3.2.3,Win32,60
,,,,,,,,,,,,,,,,,,,,5,37.74399996,5,0.093000174,1,0,1200,1160,1,1199,enlist,11133,2019-10-22_08h20.02.454,SurveyExpMetaMem,3.2.3,Win32,60
,,,,,,,,,,,,,,,,,,,,3,3.299000025,5,0.43599987,1,0,1200,702,1,1199,den,11133,2019-10-22_08h20.02.454,SurveyExpMetaMem,3.2.3,Win32,60
,,,,,,,,,,,,,,,,,,,,6,4.635999918,5,0.04700017,1,0,1200,834,1,1199,crown,11133,2019-10-22_08h20.02.454,SurveyExpMetaMem,3.2.3,Win32,60
,,,,,,,,,,,,,,,,,,,,5,1.021000147,5,0.103999853,1,0,1200,611,1,1199,herring,11133,2019-10-22_08h20.02.454,SurveyExpMetaMem,3.2.3,Win32,60
,,,,,,,,,,,,,,,,,,,,5,1.559999943,5,0.156999826,1,0,1200,415,1,1199,grime,11133,2019-10-22_08h20.02.454,SurveyExpMetaMem,3.2.3,Win32,60
,,,,,,,,,,,,,,,,,,,,4,4.183000088,5,0.044000149,1,0,1200,9,1,1199,try,11133,2019-10-22_08h20.02.454,SurveyExpMetaMem,3.2.3,Win32,60
,,,,,,,,,,,,,,,,,,,,5,1.506000042,5,0.131000042,1,0,1200,278,1,1199,king,11133,2019-10-22_08h20.02.454,SurveyExpMetaMem,3.2.3,Win32,60
,,,,,,,,,,,,,,,,,,,,6,6.259000063,6,0.141000032,1,0,1200,103,1,1199,conquest,11133,2019-10-22_08h20.02.454,SurveyExpMetaMem,3.2.3,Win32,60
,,,,,,,,,,,,,,,,,,,,5,2.809000015,3,0.365999937,1,0,1200,985,1,1199,pollution,11133,2019-10-22_08h20.02.454,SurveyExpMetaMem,3.2.3,Win32,60
,,,,,,,,,,,,,,,,,,,,6,2.769000053,8,0.40199995,1,0,1200,178,1,1199,alive,11133,2019-10-22_08h20.02.454,SurveyExpMetaMem,3.2.3,Win32,60
,,,,,,,,,,,,,,,,,,,,5,1.602999926,4,0.779000044,1,0,1200,461,1,1199,ail,11133,2019-10-22_08h20.02.454,SurveyExpMetaMem,3.2.3,Win32,60
,,,,,,,,,,,,,,,,,,,,5,2.568000078,5,0.120999813,1,0,1200,1117,1,1199,court,11133,2019-10-22_08h20.02.454,SurveyExpMetaMem,3.2.3,Win32,60
,,,,,,,,,,,,,,,,,,,,5,1.487999916,4,0.124000072,1,0,1200,500,1,1199,nosey,11133,2019-10-22_08h20.02.454,SurveyExpMetaMem,3.2.3,Win32,60
,,,,,,,,,,,,,,,,,,,,8,11.21000004,3,0.828999996,1,0,1200,1138,1,1199,wail,11133,2019-10-22_08h20.02.454,SurveyExpMetaMem,3.2.3,Win32,60
,,,,,,,,,,,,,,,,,,,,5,10.56800008,5,0.170000076,1,0,1200,651,1,1199,bathroom,11133,2019-10-22_08h20.02.454,SurveyExpMetaMem,3.2.3,Win32,60
,,,,,,,,,,,,,,,,,,,,6,5.213999987,5,0.121999979,1,0,1200,880,1,1199,security,11133,2019-10-22_08h20.02.454,SurveyExpMetaMem,3.2.3,Win32,60
,,,,,,,,,,,,,,,,,,,,5,1.53399992,6,0.075999975,1,0,1200,277,1,1199,cupcake,11133,2019-10-22_08h20.02.454,SurveyExpMetaMem,3.2.3,Win32,60
,,,,,,,,,,,,,,,,,,,,8,3.934000015,6,0.808000088,1,0,1200,37,1,1199,magnificence,11133,2019-10-22_08h20.02.454,SurveyExpMetaMem,3.2.3,Win32,60
,,,,,,,,,,,,,,,,,,,,7,3.088999987,1,1.275000095,1,0,1200,917,1,1199,slave,11133,2019-10-22_08h20.02.454,SurveyExpMetaMem,3.2.3,Win32,60
,,,,,,,,,,,,,,,,,,,,5,1.228999853,5,0.13499999,1,0,1200,51,1,1199,body,11133,2019-10-22_08h20.02.454,SurveyExpMetaMem,3.2.3,Win32,60
,,,,,,,,,,,,,,,,,,,,6,5.953000069,5,0.069999933,1,0,1200,854,1,1199,river,11133,2019-10-22_08h20.02.454,SurveyExpMetaMem,3.2.3,Win32,60
,,,,,,,,,,,,,,,,,,,,5,3.425000191,3,0.610000134,1,0,1200,354,1,1199,cowardice,11133,2019-10-22_08h20.02.454,SurveyExpMetaMem,3.2.3,Win32,60
,,,,,,,,,,,,,,,,,,,,5,2.299000025,4,0.076999903,1,0,1200,1167,1,1199,bribe,11133,2019-10-22_08h20.02.454,SurveyExpMetaMem,3.2.3,Win32,60
,,,,,,,,,,,,,,,,,,,,5,1.06799984,5,0.111000061,1,0,1200,596,1,1199,factory,11133,2019-10-22_08h20.02.454,SurveyExpMetaMem,3.2.3,Win32,60
,,,,,,,,,,,,,,,,,,,,8,2.088999987,4,1.246000051,1,0,1200,1024,1,1199,burn,11133,2019-10-22_08h20.02.454,SurveyExpMetaMem,3.2.3,Win32,60
,,,,,,,,,,,,,,,,,,,,5,4.430000067,4,0.139999866,1,0,1200,1083,1,1199,delayed,11133,2019-10-22_08h20.02.454,SurveyExpMetaMem,3.2.3,Win32,60
,,,,,,,,,,,,,,,,,,,,3,2.549999952,6,1.020999908,1,0,1200,138,1,1199,blessings,11133,2019-10-22_08h20.02.454,SurveyExpMetaMem,3.2.3,Win32,60
,,,,,,,,,,,,,,,,,,,,5,4.947999954,4,0.124000072,1,0,1200,378,1,1199,dislike,11133,2019-10-22_08h20.02.454,SurveyExpMetaMem,3.2.3,Win32,60
,,,,,,,,,,,,,,,,,,,,8,1.868000031,5,1.142999887,1,0,1200,264,1,1199,thong,11133,2019-10-22_08h20.02.454,SurveyExpMetaMem,3.2.3,Win32,60
,,,,,,,,,,,,,,,,,,,,1,1.819999933,6,1.036000013,1,0,1200,867,1,1199,relaxed,11133,2019-10-22_08h20.02.454,SurveyExpMetaMem,3.2.3,Win32,60
,,,,,,,,,,,,,,,,,,,,5,1.229000092,5,0.241000175,1,0,1200,1107,1,1199,snake,11133,2019-10-22_08h20.02.454,SurveyExpMetaMem,3.2.3,Win32,60
,,,,,,,,,,,,,,,,,,,,5,2.792999983,5,0.144999981,1,0,1200,66,1,1199,zest,11133,2019-10-22_08h20.02.454,SurveyExpMetaMem,3.2.3,Win32,60
,,,,,,,,,,,,,,,,,,,,5,1.350000143,4,0.169999838,1,0,1200,345,1,1199,unfortunate,11133,2019-10-22_08h20.02.454,SurveyExpMetaMem,3.2.3,Win32,60
,,,,,,,,,,,,,,,,,,,,8,1.503000021,6,1.770999908,1,0,1200,115,1,1199,sexual,11133,2019-10-22_08h20.02.454,SurveyExpMetaMem,3.2.3,Win32,60
,,,,,,,,,,,,,,,,,,,,5,2.736000061,4,0.173000097,1,0,1200,388,1,1199,mildew,11133,2019-10-22_08h20.02.454,SurveyExpMetaMem,3.2.3,Win32,60
,,,,,,,,,,,,,,,,,,,,5,2.351000071,6,0.559999943,1,0,1200,832,1,1199,candy,11133,2019-10-22_08h20.02.454,SurveyExpMetaMem,3.2.3,Win32,60
,,,,,,,,,,,,,,,,,,,,5,1.177000046,5,0.145999908,1,0,1200,761,1,1199,corn,11133,2019-10-22_08h20.02.454,SurveyExpMetaMem,3.2.3,Win32,60
,,,,,,,,,,,,,,,,,,,,5,1.542999983,5,0.174000025,1,0,1200,539,1,1199,novice,11133,2019-10-22_08h20.02.454,SurveyExpMetaMem,3.2.3,Win32,60
,,,,,,,,,,,,,,,,,,,,5,4.256999969,5,0.153000116,1,0,1200,621,1,1199,chew,11133,2019-10-22_08h20.02.454,SurveyExpMetaMem,3.2.3,Win32,60
,,,,,,,,,,,,,,,,,,,,5,2.82400012,2,0.152999878,1,0,1200,947,1,1199,shame,11133,2019-10-22_08h20.02.454,SurveyExpMetaMem,3.2.3,Win32,60
,,,,,,,,,,,,,,,,,,,,5,2.320999861,3,0.220999956,1,0,1200,304,1,1199,depression,11133,2019-10-22_08h20.02.454,SurveyExpMetaMem,3.2.3,Win32,60
,,,,,,,,,,,,,,,,,,,,5,4.867000103,5,0.210000038,1,0,1200,1135,1,1199,thirsty,11133,2019-10-22_08h20.02.454,SurveyExpMetaMem,3.2.3,Win32,60
,,,,,,,,,,,,,,,,,,,,6,1.65199995,6,0.904000044,1,0,1200,232,1,1199,prosper,11133,2019-10-22_08h20.02.454,SurveyExpMetaMem,3.2.3,Win32,60
,,,,,,,,,,,,,,,,,,,,7,3.133000135,5,0.606000185,1,0,1200,678,1,1199,lightbulb,11133,2019-10-22_08h20.02.454,SurveyExpMetaMem,3.2.3,Win32,60
,,,,,,,,,,,,,,,,,,,,7,2.487999916,7,0.599999905,1,0,1200,30,1,1199,impressed,11133,2019-10-22_08h20.02.454,SurveyExpMetaMem,3.2.3,Win32,60
,,,,,,,,,,,,,,,,,,,,5,3.231999874,4,0.470000029,1,0,1200,949,1,1199,thief,11133,2019-10-22_08h20.02.454,SurveyExpMetaMem,3.2.3,Win32,60
,,,,,,,,,,,,,,,,,,,,5,2.085000038,5,0.222000122,1,0,1200,563,1,1199,stupor,11133,2019-10-22_08h20.02.454,SurveyExpMetaMem,3.2.3,Win32,60
,,,,,,,,,,,,,,,,,,,,6,6.742000103,2,1.227999926,1,0,1200,362,1,1199,despair,11133,2019-10-22_08h20.02.454,SurveyExpMetaMem,3.2.3,Win32,60
,,,,,,,,,,,,,,,,,,,,5,1.687999964,4,0.161000013,1,0,1200,968,1,1199,insult,11133,2019-10-22_08h20.02.454,SurveyExpMetaMem,3.2.3,Win32,60
,,,,,,,,,,,,,,,,,,,,5,3.650000095,5,0.194999933,1,0,1200,562,1,1199,average,11133,2019-10-22_08h20.02.454,SurveyExpMetaMem,3.2.3,Win32,60
,,,,,,,,,,,,,,,,,,,,5,1.077000141,5,0.230000019,1,0,1200,712,1,1199,harvest,11133,2019-10-22_08h20.02.454,SurveyExpMetaMem,3.2.3,Win32,60
,,,,,,,,,,,,,,,,,,,,2,4.652999878,5,0.178999901,1,0,1200,717,1,1199,modest,11133,2019-10-22_08h20.02.454,SurveyExpMetaMem,3.2.3,Win32,60
,,,,,,,,,,,,,,,,,,,,5,0.165999889,5,1.860000134,1,0,1200,372,1,1199,inferior,11133,2019-10-22_08h20.02.454,SurveyExpMetaMem,3.2.3,Win32,60
,,,,,,,,,,,,,,,,,,,,3,0.224999905,5,1.704000235,1,0,1200,504,1,1199,cane,11133,2019-10-22_08h20.02.454,SurveyExpMetaMem,3.2.3,Win32,60
,,,,,,,,,,,,,,,,,,,,5,0.170000076,5,4.410000086,1,0,1200,692,1,1199,medicine,11133,2019-10-22_08h20.02.454,SurveyExpMetaMem,3.2.3,Win32,60
,,,,,,,,,,,,,,,,,,,,5,1.93200016,4,0.203999996,1,0,1200,1109,1,1199,germ,11133,2019-10-22_08h20.02.454,SurveyExpMetaMem,3.2.3,Win32,60
,,,,,,,,,,,,,,,,,,,,5,4.857000113,5,0.133000135,1,0,1200,476,1,1199,warden,11133,2019-10-22_08h20.02.454,SurveyExpMetaMem,3.2.3,Win32,60
,,,,,,,,,,,,,,,,,,,,5,0.957000017,5,0.118999958,1,0,1200,809,1,1199,boy,11133,2019-10-22_08h20.02.454,SurveyExpMetaMem,3.2.3,Win32,60
,,,,,,,,,,,,,,,,,,,,6,2.301999807,3,0.223999977,1,0,1200,928,1,1199,cruel,11133,2019-10-22_08h20.02.454,SurveyExpMetaMem,3.2.3,Win32,60
,,,,,,,,,,,,,,,,,,,,5,1.25999999,5,0.119999886,1,0,1200,592,1,1199,sweep,11133,2019-10-22_08h20.02.454,SurveyExpMetaMem,3.2.3,Win32,60
,,,,,,,,,,,,,,,,,,,,5,1.288000107,5,0.10800004,1,0,1200,790,1,1199,binoculars,11133,2019-10-22_08h20.02.454,SurveyExpMetaMem,3.2.3,Win32,60
,,,,,,,,,,,,,,,,,,,,7,1.802999973,3,0.937000036,1,0,1200,1141,1,1199,shark,11133,2019-10-22_08h20.02.454,SurveyExpMetaMem,3.2.3,Win32,60
,,,,,,,,,,,,,,,,,,,,5,2.804000139,4,0.082000017,1,0,1200,411,1,1199,bitter,11133,2019-10-22_08h20.02.454,SurveyExpMetaMem,3.2.3,Win32,60
,,,,,,,,,,,,,,,,,,,,5,3.382999897,5,0.129000187,1,0,1200,700,1,1199,frog,11133,2019-10-22_08h20.02.454,SurveyExpMetaMem,3.2.3,Win32,60
,,,,,,,,,,,,,,,,,,,,5,2.626999855,5,0.120999813,1,0,1200,846,1,1199,able,11133,2019-10-22_08h20.02.454,SurveyExpMetaMem,3.2.3,Win32,60
,,,,,,,,,,,,,,,,,,,,5,0.854000092,5,0.113999844,1,0,1200,643,1,1199,library,11133,2019-10-22_08h20.02.454,SurveyExpMetaMem,3.2.3,Win32,60
,,,,,,,,,,,,,,,,,,,,5,1.789000034,4,0.019999981,1,0,1200,1006,1,1199,rash,11133,2019-10-22_08h20.02.454,SurveyExpMetaMem,3.2.3,Win32,60
,,,,,,,,,,,,,,,,,,,,8,2.952000141,2,1.853999853,1,0,1200,1108,1,1199,spider,11133,2019-10-22_08h20.02.454,SurveyExpMetaMem,3.2.3,Win32,60
,,,,,,,,,,,,,,,,,,,,5,4.713999987,5,0.154000044,1,0,1200,546,1,1199,solemn,11133,2019-10-22_08h20.02.454,SurveyExpMetaMem,3.2.3,Win32,60
,,,,,,,,,,,,,,,,,,,,5,4.25999999,5,0.13499999,1,0,1200,681,1,1199,fig,11133,2019-10-22_08h20.02.454,SurveyExpMetaMem,3.2.3,Win32,60
,,,,,,,,,,,,,,,,,,,,5,1.460000038,4,0.076000214,1,0,1200,341,1,1199,stinky,11133,2019-10-22_08h20.02.454,SurveyExpMetaMem,3.2.3,Win32,60
,,,,,,,,,,,,,,,,,,,,5,1.368000031,4,0.072000027,1,0,1200,521,1,1199,laundry,11133,2019-10-22_08h20.02.454,SurveyExpMetaMem,3.2.3,Win32,60
,,,,,,,,,,,,,,,,,,,,7,2.567000151,2,1.105000019,1,0,1200,948,1,1199,pain,11133,2019-10-22_08h20.02.454,SurveyExpMetaMem,3.2.3,Win32,60
,,,,,,,,,,,,,,,,,,,,5,1.665999889,4,1.039000034,1,0,1200,413,1,1199,deficient,11133,2019-10-22_08h20.02.454,SurveyExpMetaMem,3.2.3,Win32,60
,,,,,,,,,,,,,,,,,,,,5,1.218000174,5,0.118999958,1,0,1200,716,1,1199,blouse,11133,2019-10-22_08h20.02.454,SurveyExpMetaMem,3.2.3,Win32,60
,,,,,,,,,,,,,,,,,,,,5,2.512000084,4,0.502000093,1,0,1200,590,1,1199,stool,11133,2019-10-22_08h20.02.454,SurveyExpMetaMem,3.2.3,Win32,60
,,,,,,,,,,,,,,,,,,,,5,2.986000061,5,0.102999926,1,0,1200,606,1,1199,easel,11133,2019-10-22_08h20.02.454,SurveyExpMetaMem,3.2.3,Win32,60
,,,,,,,,,,,,,,,,,,,,8,1.807999849,6,0.610000134,1,0,1200,290,1,1199,enthusiasm,11133,2019-10-22_08h20.02.454,SurveyExpMetaMem,3.2.3,Win32,60
,,,,,,,,,,,,,,,,,,,,6,1.953000069,3,0.443000078,1,0,1200,1011,1,1199,robber,11133,2019-10-22_08h20.02.454,SurveyExpMetaMem,3.2.3,Win32,60
,,,,,,,,,,,,,,,,,,,,6,3.166000128,4,0.629000187,1,0,1200,1035,1,1199,expel,11133,2019-10-22_08h20.02.454,SurveyExpMetaMem,3.2.3,Win32,60
,,,,,,,,,,,,,,,,,,,,7,4.404999971,5,0.869999886,1,0,1200,1133,1,1199,slip,11133,2019-10-22_08h20.02.454,SurveyExpMetaMem,3.2.3,Win32,60
,,,,,,,,,,,,,,,,,,,,8,2.220999956,2,0.608999968,1,0,1200,1025,1,1199,deadly,11133,2019-10-22_08h20.02.454,SurveyExpMetaMem,3.2.3,Win32,60
,,,,,,,,,,,,,,,,,,,,5,3.835999966,5,0.129000187,1,0,1200,653,1,1199,detail,11133,2019-10-22_08h20.02.454,SurveyExpMetaMem,3.2.3,Win32,60
,,,,,,,,,,,,,,,,,,,,6,2.634000063,6,0.177000046,1,0,1200,823,1,1199,nourish,11133,2019-10-22_08h20.02.454,SurveyExpMetaMem,3.2.3,Win32,60
,,,,,,,,,,,,,,,,,,,,5,3.006000042,4,0.596000195,1,0,1200,1034,1,1199,pester,11133,2019-10-22_08h20.02.454,SurveyExpMetaMem,3.2.3,Win32,60
,,,,,,,,,,,,,,,,,,,,6,1.746999979,3,0.538000107,1,0,1200,1115,1,1199,invade,11133,2019-10-22_08h20.02.454,SurveyExpMetaMem,3.2.3,Win32,60
,,,,,,,,,,,,,,,,,,,,5,0.842999935,5,0.135999918,1,0,1200,1097,1,1199,bees,11133,2019-10-22_08h20.02.454,SurveyExpMetaMem,3.2.3,Win32,60
,,,,,,,,,,,,,,,,,,,,5,3.38499999,5,0.126999855,1,0,1200,652,1,1199,tend,11133,2019-10-22_08h20.02.454,SurveyExpMetaMem,3.2.3,Win32,60
,,,,,,,,,,,,,,,,,,,,5,1.002000093,5,0.121000051,1,0,1200,742,1,1199,window,11133,2019-10-22_08h20.02.454,SurveyExpMetaMem,3.2.3,Win32,60
,,,,,,,,,,,,,,,,,,,,5,1.57400012,3,0.436999798,1,0,1200,481,1,1199,melancholy,11133,2019-10-22_08h20.02.454,SurveyExpMetaMem,3.2.3,Win32,60
,,,,,,,,,,,,,,,,,,,,6,2.068000078,5,0.162999868,1,0,1200,206,1,1199,comet,11133,2019-10-22_08h20.02.454,SurveyExpMetaMem,3.2.3,Win32,60
,,,,,,,,,,,,,,,,,,,,5,2.243000031,5,0.137000084,1,0,1200,786,1,1199,afternoon,11133,2019-10-22_08h20.02.454,SurveyExpMetaMem,3.2.3,Win32,60
,,,,,,,,,,,,,,,,,,,,8,1.25999999,5,0.843999863,1,0,1200,28,1,1199,energy,11133,2019-10-22_08h20.02.454,SurveyExpMetaMem,3.2.3,Win32,60
,,,,,,,,,,,,,,,,,,,,7,4.219000101,4,1.167999983,1,0,1200,54,1,1199,alcohol,11133,2019-10-22_08h20.02.454,SurveyExpMetaMem,3.2.3,Win32,60
,,,,,,,,,,,,,,,,,,,,5,18.18899989,5,0.141000032,1,0,1200,1092,1,1199,rattlesnake,11133,2019-10-22_08h20.02.454,SurveyExpMetaMem,3.2.3,Win32,60
,,,,,,,,,,,,,,,,,,,,5,2.217999935,5,0.138999939,1,0,1200,576,1,1199,policy,11133,2019-10-22_08h20.02.454,SurveyExpMetaMem,3.2.3,Win32,60
,,,,,,,,,,,,,,,,,,,,7,3.243000031,7,0.672999859,1,0,1200,160,1,1199,reunion,11133,2019-10-22_08h20.02.454,SurveyExpMetaMem,3.2.3,Win32,60
,,,,,,,,,,,,,,,,,,,,7,1.269999981,3,1.588000059,1,0,1200,1156,1,1199,weapon,11133,2019-10-22_08h20.02.454,SurveyExpMetaMem,3.2.3,Win32,60
,,,,,,,,,,,,,,,,,,,,5,1.187000036,5,0.182999849,1,0,1200,517,1,1199,habit,11133,2019-10-22_08h20.02.454,SurveyExpMetaMem,3.2.3,Win32,60
,,,,,,,,,,,,,,,,,,,,6,2.344000101,8,0.56099987,1,0,1200,164,1,1199,marry,11133,2019-10-22_08h20.02.454,SurveyExpMetaMem,3.2.3,Win32,60
,,,,,,,,,,,,,,,,,,,,5,3.322000027,4,0.169000149,1,0,1200,395,1,1199,lack,11133,2019-10-22_08h20.02.454,SurveyExpMetaMem,3.2.3,Win32,60
,,,,,,,,,,,,,,,,,,,,2,2.051000118,5,0.520999908,1,0,1200,489,1,1199,timid,11133,2019-10-22_08h20.02.454,SurveyExpMetaMem,3.2.3,Win32,60
,,,,,,,,,,,,,,,,,,,,5,4.149999857,5,0.121000051,1,0,1200,876,1,1199,politeness,11133,2019-10-22_08h20.02.454,SurveyExpMetaMem,3.2.3,Win32,60
,,,,,,,,,,,,,,,,,,,,5,1.267999887,5,0.105000019,1,0,1200,784,1,1199,logical,11133,2019-10-22_08h20.02.454,SurveyExpMetaMem,3.2.3,Win32,60
,,,,,,,,,,,,,,,,,,,,5,1.335000038,5,0.129000187,1,0,1200,796,1,1199,rose,11133,2019-10-22_08h20.02.454,SurveyExpMetaMem,3.2.3,Win32,60
,,,,,,,,,,,,,,,,,,,,6,2.085000038,3,0.542000055,1,0,1200,980,1,1199,liar,11133,2019-10-22_08h20.02.454,SurveyExpMetaMem,3.2.3,Win32,60
,,,,,,,,,,,,,,,,,,,,5,6.663000107,5,0.152000189,1,0,1200,798,1,1199,crystal,11133,2019-10-22_08h20.02.454,SurveyExpMetaMem,3.2.3,Win32,60
,,,,,,,,,,,,,,,,,,,,7,1.346000195,4,0.588999987,1,0,1200,533,1,1199,busy,11133,2019-10-22_08h20.02.454,SurveyExpMetaMem,3.2.3,Win32,60
,,,,,,,,,,,,,,,,,,,,5,1.768999815,4,0.984999895,1,0,1200,1077,1,1199,unsure,11133,2019-10-22_08h20.02.454,SurveyExpMetaMem,3.2.3,Win32,60
,,,,,,,,,,,,,,,,,,,,7,3.447999954,5,0.537000179,1,0,1200,254,1,1199,crush,11133,2019-10-22_08h20.02.454,SurveyExpMetaMem,3.2.3,Win32,60
,,,,,,,,,,,,,,,,,,,,5,1.743999958,5,0.128999949,1,0,1200,647,1,1199,accord,11133,2019-10-22_08h20.02.454,SurveyExpMetaMem,3.2.3,Win32,60
,,,,,,,,,,,,,,,,,,,,5,0.844000101,5,0.154000044,1,0,1200,257,1,1199,cockpit,11133,2019-10-22_08h20.02.454,SurveyExpMetaMem,3.2.3,Win32,60
,,,,,,,,,,,,,,,,,,,,7,1.575999975,3,0.66899991,1,0,1200,983,1,1199,demonic,11133,2019-10-22_08h20.02.454,SurveyExpMetaMem,3.2.3,Win32,60
,,,,,,,,,,,,,,,,,,,,6,0.886000156,6,0.162000179,1,0,1200,659,1,1199,hair,11133,2019-10-22_08h20.02.454,SurveyExpMetaMem,3.2.3,Win32,60
,,,,,,,,,,,,,,,,,,,,8,3.405999899,6,1.200999975,1,0,1200,295,1,1199,passion,11133,2019-10-22_08h20.02.454,SurveyExpMetaMem,3.2.3,Win32,60
,,,,,,,,,,,,,,,,,,,,9,2.249000072,8,1.453000069,1,0,1200,149,1,1199,loved,11133,2019-10-22_08h20.02.454,SurveyExpMetaMem,3.2.3,Win32,60
,,,,,,,,,,,,,,,,,,,,6,2.15899992,2,0.717000008,1,0,1200,989,1,1199,banish,11133,2019-10-22_08h20.02.454,SurveyExpMetaMem,3.2.3,Win32,60
,,,,,,,,,,,,,,,,,,,,5,0.893000126,5,0.121999979,1,0,1200,752,1,1199,milk,11133,2019-10-22_08h20.02.454,SurveyExpMetaMem,3.2.3,Win32,60
,,,,,,,,,,,,,,,,,,,,5,3.773000002,3,0.238000154,1,0,1200,1136,1,1199,appall,11133,2019-10-22_08h20.02.454,SurveyExpMetaMem,3.2.3,Win32,60
,,,,,,,,,,,,,,,,,,,,5,1.430000067,5,0.118999958,1,0,1200,683,1,1199,scarf,11133,2019-10-22_08h20.02.454,SurveyExpMetaMem,3.2.3,Win32,60
,,,,,,,,,,,,,,,,,,,,5,1.878000021,6,0.139999866,1,0,1200,31,1,1199,brownie,11133,2019-10-22_08h20.02.454,SurveyExpMetaMem,3.2.3,Win32,60
,,,,,,,,,,,,,,,,,,,,8,2.552000046,1,1.319000006,1,0,1200,1026,1,1199,crisis,11133,2019-10-22_08h20.02.454,SurveyExpMetaMem,3.2.3,Win32,60
,,,,,,,,,,,,,,,,,,,,7,1.883000135,2,0.460999966,1,0,1200,327,1,1199,misfortune,11133,2019-10-22_08h20.02.454,SurveyExpMetaMem,3.2.3,Win32,60
,,,,,,,,,,,,,,,,,,,,5,2.167000055,5,0.110000134,1,0,1200,2,1,1199,zealous,11133,2019-10-22_08h20.02.454,SurveyExpMetaMem,3.2.3,Win32,60
,,,,,,,,,,,,,,,,,,,,5,4.134000063,5,0.152000189,1,0,1200,707,1,1199,adapt,11133,2019-10-22_08h20.02.454,SurveyExpMetaMem,3.2.3,Win32,60
,,,,,,,,,,,,,,,,,,,,5,1.916999817,3,0.143000126,1,0,1200,1084,1,1199,uneasy,11133,2019-10-22_08h20.02.454,SurveyExpMetaMem,3.2.3,Win32,60
,,,,,,,,,,,,,,,,,,,,8,1.685000181,3,0.529999971,1,0,1200,1100,1,1199,evil,11133,2019-10-22_08h20.02.454,SurveyExpMetaMem,3.2.3,Win32,60
,,,,,,,,,,,,,,,,,,,,6,5.798000097,4,0.737999916,1,0,1200,1188,1,1199,swear,11133,2019-10-22_08h20.02.454,SurveyExpMetaMem,3.2.3,Win32,60
,,,,,,,,,,,,,,,,,,,,5,4.048000097,5,0.586999893,1,0,1200,448,1,1199,depart,11133,2019-10-22_08h20.02.454,SurveyExpMetaMem,3.2.3,Win32,60
,,,,,,,,,,,,,,,,,,,,5,5.023000002,4,0.494999886,1,0,1200,453,1,1199,prude,11133,2019-10-22_08h20.02.454,SurveyExpMetaMem,3.2.3,Win32,60
,,,,,,,,,,,,,,,,,,,,7,2.349999905,4,1.055000067,1,0,1200,1186,1,1199,goddamn,11133,2019-10-22_08h20.02.454,SurveyExpMetaMem,3.2.3,Win32,60
,,,,,,,,,,,,,,,,,,,,7,7.013999939,6,0.822000027,1,0,1200,190,1,1199,rescue,11133,2019-10-22_08h20.02.454,SurveyExpMetaMem,3.2.3,Win32,60
,,,,,,,,,,,,,,,,,,,,5,4.549000025,6,0.387000084,1,0,1200,113,1,1199,bridesmaid,11133,2019-10-22_08h20.02.454,SurveyExpMetaMem,3.2.3,Win32,60
,,,,,,,,,,,,,,,,,,,,5,2.436000109,7,0.495000124,1,0,1200,840,1,1199,cuisine,11133,2019-10-22_08h20.02.454,SurveyExpMetaMem,3.2.3,Win32,60
,,,,,,,,,,,,,,,,,,,,5,4.192000151,5,0.170000076,1,0,1200,553,1,1199,corner,11133,2019-10-22_08h20.02.454,SurveyExpMetaMem,3.2.3,Win32,60
,,,,,,,,,,,,,,,,,,,,6,3.023000002,6,0.187000036,1,0,1200,86,1,1199,talent,11133,2019-10-22_08h20.02.454,SurveyExpMetaMem,3.2.3,Win32,60
,,,,,,,,,,,,,,,,,,,,5,1.382999897,5,0.136999846,1,0,1200,736,1,1199,hawk,11133,2019-10-22_08h20.02.454,SurveyExpMetaMem,3.2.3,Win32,60
,,,,,,,,,,,,,,,,,,,,1,2.211000204,5,0.743000031,1,0,1200,4,1,1199,night,11133,2019-10-22_08h20.02.454,SurveyExpMetaMem,3.2.3,Win32,60
,,,,,,,,,,,,,,,,,,,,8,2.003999949,7,0.90899992,1,0,1200,249,1,1199,award,11133,2019-10-22_08h20.02.454,SurveyExpMetaMem,3.2.3,Win32,60
,,,,,,,,,,,,,,,,,,,,6,6.089999914,6,0.157000065,1,0,1200,41,1,1199,progress,11133,2019-10-22_08h20.02.454,SurveyExpMetaMem,3.2.3,Win32,60
,,,,,,,,,,,,,,,,,,,,8,1.943000078,1,0.875999928,1,0,1200,972,1,1199,homicide,11133,2019-10-22_08h20.02.454,SurveyExpMetaMem,3.2.3,Win32,60
,,,,,,,,,,,,,,,,,,,,4,3.881999969,3,0.187999964,1,0,1200,333,1,1199,weak,11133,2019-10-22_08h20.02.454,SurveyExpMetaMem,3.2.3,Win32,60
,,,,,,,,,,,,,,,,,,,,5,5.315000057,5,0.142999887,1,0,1200,585,1,1199,tatter,11133,2019-10-22_08h20.02.454,SurveyExpMetaMem,3.2.3,Win32,60
,,,,,,,,,,,,,,,,,,,,6,1.674999952,4,0.395999908,1,0,1200,1182,1,1199,pierce,11133,2019-10-22_08h20.02.454,SurveyExpMetaMem,3.2.3,Win32,60
,,,,,,,,,,,,,,,,,,,,4,2.608999968,4,0.652000189,1,0,1200,530,1,1199,erase,11133,2019-10-22_08h20.02.454,SurveyExpMetaMem,3.2.3,Win32,60
,,,,,,,,,,,,,,,,,,,,8,3.924000025,1,2.694000006,1,0,1200,944,1,1199,kill,11133,2019-10-22_08h20.02.454,SurveyExpMetaMem,3.2.3,Win32,60
,,,,,,,,,,,,,,,,,,,,8,4.046999931,7,0.328999996,1,0,1200,248,1,1199,win,11133,2019-10-22_08h20.02.454,SurveyExpMetaMem,3.2.3,Win32,60
,,,,,,,,,,,,,,,,,,,,7,2.700000048,5,1.104000092,1,0,1200,233,1,1199,exhilaration,11133,2019-10-22_08h20.02.454,SurveyExpMetaMem,3.2.3,Win32,60
,,,,,,,,,,,,,,,,,,,,3,4.605000019,8,0.593999863,1,0,1200,83,1,1199,appreciative,11133,2019-10-22_08h20.02.454,SurveyExpMetaMem,3.2.3,Win32,60
,,,,,,,,,,,,,,,,,,,,5,2.181999922,5,0.308000088,1,0,1200,725,1,1199,checkerboard,11133,2019-10-22_08h20.02.454,SurveyExpMetaMem,3.2.3,Win32,60
,,,,,,,,,,,,,,,,,,,,6,5.747999907,6,0.503999949,1,0,1200,25,1,1199,charisma,11133,2019-10-22_08h20.02.454,SurveyExpMetaMem,3.2.3,Win32,60
,,,,,,,,,,,,,,,,,,,,5,1.351999998,5,0.111999989,1,0,1200,831,1,1199,sofa,11133,2019-10-22_08h20.02.454,SurveyExpMetaMem,3.2.3,Win32,60
,,,,,,,,,,,,,,,,,,,,5,1.776000023,5,0.177999973,1,0,1200,633,1,1199,cattle,11133,2019-10-22_08h20.02.454,SurveyExpMetaMem,3.2.3,Win32,60
,,,,,,,,,,,,,,,,,,,,3,2.717000008,6,1.770999908,1,0,1200,863,1,1199,fireplace,11133,2019-10-22_08h20.02.454,SurveyExpMetaMem,3.2.3,Win32,60
,,,,,,,,,,,,,,,,,,,,5,1.106999874,4,1.418000221,1,0,1200,1091,1,1199,cram,11133,2019-10-22_08h20.02.454,SurveyExpMetaMem,3.2.3,Win32,60
,,,,,,,,,,,,,,,,,,,,5,0.873000145,5,0.246000051,1,0,1200,608,1,1199,carrot,11133,2019-10-22_08h20.02.454,SurveyExpMetaMem,3.2.3,Win32,60
,,,,,,,,,,,,,,,,,,,,6,2.319000006,5,0.529000044,1,0,1200,227,1,1199,musician,11133,2019-10-22_08h20.02.454,SurveyExpMetaMem,3.2.3,Win32,60
,,,,,,,,,,,,,,,,,,,,2,4.049000025,4,3.063999891,1,0,1200,409,1,1199,old,11133,2019-10-22_08h20.02.454,SurveyExpMetaMem,3.2.3,Win32,60
,,,,,,,,,,,,,,,,,,,,9,2.382000208,6,0.875999928,1,0,1200,49,1,1199,ecstatic,11133,2019-10-22_08h20.02.454,SurveyExpMetaMem,3.2.3,Win32,60
,,,,,,,,,,,,,,,,,,,,5,2.73300004,7,0.618999958,1,0,1200,139,1,1199,generosity,11133,2019-10-22_08h20.02.454,SurveyExpMetaMem,3.2.3,Win32,60
,,,,,,,,,,,,,,,,,,,,4,8.044999838,8,0.645999908,1,0,1200,166,1,1199,unite,11133,2019-10-22_08h20.02.454,SurveyExpMetaMem,3.2.3,Win32,60
,,,,,,,,,,,,,,,,,,,,2,1.967999935,6,1.466999769,1,0,1200,869,1,1199,assure,11133,2019-10-22_08h20.02.454,SurveyExpMetaMem,3.2.3,Win32,60
,,,,,,,,,,,,,,,,,,,,5,3.24000001,4,0.061000109,1,0,1200,510,1,1199,excuse,11133,2019-10-22_08h20.02.454,SurveyExpMetaMem,3.2.3,Win32,60
,,,,,,,,,,,,,,,,,,,,5,1.618000031,5,0.106999874,1,0,1200,772,1,1199,ornament,11133,2019-10-22_08h20.02.454,SurveyExpMetaMem,3.2.3,Win32,60
,,,,,,,,,,,,,,,,,,,,4,4.21600008,3,1.169999838,1,0,1200,427,1,1199,doubt,11133,2019-10-22_08h20.02.454,SurveyExpMetaMem,3.2.3,Win32,60
,,,,,,,,,,,,,,,,,,,,5,2.271999836,5,0.220000029,1,0,1200,690,1,1199,similar,11133,2019-10-22_08h20.02.454,SurveyExpMetaMem,3.2.3,Win32,60
,,,,,,,,,,,,,,,,,,,,5,3.381999969,4,0.245999813,1,0,1200,351,1,1199,germs,11133,2019-10-22_08h20.02.454,SurveyExpMetaMem,3.2.3,Win32,60
,,,,,,,,,,,,,,,,,,,,6,2.910000086,4,0.269000053,1,0,1200,417,1,1199,dummy,11133,2019-10-22_08h20.02.454,SurveyExpMetaMem,3.2.3,Win32,60
,,,,,,,,,,,,,,,,,,,,5,1.220999956,5,0.203999996,1,0,1200,737,1,1199,lamb,11133,2019-10-22_08h20.02.454,SurveyExpMetaMem,3.2.3,Win32,60
,,,,,,,,,,,,,,,,,,,,5,0.968000174,5,0.186999798,1,0,1200,22,1,1199,doughnut,11133,2019-10-22_08h20.02.454,SurveyExpMetaMem,3.2.3,Win32,60
,,,,,,,,,,,,,,,,,,,,5,6.101000071,4,0.454999924,1,0,1200,1094,1,1199,disruptive,11133,2019-10-22_08h20.02.454,SurveyExpMetaMem,3.2.3,Win32,60
,,,,,,,,,,,,,,,,,,,,6,2.650000095,3,1.219000101,1,0,1200,338,1,1199,obesity,11133,2019-10-22_08h20.02.454,SurveyExpMetaMem,3.2.3,Win32,60
,,,,,,,,,,,,,,,,,,,,5,1.625999928,5,0.262000084,1,0,1200,615,1,1199,lad,11133,2019-10-22_08h20.02.454,SurveyExpMetaMem,3.2.3,Win32,60
,,,,,,,,,,,,,,,,,,,,3,3.000999928,6,0.888000011,1,0,1200,875,1,1199,fluffy,11133,2019-10-22_08h20.02.454,SurveyExpMetaMem,3.2.3,Win32,60
,,,,,,,,,,,,,,,,,,,,5,2.578999996,5,0.18599987,1,0,1200,554,1,1199,label,11133,2019-10-22_08h20.02.454,SurveyExpMetaMem,3.2.3,Win32,60
,,,,,,,,,,,,,,,,,,,,5,4.600999832,6,0.624000072,1,0,1200,649,1,1199,donkey,11133,2019-10-22_08h20.02.454,SurveyExpMetaMem,3.2.3,Win32,60
,,,,,,,,,,,,,,,,,,,,6,3.631000042,8,0.359999895,1,0,1200,123,1,1199,favorite,11133,2019-10-22_08h20.02.454,SurveyExpMetaMem,3.2.3,Win32,60
,,,,,,,,,,,,,,,,,,,,7,1.782999992,7,0.565999985,1,0,1200,48,1,1199,excellence,11133,2019-10-22_08h20.02.454,SurveyExpMetaMem,3.2.3,Win32,60
,,,,,,,,,,,,,,,,,,,,9,1.666000128,7,0.786999941,1,0,1200,183,1,1199,congratulate,11133,2019-10-22_08h20.02.454,SurveyExpMetaMem,3.2.3,Win32,60
,,,,,,,,,,,,,,,,,,,,3,5.231999874,3,0.157000065,1,0,1200,421,1,1199,stale,11133,2019-10-22_08h20.02.454,SurveyExpMetaMem,3.2.3,Win32,60
,,,,,,,,,,,,,,,,,,,,7,2.118999958,2,1.328000069,1,0,1200,1031,1,1199,fear,11133,2019-10-22_08h20.02.454,SurveyExpMetaMem,3.2.3,Win32,60
,,,,,,,,,,,,,,,,,,,,4,1.683000088,5,1.711000204,1,0,1200,703,1,1199,book,11133,2019-10-22_08h20.02.454,SurveyExpMetaMem,3.2.3,Win32,60
,,,,,,,,,,,,,,,,,,,,5,11.47899985,5,0.166000128,1,0,1200,780,1,1199,grass,11133,2019-10-22_08h20.02.454,SurveyExpMetaMem,3.2.3,Win32,60
,,,,,,,,,,,,,,,,,,,,5,2.061000109,4,0.862999916,1,0,1200,564,1,1199,wane,11133,2019-10-22_08h20.02.454,SurveyExpMetaMem,3.2.3,Win32,60
,,,,,,,,,,,,,,,,,,,,7,1.96999979,5,1.595999956,1,0,1200,1170,1,1199,police,11133,2019-10-22_08h20.02.454,SurveyExpMetaMem,3.2.3,Win32,60
,,,,,,,,,,,,,,,,,,,,3,3.944000006,5,0.601999998,1,0,1200,805,1,1199,autumn,11133,2019-10-22_08h20.02.454,SurveyExpMetaMem,3.2.3,Win32,60
,,,,,,,,,,,,,,,,,,,,4,3.349999905,6,0.161999941,1,0,1200,708,1,1199,nursery,11133,2019-10-22_08h20.02.454,SurveyExpMetaMem,3.2.3,Win32,60
,,,,,,,,,,,,,,,,,,,,5,6.104000092,5,0.174000025,1,0,1200,182,1,1199,genius,11133,2019-10-22_08h20.02.454,SurveyExpMetaMem,3.2.3,Win32,60
,,,,,,,,,,,,,,,,,,,,4,4.599000216,2,0.203999996,1,0,1200,1081,1,1199,damage,11133,2019-10-22_08h20.02.454,SurveyExpMetaMem,3.2.3,Win32,60
,,,,,,,,,,,,,,,,,,,,5,3.190000057,4,0.20299983,1,0,1200,315,1,1199,zit,11133,2019-10-22_08h20.02.454,SurveyExpMetaMem,3.2.3,Win32,60
,,,,,,,,,,,,,,,,,,,,5,3.282999992,6,0.205000162,1,0,1200,887,1,1199,elegant,11133,2019-10-22_08h20.02.454,SurveyExpMetaMem,3.2.3,Win32,60
,,,,,,,,,,,,,,,,,,,,5,3.270999908,4,0.236000061,1,0,1200,412,1,1199,mucus,11133,2019-10-22_08h20.02.454,SurveyExpMetaMem,3.2.3,Win32,60
,,,,,,,,,,,,,,,,,,,,5,1.006999969,5,0.226999998,1,0,1200,843,1,1199,garden,11133,2019-10-22_08h20.02.454,SurveyExpMetaMem,3.2.3,Win32,60
,,,,,,,,,,,,,,,,,,,,7,7.105999947,4,0.38499999,1,0,1200,1086,1,1199,irritate,11133,2019-10-22_08h20.02.454,SurveyExpMetaMem,3.2.3,Win32,60
,,,,,,,,,,,,,,,,,,,,5,1.64199996,5,0.445000172,1,0,1200,53,1,1199,lotion,11133,2019-10-22_08h20.02.454,SurveyExpMetaMem,3.2.3,Win32,60
,,,,,,,,,,,,,,,,,,,,5,1.419000149,5,0.220999956,1,0,1200,616,1,1199,coat,11133,2019-10-22_08h20.02.454,SurveyExpMetaMem,3.2.3,Win32,60
,,,,,,,,,,,,,,,,,,,,8,2.609000206,2,0.806999922,1,0,1200,469,1,1199,resent,11133,2019-10-22_08h20.02.454,SurveyExpMetaMem,3.2.3,Win32,60
,,,,,,,,,,,,,,,,,,,,7,3,3,0.715000153,1,0,1200,970,1,1199,worry,11133,2019-10-22_08h20.02.454,SurveyExpMetaMem,3.2.3,Win32,60
,,,,,,,,,,,,,,,,,,,,8,4.279999971,7,0.660000086,1,0,1200,58,1,1199,boost,11133,2019-10-22_08h20.02.454,SurveyExpMetaMem,3.2.3,Win32,60
