mouse_4.x,mouse_4.y,mouse_4.leftButton,mouse_4.midButton,mouse_4.rightButton,mouse.x,mouse.y,mouse.leftButton,mouse.midButton,mouse.rightButton,mouse_2.x,mouse_2.y,mouse_2.leftButton,mouse_2.midButton,mouse_2.rightButton,mouse_3.x,mouse_3.y,mouse_3.leftButton,mouse_3.midButton,mouse_3.rightButton,A_key_resp.keys,A_key_resp.rt,key_resp.keys,key_resp.rt,trials.thisRepN,trials.thisTrialN,trials.thisN,trials.thisIndex,trials.ran,trials.order,word,ParticipantID,date,expName,psychopyVersion,OS,frameRate
0.147222238,-0.207407418,1,0,0,0.441666686,-0.191666733,1,0,0,0.458333353,-0.217592603,1,0,0,0.458333353,-0.217592603,1,0,0,3,3.440999746,6,2.786999702,1,0,1200,819,1,1199,sheep,47203,2019-10-26_22h12.45.853,SurveyExpMetaMem,3.2.3,Win32,60
,,,,,,,,,,,,,,,,,,,,6,8.136999846,7,3.473999739,1,0,1200,242,1,1199,triumph,47203,2019-10-26_22h12.45.853,SurveyExpMetaMem,3.2.3,Win32,60
,,,,,,,,,,,,,,,,,,,,4,7.950999737,3,4.025999784,1,0,1200,951,1,1199,castrate,47203,2019-10-26_22h12.45.853,SurveyExpMetaMem,3.2.3,Win32,60
,,,,,,,,,,,,,,,,,,,,5,7.632999897,5,6.500999689,1,0,1200,1192,1,1199,startled,47203,2019-10-26_22h12.45.853,SurveyExpMetaMem,3.2.3,Win32,60
,,,,,,,,,,,,,,,,,,,,3,2.389999866,5,4.664999723,1,0,1200,669,1,1199,plaza,47203,2019-10-26_22h12.45.853,SurveyExpMetaMem,3.2.3,Win32,60
,,,,,,,,,,,,,,,,,,,,6,3.981999874,4,5.010999918,1,0,1200,1190,1,1199,clench,47203,2019-10-26_22h12.45.853,SurveyExpMetaMem,3.2.3,Win32,60
,,,,,,,,,,,,,,,,,,,,2,3.69299984,6,2.045999765,1,0,1200,729,1,1199,velvet,47203,2019-10-26_22h12.45.853,SurveyExpMetaMem,3.2.3,Win32,60
,,,,,,,,,,,,,,,,,,,,6,4.904999971,3,3.453999758,1,0,1200,306,1,1199,gloom,47203,2019-10-26_22h12.45.853,SurveyExpMetaMem,3.2.3,Win32,60
,,,,,,,,,,,,,,,,,,,,3,2.246000051,5,4.402999878,1,0,1200,785,1,1199,pond,47203,2019-10-26_22h12.45.853,SurveyExpMetaMem,3.2.3,Win32,60
,,,,,,,,,,,,,,,,,,,,6,5.341999769,3,2.20299983,1,0,1200,1026,1,1199,crisis,47203,2019-10-26_22h12.45.853,SurveyExpMetaMem,3.2.3,Win32,60
,,,,,,,,,,,,,,,,,,,,3,5.037999868,6,2.506999731,1,0,1200,724,1,1199,owl,47203,2019-10-26_22h12.45.853,SurveyExpMetaMem,3.2.3,Win32,60
,,,,,,,,,,,,,,,,,,,,4,8.70299983,3,2.082999706,1,0,1200,1003,1,1199,jealousy,47203,2019-10-26_22h12.45.853,SurveyExpMetaMem,3.2.3,Win32,60
,,,,,,,,,,,,,,,,,,,,2,14.39599991,4,6.376999855,1,0,1200,649,1,1199,donkey,47203,2019-10-26_22h12.45.853,SurveyExpMetaMem,3.2.3,Win32,60
,,,,,,,,,,,,,,,,,,,,6,5.055999756,3,1.587999821,1,0,1200,959,1,1199,divorce,47203,2019-10-26_22h12.45.853,SurveyExpMetaMem,3.2.3,Win32,60
,,,,,,,,,,,,,,,,,,,,3,2.172999859,5,1.472999811,1,0,1200,167,1,1199,casino,47203,2019-10-26_22h12.45.853,SurveyExpMetaMem,3.2.3,Win32,60
,,,,,,,,,,,,,,,,,,,,3,5.186999798,4,1.837999821,1,0,1200,576,1,1199,policy,47203,2019-10-26_22h12.45.853,SurveyExpMetaMem,3.2.3,Win32,60
,,,,,,,,,,,,,,,,,,,,6,2.940999746,4,1.191999912,1,0,1200,1036,1,1199,anxiety,47203,2019-10-26_22h12.45.853,SurveyExpMetaMem,3.2.3,Win32,60
,,,,,,,,,,,,,,,,,,,,5,1.639999628,5,0.255999804,1,0,1200,379,1,1199,slob,47203,2019-10-26_22h12.45.853,SurveyExpMetaMem,3.2.3,Win32,60
,,,,,,,,,,,,,,,,,,,,6,1.669999838,6,0.176999807,1,0,1200,96,1,1199,joke,47203,2019-10-26_22h12.45.853,SurveyExpMetaMem,3.2.3,Win32,60
,,,,,,,,,,,,,,,,,,,,3,9.995999813,5,1.112999916,1,0,1200,265,1,1199,invent,47203,2019-10-26_22h12.45.853,SurveyExpMetaMem,3.2.3,Win32,60
,,,,,,,,,,,,,,,,,,,,3,2.664999723,6,1.183999777,1,0,1200,756,1,1199,plant,47203,2019-10-26_22h12.45.853,SurveyExpMetaMem,3.2.3,Win32,60
,,,,,,,,,,,,,,,,,,,,3,4.221999884,5,0.306999922,1,0,1200,243,1,1199,fame,47203,2019-10-26_22h12.45.853,SurveyExpMetaMem,3.2.3,Win32,60
,,,,,,,,,,,,,,,,,,,,6,2.197999716,6,0.186999798,1,0,1200,82,1,1199,stunning,47203,2019-10-26_22h12.45.853,SurveyExpMetaMem,3.2.3,Win32,60
,,,,,,,,,,,,,,,,,,,,4,5.764999628,4,0.936999798,1,0,1200,341,1,1199,stinky,47203,2019-10-26_22h12.45.853,SurveyExpMetaMem,3.2.3,Win32,60
,,,,,,,,,,,,,,,,,,,,4,4.623999834,4,1.505999804,1,0,1200,336,1,1199,wasteful,47203,2019-10-26_22h12.45.853,SurveyExpMetaMem,3.2.3,Win32,60
,,,,,,,,,,,,,,,,,,,,2,2.592999935,5,0.579999924,1,0,1200,211,1,1199,surfer,47203,2019-10-26_22h12.45.853,SurveyExpMetaMem,3.2.3,Win32,60
,,,,,,,,,,,,,,,,,,,,6,5.016999722,4,0.821999788,1,0,1200,1052,1,1199,angry,47203,2019-10-26_22h12.45.853,SurveyExpMetaMem,3.2.3,Win32,60
,,,,,,,,,,,,,,,,,,,,2,2.66899991,6,1.210000038,1,0,1200,888,1,1199,refreshment,47203,2019-10-26_22h12.45.853,SurveyExpMetaMem,3.2.3,Win32,60
,,,,,,,,,,,,,,,,,,,,6,4.441999912,7,0.28099966,1,0,1200,885,1,1199,cozy,47203,2019-10-26_22h12.45.853,SurveyExpMetaMem,3.2.3,Win32,60
,,,,,,,,,,,,,,,,,,,,2,2.039999723,6,0.938999891,1,0,1200,811,1,1199,tenderness,47203,2019-10-26_22h12.45.853,SurveyExpMetaMem,3.2.3,Win32,60
,,,,,,,,,,,,,,,,,,,,2,3.374999762,5,2.30099988,1,0,1200,748,1,1199,town,47203,2019-10-26_22h12.45.853,SurveyExpMetaMem,3.2.3,Win32,60
,,,,,,,,,,,,,,,,,,,,6,5.037999868,6,0.170999765,1,0,1200,277,1,1199,cupcake,47203,2019-10-26_22h12.45.853,SurveyExpMetaMem,3.2.3,Win32,60
,,,,,,,,,,,,,,,,,,,,5,3.284999847,5,0.138000011,1,0,1200,599,1,1199,obstinate,47203,2019-10-26_22h12.45.853,SurveyExpMetaMem,3.2.3,Win32,60
,,,,,,,,,,,,,,,,,,,,3,3.956999779,5,0.25399971,1,0,1200,840,1,1199,cuisine,47203,2019-10-26_22h12.45.853,SurveyExpMetaMem,3.2.3,Win32,60
,,,,,,,,,,,,,,,,,,,,4,241.5339997,3,1.461999893,1,0,1200,1067,1,1199,wicked,47203,2019-10-26_22h12.45.853,SurveyExpMetaMem,3.2.3,Win32,60
,,,,,,,,,,,,,,,,,,,,5,2.178999901,5,0.187999725,1,0,1200,426,1,1199,con,47203,2019-10-26_22h12.45.853,SurveyExpMetaMem,3.2.3,Win32,60
,,,,,,,,,,,,,,,,,,,,4,4.896999836,6,0.927999973,1,0,1200,28,1,1199,energy,47203,2019-10-26_22h12.45.853,SurveyExpMetaMem,3.2.3,Win32,60
,,,,,,,,,,,,,,,,,,,,2,2.44299984,5,0.556999922,1,0,1200,543,1,1199,gloat,47203,2019-10-26_22h12.45.853,SurveyExpMetaMem,3.2.3,Win32,60
,,,,,,,,,,,,,,,,,,,,6,2.686999798,4,0.191999912,1,0,1200,398,1,1199,handicapped,47203,2019-10-26_22h12.45.853,SurveyExpMetaMem,3.2.3,Win32,60
,,,,,,,,,,,,,,,,,,,,2,9.049999714,5,23.8349998,1,0,1200,555,1,1199,school,47203,2019-10-26_22h12.45.853,SurveyExpMetaMem,3.2.3,Win32,60
,,,,,,,,,,,,,,,,,,,,6,1.620999813,4,0.220999718,1,0,1200,997,1,1199,injury,47203,2019-10-26_22h12.45.853,SurveyExpMetaMem,3.2.3,Win32,60
,,,,,,,,,,,,,,,,,,,,6,3.240999699,5,0.162999868,1,0,1200,635,1,1199,sensitive,47203,2019-10-26_22h12.45.853,SurveyExpMetaMem,3.2.3,Win32,60
,,,,,,,,,,,,,,,,,,,,6,5.867999792,4,0.145999908,1,0,1200,590,1,1199,stool,47203,2019-10-26_22h12.45.853,SurveyExpMetaMem,3.2.3,Win32,60
,,,,,,,,,,,,,,,,,,,,2,5.799999952,5,1.313999891,1,0,1200,7,1,1199,duet,47203,2019-10-26_22h12.45.853,SurveyExpMetaMem,3.2.3,Win32,60
,,,,,,,,,,,,,,,,,,,,6,1.308999777,4,0.173999786,1,0,1200,977,1,1199,choke,47203,2019-10-26_22h12.45.853,SurveyExpMetaMem,3.2.3,Win32,60
,,,,,,,,,,,,,,,,,,,,2,1.842999697,5,0.869999886,1,0,1200,128,1,1199,supper,47203,2019-10-26_22h12.45.853,SurveyExpMetaMem,3.2.3,Win32,60
,,,,,,,,,,,,,,,,,,,,4,4.953000069,4,0.143999815,1,0,1200,1027,1,1199,criticism,47203,2019-10-26_22h12.45.853,SurveyExpMetaMem,3.2.3,Win32,60
,,,,,,,,,,,,,,,,,,,,6,2.384999752,4,0.083999872,1,0,1200,924,1,1199,terrible,47203,2019-10-26_22h12.45.853,SurveyExpMetaMem,3.2.3,Win32,60
,,,,,,,,,,,,,,,,,,,,7,2.364999771,2,0.371999741,1,0,1200,1102,1,1199,nuclear,47203,2019-10-26_22h12.45.853,SurveyExpMetaMem,3.2.3,Win32,60
,,,,,,,,,,,,,,,,,,,,6,4.588999748,3,0.43599987,1,0,1200,954,1,1199,hostage,47203,2019-10-26_22h12.45.853,SurveyExpMetaMem,3.2.3,Win32,60
,,,,,,,,,,,,,,,,,,,,2,2.388999939,5,2.298999786,1,0,1200,586,1,1199,cab,47203,2019-10-26_22h12.45.853,SurveyExpMetaMem,3.2.3,Win32,60
,,,,,,,,,,,,,,,,,,,,6,4.515999794,4,0.109999657,1,0,1200,328,1,1199,disgrace,47203,2019-10-26_22h12.45.853,SurveyExpMetaMem,3.2.3,Win32,60
,,,,,,,,,,,,,,,,,,,,2,1.956999779,5,0.677000046,1,0,1200,24,1,1199,model,47203,2019-10-26_22h12.45.853,SurveyExpMetaMem,3.2.3,Win32,60
,,,,,,,,,,,,,,,,,,,,2,2.736999989,5,0.932999849,1,0,1200,158,1,1199,engage,47203,2019-10-26_22h12.45.853,SurveyExpMetaMem,3.2.3,Win32,60
,,,,,,,,,,,,,,,,,,,,2,2.097999811,5,1.795999765,1,0,1200,16,1,1199,sing,47203,2019-10-26_22h12.45.853,SurveyExpMetaMem,3.2.3,Win32,60
,,,,,,,,,,,,,,,,,,,,6,1.381999969,4,0.139999866,1,0,1200,1118,1,1199,frantic,47203,2019-10-26_22h12.45.853,SurveyExpMetaMem,3.2.3,Win32,60
,,,,,,,,,,,,,,,,,,,,6,2.142999649,4,0.092999697,1,0,1200,1072,1,1199,bothered,47203,2019-10-26_22h12.45.853,SurveyExpMetaMem,3.2.3,Win32,60
,,,,,,,,,,,,,,,,,,,,6,1.188999891,4,0.081999779,1,0,1200,392,1,1199,moody,47203,2019-10-26_22h12.45.853,SurveyExpMetaMem,3.2.3,Win32,60
,,,,,,,,,,,,,,,,,,,,2,24.12800002,6,3.141999722,1,0,1200,751,1,1199,listen,47203,2019-10-26_22h12.45.853,SurveyExpMetaMem,3.2.3,Win32,60
,,,,,,,,,,,,,,,,,,,,4,14.82599974,5,0.546000004,1,0,1200,20,1,1199,climax,47203,2019-10-26_22h12.45.853,SurveyExpMetaMem,3.2.3,Win32,60
,,,,,,,,,,,,,,,,,,,,3,2.240999937,4,0.97300005,1,0,1200,515,1,1199,blues,47203,2019-10-26_22h12.45.853,SurveyExpMetaMem,3.2.3,Win32,60
,,,,,,,,,,,,,,,,,,,,2,3.801999807,6,0.762999773,1,0,1200,461,1,1199,ail,47203,2019-10-26_22h12.45.853,SurveyExpMetaMem,3.2.3,Win32,60
,,,,,,,,,,,,,,,,,,,,1,3.612999916,5,4.215999842,1,0,1200,854,1,1199,river,47203,2019-10-26_22h12.45.853,SurveyExpMetaMem,3.2.3,Win32,60
,,,,,,,,,,,,,,,,,,,,3,2.408999681,4,2.422999859,1,0,1200,404,1,1199,nuisance,47203,2019-10-26_22h12.45.853,SurveyExpMetaMem,3.2.3,Win32,60
,,,,,,,,,,,,,,,,,,,,1,2.056999922,5,2.413999796,1,0,1200,595,1,1199,vacuum,47203,2019-10-26_22h12.45.853,SurveyExpMetaMem,3.2.3,Win32,60
,,,,,,,,,,,,,,,,,,,,2,168.8839998,5,1.958999872,1,0,1200,84,1,1199,eat,47203,2019-10-26_22h12.45.853,SurveyExpMetaMem,3.2.3,Win32,60
,,,,,,,,,,,,,,,,,,,,3,2.803999901,5,0.707999706,1,0,1200,57,1,1199,important,47203,2019-10-26_22h12.45.853,SurveyExpMetaMem,3.2.3,Win32,60
,,,,,,,,,,,,,,,,,,,,3,35.22199988,5,0.80099988,1,0,1200,568,1,1199,therapy,47203,2019-10-26_22h12.45.853,SurveyExpMetaMem,3.2.3,Win32,60
,,,,,,,,,,,,,,,,,,,,4,1.955999851,5,0.267999887,1,0,1200,230,1,1199,eager,47203,2019-10-26_22h12.45.853,SurveyExpMetaMem,3.2.3,Win32,60
,,,,,,,,,,,,,,,,,,,,2,1.539999962,5,0.512999773,1,0,1200,493,1,1199,little,47203,2019-10-26_22h12.45.853,SurveyExpMetaMem,3.2.3,Win32,60
,,,,,,,,,,,,,,,,,,,,3,7.401999712,6,0.16899991,1,0,1200,711,1,1199,sympathetic,47203,2019-10-26_22h12.45.853,SurveyExpMetaMem,3.2.3,Win32,60
,,,,,,,,,,,,,,,,,,,,3,4.358999729,5,0.39199996,1,0,1200,150,1,1199,vodka,47203,2019-10-26_22h12.45.853,SurveyExpMetaMem,3.2.3,Win32,60
,,,,,,,,,,,,,,,,,,,,1,7.531999826,5,0.363999844,1,0,1200,738,1,1199,horse,47203,2019-10-26_22h12.45.853,SurveyExpMetaMem,3.2.3,Win32,60
,,,,,,,,,,,,,,,,,,,,2,1.772999763,5,0.409999847,1,0,1200,464,1,1199,tick,47203,2019-10-26_22h12.45.853,SurveyExpMetaMem,3.2.3,Win32,60
,,,,,,,,,,,,,,,,,,,,6,1.789999723,4,0.096999884,1,0,1200,917,1,1199,slave,47203,2019-10-26_22h12.45.853,SurveyExpMetaMem,3.2.3,Win32,60
,,,,,,,,,,,,,,,,,,,,2,11.61999965,6,161.3889999,1,0,1200,873,1,1199,useful,47203,2019-10-26_22h12.45.853,SurveyExpMetaMem,3.2.3,Win32,60
,,,,,,,,,,,,,,,,,,,,6,3.95299983,6,0.105999947,1,0,1200,77,1,1199,adore,47203,2019-10-26_22h12.45.853,SurveyExpMetaMem,3.2.3,Win32,60
,,,,,,,,,,,,,,,,,,,,4,3.846999645,6,0.102999926,1,0,1200,132,1,1199,silly,47203,2019-10-26_22h12.45.853,SurveyExpMetaMem,3.2.3,Win32,60
,,,,,,,,,,,,,,,,,,,,2,2.411999702,5,0.330999851,1,0,1200,1111,1,1199,bruise,47203,2019-10-26_22h12.45.853,SurveyExpMetaMem,3.2.3,Win32,60
,,,,,,,,,,,,,,,,,,,,4,6.041999817,5,0.101999998,1,0,1200,622,1,1199,revere,47203,2019-10-26_22h12.45.853,SurveyExpMetaMem,3.2.3,Win32,60
,,,,,,,,,,,,,,,,,,,,3,2.941999912,4,0.903999805,1,0,1200,474,1,1199,weary,47203,2019-10-26_22h12.45.853,SurveyExpMetaMem,3.2.3,Win32,60
,,,,,,,,,,,,,,,,,,,,4,13.94599986,4,0.177000046,1,0,1200,1084,1,1199,uneasy,47203,2019-10-26_22h12.45.853,SurveyExpMetaMem,3.2.3,Win32,60
,,,,,,,,,,,,,,,,,,,,3,4.092000008,5,0.494999647,1,0,1200,213,1,1199,fair,47203,2019-10-26_22h12.45.853,SurveyExpMetaMem,3.2.3,Win32,60
,,,,,,,,,,,,,,,,,,,,4,1.97300005,5,2.252999783,1,0,1200,88,1,1199,ambitious,47203,2019-10-26_22h12.45.853,SurveyExpMetaMem,3.2.3,Win32,60
,,,,,,,,,,,,,,,,,,,,2,1.924000025,4,1.025999784,1,0,1200,450,1,1199,overcast,47203,2019-10-26_22h12.45.853,SurveyExpMetaMem,3.2.3,Win32,60
,,,,,,,,,,,,,,,,,,,,6,5.090999842,4,0.047999859,1,0,1200,1167,1,1199,bribe,47203,2019-10-26_22h12.45.853,SurveyExpMetaMem,3.2.3,Win32,60
,,,,,,,,,,,,,,,,,,,,3,2.323999882,6,0.581999779,1,0,1200,680,1,1199,candle,47203,2019-10-26_22h12.45.853,SurveyExpMetaMem,3.2.3,Win32,60
,,,,,,,,,,,,,,,,,,,,6,2.833999872,5,0.510999918,1,0,1200,299,1,1199,champion,47203,2019-10-26_22h12.45.853,SurveyExpMetaMem,3.2.3,Win32,60
,,,,,,,,,,,,,,,,,,,,4,31.31999993,4,0.17599988,1,0,1200,387,1,1199,tax,47203,2019-10-26_22h12.45.853,SurveyExpMetaMem,3.2.3,Win32,60
,,,,,,,,,,,,,,,,,,,,2,2.75399971,5,1.135999918,1,0,1200,758,1,1199,camera,47203,2019-10-26_22h12.45.853,SurveyExpMetaMem,3.2.3,Win32,60
,,,,,,,,,,,,,,,,,,,,3,2.654999733,4,0.211999893,1,0,1200,310,1,1199,lonely,47203,2019-10-26_22h12.45.853,SurveyExpMetaMem,3.2.3,Win32,60
,,,,,,,,,,,,,,,,,,,,1,2.821999788,5,1.359999895,1,0,1200,855,1,1199,girl,47203,2019-10-26_22h12.45.853,SurveyExpMetaMem,3.2.3,Win32,60
,,,,,,,,,,,,,,,,,,,,2,2.623999834,5,1.006999969,1,0,1200,9,1,1199,try,47203,2019-10-26_22h12.45.853,SurveyExpMetaMem,3.2.3,Win32,60
,,,,,,,,,,,,,,,,,,,,6,3.877999783,4,0.139999866,1,0,1200,1165,1,1199,revolt,47203,2019-10-26_22h12.45.853,SurveyExpMetaMem,3.2.3,Win32,60
,,,,,,,,,,,,,,,,,,,,4,2.778999805,5,1.188999891,1,0,1200,179,1,1199,star,47203,2019-10-26_22h12.45.853,SurveyExpMetaMem,3.2.3,Win32,60
,,,,,,,,,,,,,,,,,,,,1,2.169999838,5,0.375,1,0,1200,795,1,1199,soup,47203,2019-10-26_22h12.45.853,SurveyExpMetaMem,3.2.3,Win32,60
,,,,,,,,,,,,,,,,,,,,2,9.128000021,5,0.968999863,1,0,1200,203,1,1199,seal,47203,2019-10-26_22h12.45.853,SurveyExpMetaMem,3.2.3,Win32,60
,,,,,,,,,,,,,,,,,,,,4,3.525999784,5,0.205999851,1,0,1200,13,1,1199,mingle,47203,2019-10-26_22h12.45.853,SurveyExpMetaMem,3.2.3,Win32,60
,,,,,,,,,,,,,,,,,,,,3,4.235999823,5,0.288999796,1,0,1200,111,1,1199,band,47203,2019-10-26_22h12.45.853,SurveyExpMetaMem,3.2.3,Win32,60
,,,,,,,,,,,,,,,,,,,,6,1.622999668,4,0.125999928,1,0,1200,1035,1,1199,expel,47203,2019-10-26_22h12.45.853,SurveyExpMetaMem,3.2.3,Win32,60
,,,,,,,,,,,,,,,,,,,,6,2.951999903,6,0.251999855,1,0,1200,123,1,1199,favorite,47203,2019-10-26_22h12.45.853,SurveyExpMetaMem,3.2.3,Win32,60
,,,,,,,,,,,,,,,,,,,,6,0.008999825,6,0.009999752,1,0,1200,817,1,1199,countryside,47203,2019-10-26_22h12.45.853,SurveyExpMetaMem,3.2.3,Win32,60
,,,,,,,,,,,,,,,,,,,,6,0.009999752,6,0.01099968,1,0,1200,410,1,1199,tarnish,47203,2019-10-26_22h12.45.853,SurveyExpMetaMem,3.2.3,Win32,60
,,,,,,,,,,,,,,,,,,,,6,7.539999962,4,0.103999853,1,0,1200,1011,1,1199,robber,47203,2019-10-26_22h12.45.853,SurveyExpMetaMem,3.2.3,Win32,60
,,,,,,,,,,,,,,,,,,,,3,2.504999876,5,0.110999823,1,0,1200,687,1,1199,skinny,47203,2019-10-26_22h12.45.853,SurveyExpMetaMem,3.2.3,Win32,60
,,,,,,,,,,,,,,,,,,,,1,1.684000015,5,0.405999899,1,0,1200,119,1,1199,stereo,47203,2019-10-26_22h12.45.853,SurveyExpMetaMem,3.2.3,Win32,60
,,,,,,,,,,,,,,,,,,,,4,3.558999777,6,0.562000036,1,0,1200,858,1,1199,donate,47203,2019-10-26_22h12.45.853,SurveyExpMetaMem,3.2.3,Win32,60
,,,,,,,,,,,,,,,,,,,,3,4.369999886,5,0.197000027,1,0,1200,22,1,1199,doughnut,47203,2019-10-26_22h12.45.853,SurveyExpMetaMem,3.2.3,Win32,60
,,,,,,,,,,,,,,,,,,,,4,7.747999907,5,0.950999737,1,0,1200,604,1,1199,lamp,47203,2019-10-26_22h12.45.853,SurveyExpMetaMem,3.2.3,Win32,60
,,,,,,,,,,,,,,,,,,,,4,3.89599967,6,0.073999882,1,0,1200,645,1,1199,telescope,47203,2019-10-26_22h12.45.853,SurveyExpMetaMem,3.2.3,Win32,60
,,,,,,,,,,,,,,,,,,,,4,12.76099992,5,0.725999832,1,0,1200,190,1,1199,rescue,47203,2019-10-26_22h12.45.853,SurveyExpMetaMem,3.2.3,Win32,60
,,,,,,,,,,,,,,,,,,,,2,5.970999956,5,0.261999846,1,0,1200,704,1,1199,flute,47203,2019-10-26_22h12.45.853,SurveyExpMetaMem,3.2.3,Win32,60
,,,,,,,,,,,,,,,,,,,,2,4.232999802,5,0.25999999,1,0,1200,457,1,1199,confuse,47203,2019-10-26_22h12.45.853,SurveyExpMetaMem,3.2.3,Win32,60
,,,,,,,,,,,,,,,,,,,,3,2.694999695,6,0.491999865,1,0,1200,717,1,1199,modest,47203,2019-10-26_22h12.45.853,SurveyExpMetaMem,3.2.3,Win32,60
,,,,,,,,,,,,,,,,,,,,3,1.847999811,6,0.272999763,1,0,1200,843,1,1199,garden,47203,2019-10-26_22h12.45.853,SurveyExpMetaMem,3.2.3,Win32,60
,,,,,,,,,,,,,,,,,,,,1,1.829999924,5,0.309000015,1,0,1200,666,1,1199,verify,47203,2019-10-26_22h12.45.853,SurveyExpMetaMem,3.2.3,Win32,60
,,,,,,,,,,,,,,,,,,,,4,3.790999889,6,0.722999811,1,0,1200,184,1,1199,surprised,47203,2019-10-26_22h12.45.853,SurveyExpMetaMem,3.2.3,Win32,60
,,,,,,,,,,,,,,,,,,,,6,5.096999884,4,1.980000019,1,0,1200,320,1,1199,deformed,47203,2019-10-26_22h12.45.853,SurveyExpMetaMem,3.2.3,Win32,60
,,,,,,,,,,,,,,,,,,,,3,21.59699988,5,1.01699996,1,0,1200,1166,1,1199,compulsive,47203,2019-10-26_22h12.45.853,SurveyExpMetaMem,3.2.3,Win32,60
,,,,,,,,,,,,,,,,,,,,6,1.542999983,4,0.154999971,1,0,1200,947,1,1199,shame,47203,2019-10-26_22h12.45.853,SurveyExpMetaMem,3.2.3,Win32,60
,,,,,,,,,,,,,,,,,,,,3,5.572999716,5,0.197999954,1,0,1200,577,1,1199,retreat,47203,2019-10-26_22h12.45.853,SurveyExpMetaMem,3.2.3,Win32,60
,,,,,,,,,,,,,,,,,,,,6,3.305999756,4,0.14199996,1,0,1200,1010,1,1199,arson,47203,2019-10-26_22h12.45.853,SurveyExpMetaMem,3.2.3,Win32,60
,,,,,,,,,,,,,,,,,,,,6,1.491999865,6,0.159999847,1,0,1200,677,1,1199,handwriting,47203,2019-10-26_22h12.45.853,SurveyExpMetaMem,3.2.3,Win32,60
,,,,,,,,,,,,,,,,,,,,6,1.906999826,6,0.144999743,1,0,1200,216,1,1199,vigorous,47203,2019-10-26_22h12.45.853,SurveyExpMetaMem,3.2.3,Win32,60
,,,,,,,,,,,,,,,,,,,,6,1.242999792,6,0.180000067,1,0,1200,78,1,1199,energetic,47203,2019-10-26_22h12.45.853,SurveyExpMetaMem,3.2.3,Win32,60
,,,,,,,,,,,,,,,,,,,,6,1.019999743,4,0.118999958,1,0,1200,1106,1,1199,pushy,47203,2019-10-26_22h12.45.853,SurveyExpMetaMem,3.2.3,Win32,60
,,,,,,,,,,,,,,,,,,,,6,1.108999729,6,0.2099998,1,0,1200,182,1,1199,genius,47203,2019-10-26_22h12.45.853,SurveyExpMetaMem,3.2.3,Win32,60
,,,,,,,,,,,,,,,,,,,,4,4.088999987,6,1.105999947,1,0,1200,67,1,1199,penthouse,47203,2019-10-26_22h12.45.853,SurveyExpMetaMem,3.2.3,Win32,60
,,,,,,,,,,,,,,,,,,,,7,1.521999836,7,0.189999819,1,0,1200,149,1,1199,loved,47203,2019-10-26_22h12.45.853,SurveyExpMetaMem,3.2.3,Win32,60
,,,,,,,,,,,,,,,,,,,,1,8.347999811,5,0.80099988,1,0,1200,752,1,1199,milk,47203,2019-10-26_22h12.45.853,SurveyExpMetaMem,3.2.3,Win32,60
,,,,,,,,,,,,,,,,,,,,4,3.341999769,5,0.11199975,1,0,1200,354,1,1199,cowardice,47203,2019-10-26_22h12.45.853,SurveyExpMetaMem,3.2.3,Win32,60
,,,,,,,,,,,,,,,,,,,,1,1.791999817,5,0.205999851,1,0,1200,846,1,1199,able,47203,2019-10-26_22h12.45.853,SurveyExpMetaMem,3.2.3,Win32,60
,,,,,,,,,,,,,,,,,,,,4,2.397999763,4,0.404999971,1,0,1200,355,1,1199,graveyard,47203,2019-10-26_22h12.45.853,SurveyExpMetaMem,3.2.3,Win32,60
,,,,,,,,,,,,,,,,,,,,3,3.566999912,5,0.172999859,1,0,1200,1187,1,1199,drill,47203,2019-10-26_22h12.45.853,SurveyExpMetaMem,3.2.3,Win32,60
,,,,,,,,,,,,,,,,,,,,4,2.145999908,4,1.700999975,1,0,1200,1130,1,1199,slut,47203,2019-10-26_22h12.45.853,SurveyExpMetaMem,3.2.3,Win32,60
,,,,,,,,,,,,,,,,,,,,2,1.794999838,4,0.657999992,1,0,1200,359,1,1199,bored,47203,2019-10-26_22h12.45.853,SurveyExpMetaMem,3.2.3,Win32,60
,,,,,,,,,,,,,,,,,,,,2,3.246000051,5,0.355999947,1,0,1200,279,1,1199,bargain,47203,2019-10-26_22h12.45.853,SurveyExpMetaMem,3.2.3,Win32,60
,,,,,,,,,,,,,,,,,,,,3,3.125999689,4,0.438999891,1,0,1200,300,1,1199,unhappy,47203,2019-10-26_22h12.45.853,SurveyExpMetaMem,3.2.3,Win32,60
,,,,,,,,,,,,,,,,,,,,4,2.727999926,6,0.205999851,1,0,1200,175,1,1199,playground,47203,2019-10-26_22h12.45.853,SurveyExpMetaMem,3.2.3,Win32,60
,,,,,,,,,,,,,,,,,,,,3,1.457000017,5,1.429999828,1,0,1200,2,1,1199,zealous,47203,2019-10-26_22h12.45.853,SurveyExpMetaMem,3.2.3,Win32,60
,,,,,,,,,,,,,,,,,,,,1,1.726999998,5,0.337999821,1,0,1200,360,1,1199,dandruff,47203,2019-10-26_22h12.45.853,SurveyExpMetaMem,3.2.3,Win32,60
,,,,,,,,,,,,,,,,,,,,1,3.138999939,4,0.240999937,1,0,1200,585,1,1199,tatter,47203,2019-10-26_22h12.45.853,SurveyExpMetaMem,3.2.3,Win32,60
,,,,,,,,,,,,,,,,,,,,4,3.663999796,4,0.197999954,1,0,1200,990,1,1199,enraged,47203,2019-10-26_22h12.45.853,SurveyExpMetaMem,3.2.3,Win32,60
,,,,,,,,,,,,,,,,,,,,3,1.940999985,4,0.112999916,1,0,1200,378,1,1199,dislike,47203,2019-10-26_22h12.45.853,SurveyExpMetaMem,3.2.3,Win32,60
,,,,,,,,,,,,,,,,,,,,3,2.656999826,4,1.189999819,1,0,1200,510,1,1199,excuse,47203,2019-10-26_22h12.45.853,SurveyExpMetaMem,3.2.3,Win32,60
,,,,,,,,,,,,,,,,,,,,3,138.75,5,0.292999744,1,0,1200,798,1,1199,crystal,47203,2019-10-26_22h12.45.853,SurveyExpMetaMem,3.2.3,Win32,60
,,,,,,,,,,,,,,,,,,,,3,1.440999746,4,0.230000019,1,0,1200,304,1,1199,depression,47203,2019-10-26_22h12.45.853,SurveyExpMetaMem,3.2.3,Win32,60
,,,,,,,,,,,,,,,,,,,,1,1.565999985,5,0.819999933,1,0,1200,485,1,1199,pinch,47203,2019-10-26_22h12.45.853,SurveyExpMetaMem,3.2.3,Win32,60
,,,,,,,,,,,,,,,,,,,,1,1.636999846,5,0.270999908,1,0,1200,696,1,1199,rink,47203,2019-10-26_22h12.45.853,SurveyExpMetaMem,3.2.3,Win32,60
,,,,,,,,,,,,,,,,,,,,1,1.845999956,5,0.103999853,1,0,1200,632,1,1199,avenue,47203,2019-10-26_22h12.45.853,SurveyExpMetaMem,3.2.3,Win32,60
,,,,,,,,,,,,,,,,,,,,3,4.56099987,4,0.578999758,1,0,1200,384,1,1199,idiot,47203,2019-10-26_22h12.45.853,SurveyExpMetaMem,3.2.3,Win32,60
,,,,,,,,,,,,,,,,,,,,1,2.669999838,5,0.148000002,1,0,1200,112,1,1199,jaguar,47203,2019-10-26_22h12.45.853,SurveyExpMetaMem,3.2.3,Win32,60
,,,,,,,,,,,,,,,,,,,,4,2.247999668,4,0.204999685,1,0,1200,1149,1,1199,fight,47203,2019-10-26_22h12.45.853,SurveyExpMetaMem,3.2.3,Win32,60
,,,,,,,,,,,,,,,,,,,,4,3.289999723,6,0.230999947,1,0,1200,36,1,1199,puppy,47203,2019-10-26_22h12.45.853,SurveyExpMetaMem,3.2.3,Win32,60
,,,,,,,,,,,,,,,,,,,,4,3.981999874,3,0.240999937,1,0,1200,445,1,1199,bleak,47203,2019-10-26_22h12.45.853,SurveyExpMetaMem,3.2.3,Win32,60
,,,,,,,,,,,,,,,,,,,,4,10.70899987,4,0.124999762,1,0,1200,313,1,1199,rotten,47203,2019-10-26_22h12.45.853,SurveyExpMetaMem,3.2.3,Win32,60
,,,,,,,,,,,,,,,,,,,,1,2.746999741,5,4.924999952,1,0,1200,12,1,1199,mountain,47203,2019-10-26_22h12.45.853,SurveyExpMetaMem,3.2.3,Win32,60
,,,,,,,,,,,,,,,,,,,,6,10.58099985,4,0.115999937,1,0,1200,984,1,1199,despairing,47203,2019-10-26_22h12.45.853,SurveyExpMetaMem,3.2.3,Win32,60
,,,,,,,,,,,,,,,,,,,,2,8.554999828,5,0.939999819,1,0,1200,75,1,1199,actor,47203,2019-10-26_22h12.45.853,SurveyExpMetaMem,3.2.3,Win32,60
,,,,,,,,,,,,,,,,,,,,1,1.725999832,5,0.224999905,1,0,1200,639,1,1199,outlet,47203,2019-10-26_22h12.45.853,SurveyExpMetaMem,3.2.3,Win32,60
,,,,,,,,,,,,,,,,,,,,3,2.523999929,6,0.069999695,1,0,1200,832,1,1199,candy,47203,2019-10-26_22h12.45.853,SurveyExpMetaMem,3.2.3,Win32,60
,,,,,,,,,,,,,,,,,,,,6,1.490999937,4,0.109999895,1,0,1200,303,1,1199,death,47203,2019-10-26_22h12.45.853,SurveyExpMetaMem,3.2.3,Win32,60
,,,,,,,,,,,,,,,,,,,,3,2.16899991,6,1.004999876,1,0,1200,823,1,1199,nourish,47203,2019-10-26_22h12.45.853,SurveyExpMetaMem,3.2.3,Win32,60
,,,,,,,,,,,,,,,,,,,,2,4.744999886,5,2.886999846,1,0,1200,553,1,1199,corner,47203,2019-10-26_22h12.45.853,SurveyExpMetaMem,3.2.3,Win32,60
,,,,,,,,,,,,,,,,,,,,6,30.84799981,4,0.224999905,1,0,1200,319,1,1199,malaria,47203,2019-10-26_22h12.45.853,SurveyExpMetaMem,3.2.3,Win32,60
,,,,,,,,,,,,,,,,,,,,4,4.824999809,6,0.11500001,1,0,1200,778,1,1199,adorn,47203,2019-10-26_22h12.45.853,SurveyExpMetaMem,3.2.3,Win32,60
,,,,,,,,,,,,,,,,,,,,1,1.457999945,5,0.797999859,1,0,1200,501,1,1199,dustpan,47203,2019-10-26_22h12.45.853,SurveyExpMetaMem,3.2.3,Win32,60
,,,,,,,,,,,,,,,,,,,,1,1.786999941,5,0.286999702,1,0,1200,560,1,1199,spurn,47203,2019-10-26_22h12.45.853,SurveyExpMetaMem,3.2.3,Win32,60
,,,,,,,,,,,,,,,,,,,,6,2.136999846,4,0.121999741,1,0,1200,375,1,1199,manure,47203,2019-10-26_22h12.45.853,SurveyExpMetaMem,3.2.3,Win32,60
,,,,,,,,,,,,,,,,,,,,6,1.471999884,6,0.156999826,1,0,1200,189,1,1199,thoughtful,47203,2019-10-26_22h12.45.853,SurveyExpMetaMem,3.2.3,Win32,60
,,,,,,,,,,,,,,,,,,,,7,4.579999924,2,0.710999966,1,0,1200,1186,1,1199,goddamn,47203,2019-10-26_22h12.45.853,SurveyExpMetaMem,3.2.3,Win32,60
,,,,,,,,,,,,,,,,,,,,4,3.473999739,6,0.134999752,1,0,1200,898,1,1199,kindness,47203,2019-10-26_22h12.45.853,SurveyExpMetaMem,3.2.3,Win32,60
,,,,,,,,,,,,,,,,,,,,1,9.461999655,5,0.426999807,1,0,1200,391,1,1199,detach,47203,2019-10-26_22h12.45.853,SurveyExpMetaMem,3.2.3,Win32,60
,,,,,,,,,,,,,,,,,,,,3,3.15899992,6,1.042999744,1,0,1200,35,1,1199,bright,47203,2019-10-26_22h12.45.853,SurveyExpMetaMem,3.2.3,Win32,60
,,,,,,,,,,,,,,,,,,,,4,4.821999788,4,0.236999989,1,0,1200,919,1,1199,loss,47203,2019-10-26_22h12.45.853,SurveyExpMetaMem,3.2.3,Win32,60
,,,,,,,,,,,,,,,,,,,,1,1.457000017,5,0.239999771,1,0,1200,579,1,1199,bus,47203,2019-10-26_22h12.45.853,SurveyExpMetaMem,3.2.3,Win32,60
,,,,,,,,,,,,,,,,,,,,4,4.585999966,5,0.287999868,1,0,1200,235,1,1199,cheery,47203,2019-10-26_22h12.45.853,SurveyExpMetaMem,3.2.3,Win32,60
,,,,,,,,,,,,,,,,,,,,4,5.121999979,6,0.278999805,1,0,1200,74,1,1199,explore,47203,2019-10-26_22h12.45.853,SurveyExpMetaMem,3.2.3,Win32,60
,,,,,,,,,,,,,,,,,,,,1,2.389999866,5,0.328999996,1,0,1200,1091,1,1199,cram,47203,2019-10-26_22h12.45.853,SurveyExpMetaMem,3.2.3,Win32,60
,,,,,,,,,,,,,,,,,,,,6,1.171999931,6,0.15199995,1,0,1200,138,1,1199,blessings,47203,2019-10-26_22h12.45.853,SurveyExpMetaMem,3.2.3,Win32,60
,,,,,,,,,,,,,,,,,,,,1,4.187999725,5,0.325999975,1,0,1200,21,1,1199,game,47203,2019-10-26_22h12.45.853,SurveyExpMetaMem,3.2.3,Win32,60
,,,,,,,,,,,,,,,,,,,,4,4.102999926,4,0.898000002,1,0,1200,1056,1,1199,crime,47203,2019-10-26_22h12.45.853,SurveyExpMetaMem,3.2.3,Win32,60
,,,,,,,,,,,,,,,,,,,,4,50.83999991,6,0.248999834,1,0,1200,824,1,1199,favor,47203,2019-10-26_22h12.45.853,SurveyExpMetaMem,3.2.3,Win32,60
,,,,,,,,,,,,,,,,,,,,1,2.696999788,5,0.197999954,1,0,1200,807,1,1199,person,47203,2019-10-26_22h12.45.853,SurveyExpMetaMem,3.2.3,Win32,60
,,,,,,,,,,,,,,,,,,,,6,1.572000027,4,0.116999865,1,0,1200,1156,1,1199,weapon,47203,2019-10-26_22h12.45.853,SurveyExpMetaMem,3.2.3,Win32,60
,,,,,,,,,,,,,,,,,,,,6,1.491999865,6,0.141999722,1,0,1200,793,1,1199,virtue,47203,2019-10-26_22h12.45.853,SurveyExpMetaMem,3.2.3,Win32,60
,,,,,,,,,,,,,,,,,,,,6,1.168999672,6,0.149999857,1,0,1200,237,1,1199,beautiful,47203,2019-10-26_22h12.45.853,SurveyExpMetaMem,3.2.3,Win32,60
,,,,,,,,,,,,,,,,,,,,6,2.417999744,4,0.125999928,1,0,1200,430,1,1199,cancel,47203,2019-10-26_22h12.45.853,SurveyExpMetaMem,3.2.3,Win32,60
,,,,,,,,,,,,,,,,,,,,3,10.68299985,3,0.55099988,1,0,1200,374,1,1199,sluggish,47203,2019-10-26_22h12.45.853,SurveyExpMetaMem,3.2.3,Win32,60
,,,,,,,,,,,,,,,,,,,,4,1.335999727,6,0.640999794,1,0,1200,733,1,1199,poetry,47203,2019-10-26_22h12.45.853,SurveyExpMetaMem,3.2.3,Win32,60
,,,,,,,,,,,,,,,,,,,,3,4.22300005,6,0.102999926,1,0,1200,546,1,1199,solemn,47203,2019-10-26_22h12.45.853,SurveyExpMetaMem,3.2.3,Win32,60
,,,,,,,,,,,,,,,,,,,,6,1.370999813,4,0.095999718,1,0,1200,1019,1,1199,fraud,47203,2019-10-26_22h12.45.853,SurveyExpMetaMem,3.2.3,Win32,60
,,,,,,,,,,,,,,,,,,,,3,2.250999689,4,0.26699996,1,0,1200,478,1,1199,numb,47203,2019-10-26_22h12.45.853,SurveyExpMetaMem,3.2.3,Win32,60
,,,,,,,,,,,,,,,,,,,,2,3.126999855,5,0.243000031,1,0,1200,1158,1,1199,dentist,47203,2019-10-26_22h12.45.853,SurveyExpMetaMem,3.2.3,Win32,60
,,,,,,,,,,,,,,,,,,,,2,4.006000042,5,0.522999763,1,0,1200,402,1,1199,dismissive,47203,2019-10-26_22h12.45.853,SurveyExpMetaMem,3.2.3,Win32,60
,,,,,,,,,,,,,,,,,,,,2,1.423999786,5,0.259000063,1,0,1200,161,1,1199,limousine,47203,2019-10-26_22h12.45.853,SurveyExpMetaMem,3.2.3,Win32,60
,,,,,,,,,,,,,,,,,,,,4,1.855999947,6,0.153999805,1,0,1200,209,1,1199,husband,47203,2019-10-26_22h12.45.853,SurveyExpMetaMem,3.2.3,Win32,60
,,,,,,,,,,,,,,,,,,,,6,3.378000021,4,0.141999722,1,0,1200,908,1,1199,suffer,47203,2019-10-26_22h12.45.853,SurveyExpMetaMem,3.2.3,Win32,60
,,,,,,,,,,,,,,,,,,,,7,1.521999836,3,0.608999968,1,0,1200,1159,1,1199,rifle,47203,2019-10-26_22h12.45.853,SurveyExpMetaMem,3.2.3,Win32,60
,,,,,,,,,,,,,,,,,,,,4,3.427999973,5,1.205999851,1,0,1200,772,1,1199,ornament,47203,2019-10-26_22h12.45.853,SurveyExpMetaMem,3.2.3,Win32,60
,,,,,,,,,,,,,,,,,,,,2,2.053999901,5,0.263000011,1,0,1200,468,1,1199,noose,47203,2019-10-26_22h12.45.853,SurveyExpMetaMem,3.2.3,Win32,60
,,,,,,,,,,,,,,,,,,,,4,1.346999645,6,0.113999844,1,0,1200,863,1,1199,fireplace,47203,2019-10-26_22h12.45.853,SurveyExpMetaMem,3.2.3,Win32,60
,,,,,,,,,,,,,,,,,,,,6,2.254999876,4,0.177999735,1,0,1200,981,1,1199,rage,47203,2019-10-26_22h12.45.853,SurveyExpMetaMem,3.2.3,Win32,60
,,,,,,,,,,,,,,,,,,,,6,2.173999786,4,0.724999905,1,0,1200,52,1,1199,dare,47203,2019-10-26_22h12.45.853,SurveyExpMetaMem,3.2.3,Win32,60
,,,,,,,,,,,,,,,,,,,,3,35.25099993,5,0.569999933,1,0,1200,771,1,1199,practical,47203,2019-10-26_22h12.45.853,SurveyExpMetaMem,3.2.3,Win32,60
,,,,,,,,,,,,,,,,,,,,4,3.019999743,6,0.296999693,1,0,1200,157,1,1199,reveal,47203,2019-10-26_22h12.45.853,SurveyExpMetaMem,3.2.3,Win32,60
,,,,,,,,,,,,,,,,,,,,4,3.339999914,6,0.257999897,1,0,1200,41,1,1199,progress,47203,2019-10-26_22h12.45.853,SurveyExpMetaMem,3.2.3,Win32,60
,,,,,,,,,,,,,,,,,,,,4,4.287999868,7,0.159999847,1,0,1200,202,1,1199,mercy,47203,2019-10-26_22h12.45.853,SurveyExpMetaMem,3.2.3,Win32,60
,,,,,,,,,,,,,,,,,,,,6,1.464999914,6,0.254999876,1,0,1200,232,1,1199,prosper,47203,2019-10-26_22h12.45.853,SurveyExpMetaMem,3.2.3,Win32,60
,,,,,,,,,,,,,,,,,,,,2,3.422999859,5,0.295999765,1,0,1200,220,1,1199,reef,47203,2019-10-26_22h12.45.853,SurveyExpMetaMem,3.2.3,Win32,60
,,,,,,,,,,,,,,,,,,,,2,1.527999878,5,0.207999945,1,0,1200,791,1,1199,shoes,47203,2019-10-26_22h12.45.853,SurveyExpMetaMem,3.2.3,Win32,60
,,,,,,,,,,,,,,,,,,,,3,2.876999855,4,0.343999863,1,0,1200,435,1,1199,grovel,47203,2019-10-26_22h12.45.853,SurveyExpMetaMem,3.2.3,Win32,60
,,,,,,,,,,,,,,,,,,,,6,6.307999849,6,0.222999811,1,0,1200,141,1,1199,surprise,47203,2019-10-26_22h12.45.853,SurveyExpMetaMem,3.2.3,Win32,60
,,,,,,,,,,,,,,,,,,,,6,3.75999999,6,0.223999739,1,0,1200,221,1,1199,sparkle,47203,2019-10-26_22h12.45.853,SurveyExpMetaMem,3.2.3,Win32,60
,,,,,,,,,,,,,,,,,,,,4,7.811999798,4,0.511999846,1,0,1200,323,1,1199,ungrateful,47203,2019-10-26_22h12.45.853,SurveyExpMetaMem,3.2.3,Win32,60
,,,,,,,,,,,,,,,,,,,,4,2.337999821,4,0.249999762,1,0,1200,1152,1,1199,scream,47203,2019-10-26_22h12.45.853,SurveyExpMetaMem,3.2.3,Win32,60
,,,,,,,,,,,,,,,,,,,,3,12.84099984,4,0.822999954,1,0,1200,345,1,1199,unfortunate,47203,2019-10-26_22h12.45.853,SurveyExpMetaMem,3.2.3,Win32,60
,,,,,,,,,,,,,,,,,,,,4,1.992999792,5,0.476999998,1,0,1200,17,1,1199,outgoing,47203,2019-10-26_22h12.45.853,SurveyExpMetaMem,3.2.3,Win32,60
,,,,,,,,,,,,,,,,,,,,4,2.531999826,5,0.56099987,1,0,1200,60,1,1199,bikini,47203,2019-10-26_22h12.45.853,SurveyExpMetaMem,3.2.3,Win32,60
,,,,,,,,,,,,,,,,,,,,4,3.265999794,5,0.195999861,1,0,1200,447,1,1199,dishes,47203,2019-10-26_22h12.45.853,SurveyExpMetaMem,3.2.3,Win32,60
,,,,,,,,,,,,,,,,,,,,2,3.528999805,5,0.260999918,1,0,1200,61,1,1199,zoom,47203,2019-10-26_22h12.45.853,SurveyExpMetaMem,3.2.3,Win32,60
,,,,,,,,,,,,,,,,,,,,2,1.973999739,5,0.289999962,1,0,1200,526,1,1199,dry,47203,2019-10-26_22h12.45.853,SurveyExpMetaMem,3.2.3,Win32,60
,,,,,,,,,,,,,,,,,,,,3,3.448999882,5,2.988999844,1,0,1200,283,1,1199,elated,47203,2019-10-26_22h12.45.853,SurveyExpMetaMem,3.2.3,Win32,60
,,,,,,,,,,,,,,,,,,,,5,1.527999878,3,0.339999914,1,0,1200,1047,1,1199,psycho,47203,2019-10-26_22h12.45.853,SurveyExpMetaMem,3.2.3,Win32,60
,,,,,,,,,,,,,,,,,,,,2,1.96999979,5,1.922999859,1,0,1200,594,1,1199,moss,47203,2019-10-26_22h12.45.853,SurveyExpMetaMem,3.2.3,Win32,60
,,,,,,,,,,,,,,,,,,,,3,5.341999769,5,0.266999722,1,0,1200,872,1,1199,dignified,47203,2019-10-26_22h12.45.853,SurveyExpMetaMem,3.2.3,Win32,60
,,,,,,,,,,,,,,,,,,,,4,3.955999851,5,0.223999977,1,0,1200,187,1,1199,excite,47203,2019-10-26_22h12.45.853,SurveyExpMetaMem,3.2.3,Win32,60
,,,,,,,,,,,,,,,,,,,,4,3.355999947,3,0.397999763,1,0,1200,941,1,1199,leprosy,47203,2019-10-26_22h12.45.853,SurveyExpMetaMem,3.2.3,Win32,60
,,,,,,,,,,,,,,,,,,,,2,5.647999763,5,0.307999849,1,0,1200,421,1,1199,stale,47203,2019-10-26_22h12.45.853,SurveyExpMetaMem,3.2.3,Win32,60
,,,,,,,,,,,,,,,,,,,,2,3.157999754,5,0.207999945,1,0,1200,512,1,1199,insect,47203,2019-10-26_22h12.45.853,SurveyExpMetaMem,3.2.3,Win32,60
,,,,,,,,,,,,,,,,,,,,4,2.274999857,4,0.243000031,1,0,1200,1059,1,1199,harsh,47203,2019-10-26_22h12.45.853,SurveyExpMetaMem,3.2.3,Win32,60
,,,,,,,,,,,,,,,,,,,,2,2.23699975,5,1.305999756,1,0,1200,107,1,1199,sandwich,47203,2019-10-26_22h12.45.853,SurveyExpMetaMem,3.2.3,Win32,60
,,,,,,,,,,,,,,,,,,,,1,1.984999895,5,0.349999905,1,0,1200,206,1,1199,comet,47203,2019-10-26_22h12.45.853,SurveyExpMetaMem,3.2.3,Win32,60
,,,,,,,,,,,,,,,,,,,,3,3.855999947,4,0.166999817,1,0,1200,591,1,1199,bereavement,47203,2019-10-26_22h12.45.853,SurveyExpMetaMem,3.2.3,Win32,60
,,,,,,,,,,,,,,,,,,,,3,3.046999931,6,0.388999939,1,0,1200,1172,1,1199,overwhelmed,47203,2019-10-26_22h12.45.853,SurveyExpMetaMem,3.2.3,Win32,60
,,,,,,,,,,,,,,,,,,,,1,1.927999735,5,0.460999966,1,0,1200,536,1,1199,vacant,47203,2019-10-26_22h12.45.853,SurveyExpMetaMem,3.2.3,Win32,60
,,,,,,,,,,,,,,,,,,,,3,3.623999834,5,0.166999817,1,0,1200,629,1,1199,barn,47203,2019-10-26_22h12.45.853,SurveyExpMetaMem,3.2.3,Win32,60
,,,,,,,,,,,,,,,,,,,,2,2.693999767,5,0.132999897,1,0,1200,500,1,1199,nosey,47203,2019-10-26_22h12.45.853,SurveyExpMetaMem,3.2.3,Win32,60
,,,,,,,,,,,,,,,,,,,,4,2.819999933,4,2.504999876,1,0,1200,39,1,1199,birth,47203,2019-10-26_22h12.45.853,SurveyExpMetaMem,3.2.3,Win32,60
,,,,,,,,,,,,,,,,,,,,2,2.520999908,4,0.424999952,1,0,1200,737,1,1199,lamb,47203,2019-10-26_22h12.45.853,SurveyExpMetaMem,3.2.3,Win32,60
,,,,,,,,,,,,,,,,,,,,1,56.54799986,5,0.338999748,1,0,1200,596,1,1199,factory,47203,2019-10-26_22h12.45.853,SurveyExpMetaMem,3.2.3,Win32,60
,,,,,,,,,,,,,,,,,,,,3,1.938999891,6,0.539999723,1,0,1200,284,1,1199,delight,47203,2019-10-26_22h12.45.853,SurveyExpMetaMem,3.2.3,Win32,60
,,,,,,,,,,,,,,,,,,,,4,2.411000013,4,0.180999756,1,0,1200,137,1,1199,money,47203,2019-10-26_22h12.45.853,SurveyExpMetaMem,3.2.3,Win32,60
,,,,,,,,,,,,,,,,,,,,1,1.812999964,5,0.414000034,1,0,1200,668,1,1199,unit,47203,2019-10-26_22h12.45.853,SurveyExpMetaMem,3.2.3,Win32,60
,,,,,,,,,,,,,,,,,,,,2,2.889999866,5,2.532999754,1,0,1200,73,1,1199,rhythm,47203,2019-10-26_22h12.45.853,SurveyExpMetaMem,3.2.3,Win32,60
,,,,,,,,,,,,,,,,,,,,1,2.146999836,5,0.337999821,1,0,1200,618,1,1199,ceiling,47203,2019-10-26_22h12.45.853,SurveyExpMetaMem,3.2.3,Win32,60
,,,,,,,,,,,,,,,,,,,,1,1.824999809,5,0.186999798,1,0,1200,575,1,1199,paragraph,47203,2019-10-26_22h12.45.853,SurveyExpMetaMem,3.2.3,Win32,60
,,,,,,,,,,,,,,,,,,,,1,1.070999861,5,0.221999645,1,0,1200,684,1,1199,send,47203,2019-10-26_22h12.45.853,SurveyExpMetaMem,3.2.3,Win32,60
,,,,,,,,,,,,,,,,,,,,2,2.671999931,6,0.122999668,1,0,1200,252,1,1199,infatuated,47203,2019-10-26_22h12.45.853,SurveyExpMetaMem,3.2.3,Win32,60
,,,,,,,,,,,,,,,,,,,,3,2.174999952,6,0.109999895,1,0,1200,270,1,1199,toddler,47203,2019-10-26_22h12.45.853,SurveyExpMetaMem,3.2.3,Win32,60
,,,,,,,,,,,,,,,,,,,,4,3.665999651,4,0.248999834,1,0,1200,1078,1,1199,trouble,47203,2019-10-26_22h12.45.853,SurveyExpMetaMem,3.2.3,Win32,60
,,,,,,,,,,,,,,,,,,,,1,2.171999931,5,0.208999634,1,0,1200,104,1,1199,freeway,47203,2019-10-26_22h12.45.853,SurveyExpMetaMem,3.2.3,Win32,60
,,,,,,,,,,,,,,,,,,,,3,4.438999653,4,0.275999784,1,0,1200,1044,1,1199,lost,47203,2019-10-26_22h12.45.853,SurveyExpMetaMem,3.2.3,Win32,60
,,,,,,,,,,,,,,,,,,,,1,7.318999767,5,0.17599988,1,0,1200,42,1,1199,accomplish,47203,2019-10-26_22h12.45.853,SurveyExpMetaMem,3.2.3,Win32,60
,,,,,,,,,,,,,,,,,,,,2,1.864999771,5,0.104999781,1,0,1200,37,1,1199,magnificence,47203,2019-10-26_22h12.45.853,SurveyExpMetaMem,3.2.3,Win32,60
,,,,,,,,,,,,,,,,,,,,3,5.138999939,4,0.54399991,1,0,1200,486,1,1199,fool,47203,2019-10-26_22h12.45.853,SurveyExpMetaMem,3.2.3,Win32,60
,,,,,,,,,,,,,,,,,,,,1,2.24000001,5,1.008999825,1,0,1200,538,1,1199,crumbs,47203,2019-10-26_22h12.45.853,SurveyExpMetaMem,3.2.3,Win32,60
,,,,,,,,,,,,,,,,,,,,3,2.671999693,5,1.005999804,1,0,1200,296,1,1199,awesome,47203,2019-10-26_22h12.45.853,SurveyExpMetaMem,3.2.3,Win32,60
,,,,,,,,,,,,,,,,,,,,3,2.394999743,4,0.291999817,1,0,1200,996,1,1199,sting,47203,2019-10-26_22h12.45.853,SurveyExpMetaMem,3.2.3,Win32,60
,,,,,,,,,,,,,,,,,,,,3,3.911999702,3,1.471999884,1,0,1200,356,1,1199,mucous,47203,2019-10-26_22h12.45.853,SurveyExpMetaMem,3.2.3,Win32,60
,,,,,,,,,,,,,,,,,,,,4,3.210999727,5,0.221999884,1,0,1200,68,1,1199,perfect,47203,2019-10-26_22h12.45.853,SurveyExpMetaMem,3.2.3,Win32,60
,,,,,,,,,,,,,,,,,,,,2,1.489999771,5,0.117999792,1,0,1200,860,1,1199,silk,47203,2019-10-26_22h12.45.853,SurveyExpMetaMem,3.2.3,Win32,60
,,,,,,,,,,,,,,,,,,,,2,0.861000061,5,0.159999847,1,0,1200,110,1,1199,animal,47203,2019-10-26_22h12.45.853,SurveyExpMetaMem,3.2.3,Win32,60
,,,,,,,,,,,,,,,,,,,,2,0.94299984,5,0.105999947,1,0,1200,643,1,1199,library,47203,2019-10-26_22h12.45.853,SurveyExpMetaMem,3.2.3,Win32,60
,,,,,,,,,,,,,,,,,,,,1,1.48699975,5,0.141000032,1,0,1200,506,1,1199,lower,47203,2019-10-26_22h12.45.853,SurveyExpMetaMem,3.2.3,Win32,60
,,,,,,,,,,,,,,,,,,,,3,1.822999954,4,0.216999769,1,0,1200,440,1,1199,forgot,47203,2019-10-26_22h12.45.853,SurveyExpMetaMem,3.2.3,Win32,60
,,,,,,,,,,,,,,,,,,,,1,3.691999912,5,0.235999823,1,0,1200,616,1,1199,coat,47203,2019-10-26_22h12.45.853,SurveyExpMetaMem,3.2.3,Win32,60
,,,,,,,,,,,,,,,,,,,,1,1.056999922,5,0.122999907,1,0,1200,763,1,1199,vegetables,47203,2019-10-26_22h12.45.853,SurveyExpMetaMem,3.2.3,Win32,60
,,,,,,,,,,,,,,,,,,,,3,2.178999901,6,0.078999996,1,0,1200,80,1,1199,wonderful,47203,2019-10-26_22h12.45.853,SurveyExpMetaMem,3.2.3,Win32,60
,,,,,,,,,,,,,,,,,,,,3,2.521999836,4,0.274999857,1,0,1200,1006,1,1199,rash,47203,2019-10-26_22h12.45.853,SurveyExpMetaMem,3.2.3,Win32,60
,,,,,,,,,,,,,,,,,,,,1,2.007999897,5,0.075999975,1,0,1200,263,1,1199,answer,47203,2019-10-26_22h12.45.853,SurveyExpMetaMem,3.2.3,Win32,60
,,,,,,,,,,,,,,,,,,,,1,0.921999931,5,0.105999947,1,0,1200,121,1,1199,self,47203,2019-10-26_22h12.45.853,SurveyExpMetaMem,3.2.3,Win32,60
,,,,,,,,,,,,,,,,,,,,4,2.254999638,4,0.340999842,1,0,1200,939,1,1199,vomit,47203,2019-10-26_22h12.45.853,SurveyExpMetaMem,3.2.3,Win32,60
,,,,,,,,,,,,,,,,,,,,1,2.155999899,4,0.552999735,1,0,1200,59,1,1199,sports,47203,2019-10-26_22h12.45.853,SurveyExpMetaMem,3.2.3,Win32,60
,,,,,,,,,,,,,,,,,,,,2,5.196999788,5,0.155999899,1,0,1200,30,1,1199,impressed,47203,2019-10-26_22h12.45.853,SurveyExpMetaMem,3.2.3,Win32,60
,,,,,,,,,,,,,,,,,,,,4,4.156999826,6,0.124000072,1,0,1200,292,1,1199,birthday,47203,2019-10-26_22h12.45.853,SurveyExpMetaMem,3.2.3,Win32,60
,,,,,,,,,,,,,,,,,,,,4,6.044999838,3,0.673999786,1,0,1200,916,1,1199,starvation,47203,2019-10-26_22h12.45.853,SurveyExpMetaMem,3.2.3,Win32,60
,,,,,,,,,,,,,,,,,,,,1,2.704999924,5,0.16899991,1,0,1200,131,1,1199,treat,47203,2019-10-26_22h12.45.853,SurveyExpMetaMem,3.2.3,Win32,60
,,,,,,,,,,,,,,,,,,,,3,2.578999996,3,0.422999859,1,0,1200,1150,1,1199,forceful,47203,2019-10-26_22h12.45.853,SurveyExpMetaMem,3.2.3,Win32,60
,,,,,,,,,,,,,,,,,,,,3,1.549999714,3,0.231999874,1,0,1200,980,1,1199,liar,47203,2019-10-26_22h12.45.853,SurveyExpMetaMem,3.2.3,Win32,60
,,,,,,,,,,,,,,,,,,,,1,1.59499979,5,0.174000025,1,0,1200,448,1,1199,depart,47203,2019-10-26_22h12.45.853,SurveyExpMetaMem,3.2.3,Win32,60
,,,,,,,,,,,,,,,,,,,,2,3.569999695,4,0.971999645,1,0,1200,396,1,1199,unpopular,47203,2019-10-26_22h12.45.853,SurveyExpMetaMem,3.2.3,Win32,60
,,,,,,,,,,,,,,,,,,,,2,2.548999786,5,0.636999846,1,0,1200,641,1,1199,writer,47203,2019-10-26_22h12.45.853,SurveyExpMetaMem,3.2.3,Win32,60
,,,,,,,,,,,,,,,,,,,,2,4.341999769,4,0.533999681,1,0,1200,334,1,1199,trash,47203,2019-10-26_22h12.45.853,SurveyExpMetaMem,3.2.3,Win32,60
,,,,,,,,,,,,,,,,,,,,3,1.846999645,4,0.605999708,1,0,1200,922,1,1199,nightmare,47203,2019-10-26_22h12.45.853,SurveyExpMetaMem,3.2.3,Win32,60
,,,,,,,,,,,,,,,,,,,,6,2.229999781,4,0.572999954,1,0,1200,904,1,1199,murderer,47203,2019-10-26_22h12.45.853,SurveyExpMetaMem,3.2.3,Win32,60
,,,,,,,,,,,,,,,,,,,,3,2.305999756,6,0.140999794,1,0,1200,891,1,1199,kind,47203,2019-10-26_22h12.45.853,SurveyExpMetaMem,3.2.3,Win32,60
,,,,,,,,,,,,,,,,,,,,3,6.080999851,4,0.206999779,1,0,1200,176,1,1199,champ,47203,2019-10-26_22h12.45.853,SurveyExpMetaMem,3.2.3,Win32,60
,,,,,,,,,,,,,,,,,,,,4,7.36199975,4,0.196999788,1,0,1200,1025,1,1199,deadly,47203,2019-10-26_22h12.45.853,SurveyExpMetaMem,3.2.3,Win32,60
,,,,,,,,,,,,,,,,,,,,2,7.274999857,4,0.255999804,1,0,1200,353,1,1199,blister,47203,2019-10-26_22h12.45.853,SurveyExpMetaMem,3.2.3,Win32,60
,,,,,,,,,,,,,,,,,,,,2,2.542999744,4,0.540999889,1,0,1200,965,1,1199,traffic,47203,2019-10-26_22h12.45.853,SurveyExpMetaMem,3.2.3,Win32,60
,,,,,,,,,,,,,,,,,,,,3,4.130999804,3,0.258999825,1,0,1200,198,1,1199,comedy,47203,2019-10-26_22h12.45.853,SurveyExpMetaMem,3.2.3,Win32,60
,,,,,,,,,,,,,,,,,,,,3,0.00999999,3,0.013999701,1,0,1200,736,1,1199,hawk,47203,2019-10-26_22h12.45.853,SurveyExpMetaMem,3.2.3,Win32,60
,,,,,,,,,,,,,,,,,,,,2,8.005999804,5,0.240999699,1,0,1200,498,1,1199,alimony,47203,2019-10-26_22h12.45.853,SurveyExpMetaMem,3.2.3,Win32,60
,,,,,,,,,,,,,,,,,,,,3,3.770999908,4,0.687999725,1,0,1200,1117,1,1199,court,47203,2019-10-26_22h12.45.853,SurveyExpMetaMem,3.2.3,Win32,60
,,,,,,,,,,,,,,,,,,,,3,3.203000069,4,0.101999998,1,0,1200,371,1,1199,weakness,47203,2019-10-26_22h12.45.853,SurveyExpMetaMem,3.2.3,Win32,60
,,,,,,,,,,,,,,,,,,,,4,2.883999825,6,0.131999731,1,0,1200,27,1,1199,gourmet,47203,2019-10-26_22h12.45.853,SurveyExpMetaMem,3.2.3,Win32,60
,,,,,,,,,,,,,,,,,,,,2,5.50999999,5,0.631999969,1,0,1200,53,1,1199,lotion,47203,2019-10-26_22h12.45.853,SurveyExpMetaMem,3.2.3,Win32,60
,,,,,,,,,,,,,,,,,,,,2,3.132999659,5,0.215999842,1,0,1200,550,1,1199,fart,47203,2019-10-26_22h12.45.853,SurveyExpMetaMem,3.2.3,Win32,60
,,,,,,,,,,,,,,,,,,,,1,2.814999819,5,0.437999964,1,0,1200,690,1,1199,similar,47203,2019-10-26_22h12.45.853,SurveyExpMetaMem,3.2.3,Win32,60
,,,,,,,,,,,,,,,,,,,,1,0.975999832,5,0.569999933,1,0,1200,830,1,1199,pear,47203,2019-10-26_22h12.45.853,SurveyExpMetaMem,3.2.3,Win32,60
,,,,,,,,,,,,,,,,,,,,1,9.54399991,5,0.477999687,1,0,1200,657,1,1199,peanut,47203,2019-10-26_22h12.45.853,SurveyExpMetaMem,3.2.3,Win32,60
,,,,,,,,,,,,,,,,,,,,3,4.710999966,4,0.392999887,1,0,1200,710,1,1199,gender,47203,2019-10-26_22h12.45.853,SurveyExpMetaMem,3.2.3,Win32,60
,,,,,,,,,,,,,,,,,,,,2,8.946999788,5,0.311999798,1,0,1200,437,1,1199,blubber,47203,2019-10-26_22h12.45.853,SurveyExpMetaMem,3.2.3,Win32,60
,,,,,,,,,,,,,,,,,,,,1,1.417999983,5,0.238999844,1,0,1200,159,1,1199,teenager,47203,2019-10-26_22h12.45.853,SurveyExpMetaMem,3.2.3,Win32,60
,,,,,,,,,,,,,,,,,,,,2,15.04399991,4,0.089999676,1,0,1200,1122,1,1199,gossip,47203,2019-10-26_22h12.45.853,SurveyExpMetaMem,3.2.3,Win32,60
,,,,,,,,,,,,,,,,,,,,4,3.052999973,4,0.212999821,1,0,1200,1132,1,1199,anarchy,47203,2019-10-26_22h12.45.853,SurveyExpMetaMem,3.2.3,Win32,60
,,,,,,,,,,,,,,,,,,,,3,1.366999865,5,1.966999769,1,0,1200,90,1,1199,satisfaction,47203,2019-10-26_22h12.45.853,SurveyExpMetaMem,3.2.3,Win32,60
,,,,,,,,,,,,,,,,,,,,4,2.620999813,4,0.24000001,1,0,1200,400,1,1199,urine,47203,2019-10-26_22h12.45.853,SurveyExpMetaMem,3.2.3,Win32,60
,,,,,,,,,,,,,,,,,,,,4,0.046000004,3,4.228999853,1,0,1200,750,1,1199,porpoise,47203,2019-10-26_22h12.45.853,SurveyExpMetaMem,3.2.3,Win32,60
,,,,,,,,,,,,,,,,,,,,3,0.253999949,3,0.009999752,1,0,1200,380,1,1199,expire,47203,2019-10-26_22h12.45.853,SurveyExpMetaMem,3.2.3,Win32,60
,,,,,,,,,,,,,,,,,,,,3,0.010999918,3,0.013999939,1,0,1200,956,1,1199,crushed,47203,2019-10-26_22h12.45.853,SurveyExpMetaMem,3.2.3,Win32,60
,,,,,,,,,,,,,,,,,,,,3,4.906999826,6,0.103999853,1,0,1200,800,1,1199,authentic,47203,2019-10-26_22h12.45.853,SurveyExpMetaMem,3.2.3,Win32,60
,,,,,,,,,,,,,,,,,,,,2,3.520999908,4,0.915999651,1,0,1200,1147,1,1199,demand,47203,2019-10-26_22h12.45.853,SurveyExpMetaMem,3.2.3,Win32,60
,,,,,,,,,,,,,,,,,,,,3,7.389999866,4,1.890999794,1,0,1200,1055,1,1199,alarm,47203,2019-10-26_22h12.45.853,SurveyExpMetaMem,3.2.3,Win32,60
,,,,,,,,,,,,,,,,,,,,4,3.322999954,4,0.309999704,1,0,1200,444,1,1199,mold,47203,2019-10-26_22h12.45.853,SurveyExpMetaMem,3.2.3,Win32,60
,,,,,,,,,,,,,,,,,,,,4,2.082999945,6,0.16899991,1,0,1200,868,1,1199,grace,47203,2019-10-26_22h12.45.853,SurveyExpMetaMem,3.2.3,Win32,60
,,,,,,,,,,,,,,,,,,,,3,2.586999893,4,0.373999834,1,0,1200,377,1,1199,complain,47203,2019-10-26_22h12.45.853,SurveyExpMetaMem,3.2.3,Win32,60
,,,,,,,,,,,,,,,,,,,,1,2.144999743,5,0.159999847,1,0,1200,656,1,1199,number,47203,2019-10-26_22h12.45.853,SurveyExpMetaMem,3.2.3,Win32,60
,,,,,,,,,,,,,,,,,,,,1,2.968999863,5,0.108999968,1,0,1200,686,1,1199,phone,47203,2019-10-26_22h12.45.853,SurveyExpMetaMem,3.2.3,Win32,60
,,,,,,,,,,,,,,,,,,,,2,2.039000034,4,0.213999987,1,0,1200,488,1,1199,rusty,47203,2019-10-26_22h12.45.853,SurveyExpMetaMem,3.2.3,Win32,60
,,,,,,,,,,,,,,,,,,,,1,1.307999849,5,0.207999706,1,0,1200,627,1,1199,introductory,47203,2019-10-26_22h12.45.853,SurveyExpMetaMem,3.2.3,Win32,60
,,,,,,,,,,,,,,,,,,,,2,3.991999865,5,1.409999847,1,0,1200,246,1,1199,complete,47203,2019-10-26_22h12.45.853,SurveyExpMetaMem,3.2.3,Win32,60
,,,,,,,,,,,,,,,,,,,,1,6.679999828,5,0.454999924,1,0,1200,72,1,1199,attract,47203,2019-10-26_22h12.45.853,SurveyExpMetaMem,3.2.3,Win32,60
,,,,,,,,,,,,,,,,,,,,1,1.284999847,5,0.125999689,1,0,1200,813,1,1199,walking,47203,2019-10-26_22h12.45.853,SurveyExpMetaMem,3.2.3,Win32,60
,,,,,,,,,,,,,,,,,,,,2,2.299999952,5,0.104999781,1,0,1200,48,1,1199,excellence,47203,2019-10-26_22h12.45.853,SurveyExpMetaMem,3.2.3,Win32,60
,,,,,,,,,,,,,,,,,,,,1,1.596999884,5,0.125999928,1,0,1200,762,1,1199,orchestra,47203,2019-10-26_22h12.45.853,SurveyExpMetaMem,3.2.3,Win32,60
,,,,,,,,,,,,,,,,,,,,1,1.553999901,5,0.075999975,1,0,1200,116,1,1199,carnival,47203,2019-10-26_22h12.45.853,SurveyExpMetaMem,3.2.3,Win32,60
,,,,,,,,,,,,,,,,,,,,1,1.234999895,5,0.069999933,1,0,1200,720,1,1199,stable,47203,2019-10-26_22h12.45.853,SurveyExpMetaMem,3.2.3,Win32,60
,,,,,,,,,,,,,,,,,,,,2,3.037999868,6,0.431999922,1,0,1200,46,1,1199,god,47203,2019-10-26_22h12.45.853,SurveyExpMetaMem,3.2.3,Win32,60
,,,,,,,,,,,,,,,,,,,,2,3.735999823,4,0.626999855,1,0,1200,1071,1,1199,uncomfortable,47203,2019-10-26_22h12.45.853,SurveyExpMetaMem,3.2.3,Win32,60
,,,,,,,,,,,,,,,,,,,,3,2.035999775,4,0.121999979,1,0,1200,920,1,1199,hurt,47203,2019-10-26_22h12.45.853,SurveyExpMetaMem,3.2.3,Win32,60
,,,,,,,,,,,,,,,,,,,,1,1.558999777,5,0.194999933,1,0,1200,648,1,1199,beads,47203,2019-10-26_22h12.45.853,SurveyExpMetaMem,3.2.3,Win32,60
,,,,,,,,,,,,,,,,,,,,1,1.205999851,5,0.288999796,1,0,1200,130,1,1199,great,47203,2019-10-26_22h12.45.853,SurveyExpMetaMem,3.2.3,Win32,60
,,,,,,,,,,,,,,,,,,,,1,0.924000025,5,0.145999908,1,0,1200,50,1,1199,bolt,47203,2019-10-26_22h12.45.853,SurveyExpMetaMem,3.2.3,Win32,60
,,,,,,,,,,,,,,,,,,,,1,0.836999893,5,0.110999823,1,0,1200,805,1,1199,autumn,47203,2019-10-26_22h12.45.853,SurveyExpMetaMem,3.2.3,Win32,60
,,,,,,,,,,,,,,,,,,,,1,0.92599988,5,0.125999928,1,0,1200,113,1,1199,bridesmaid,47203,2019-10-26_22h12.45.853,SurveyExpMetaMem,3.2.3,Win32,60
,,,,,,,,,,,,,,,,,,,,2,2.31799984,6,0.538999796,1,0,1200,148,1,1199,victory,47203,2019-10-26_22h12.45.853,SurveyExpMetaMem,3.2.3,Win32,60
,,,,,,,,,,,,,,,,,,,,1,1.409999847,5,0.127999783,1,0,1200,658,1,1199,method,47203,2019-10-26_22h12.45.853,SurveyExpMetaMem,3.2.3,Win32,60
,,,,,,,,,,,,,,,,,,,,1,0.801999807,5,0.090999842,1,0,1200,153,1,1199,teach,47203,2019-10-26_22h12.45.853,SurveyExpMetaMem,3.2.3,Win32,60
,,,,,,,,,,,,,,,,,,,,1,1.379999876,5,0.224999905,1,0,1200,1093,1,1199,hive,47203,2019-10-26_22h12.45.853,SurveyExpMetaMem,3.2.3,Win32,60
,,,,,,,,,,,,,,,,,,,,1,0.621999979,5,0.069999933,1,0,1200,601,1,1199,roof,47203,2019-10-26_22h12.45.853,SurveyExpMetaMem,3.2.3,Win32,60
,,,,,,,,,,,,,,,,,,,,1,0.592999697,5,0.072999954,1,0,1200,744,1,1199,village,47203,2019-10-26_22h12.45.853,SurveyExpMetaMem,3.2.3,Win32,60
,,,,,,,,,,,,,,,,,,,,4,1.587999821,3,0.196999788,1,0,1200,992,1,1199,addict,47203,2019-10-26_22h12.45.853,SurveyExpMetaMem,3.2.3,Win32,60
,,,,,,,,,,,,,,,,,,,,1,2.447999954,5,0.345999718,1,0,1200,802,1,1199,familiar,47203,2019-10-26_22h12.45.853,SurveyExpMetaMem,3.2.3,Win32,60
,,,,,,,,,,,,,,,,,,,,2,2.044999838,4,0.559999704,1,0,1200,952,1,1199,troubled,47203,2019-10-26_22h12.45.853,SurveyExpMetaMem,3.2.3,Win32,60
,,,,,,,,,,,,,,,,,,,,2,2.718999863,4,0.156999826,1,0,1200,479,1,1199,period,47203,2019-10-26_22h12.45.853,SurveyExpMetaMem,3.2.3,Win32,60
,,,,,,,,,,,,,,,,,,,,2,2.974999905,4,0.290999889,1,0,1200,558,1,1199,punk,47203,2019-10-26_22h12.45.853,SurveyExpMetaMem,3.2.3,Win32,60
,,,,,,,,,,,,,,,,,,,,1,1.36199975,5,0.089999914,1,0,1200,721,1,1199,contemporary,47203,2019-10-26_22h12.45.853,SurveyExpMetaMem,3.2.3,Win32,60
,,,,,,,,,,,,,,,,,,,,1,5.850999832,5,0.247999668,1,0,1200,602,1,1199,vegetable,47203,2019-10-26_22h12.45.853,SurveyExpMetaMem,3.2.3,Win32,60
,,,,,,,,,,,,,,,,,,,,1,3.070999861,4,0.267999887,1,0,1200,417,1,1199,dummy,47203,2019-10-26_22h12.45.853,SurveyExpMetaMem,3.2.3,Win32,60
,,,,,,,,,,,,,,,,,,,,1,2.471999884,5,0.126999855,1,0,1200,727,1,1199,author,47203,2019-10-26_22h12.45.853,SurveyExpMetaMem,3.2.3,Win32,60
,,,,,,,,,,,,,,,,,,,,1,1.59800005,3,0.465999842,1,0,1200,1123,1,1199,haunt,47203,2019-10-26_22h12.45.853,SurveyExpMetaMem,3.2.3,Win32,60
,,,,,,,,,,,,,,,,,,,,1,2.34100008,4,0.24000001,1,0,1200,1128,1,1199,fighting,47203,2019-10-26_22h12.45.853,SurveyExpMetaMem,3.2.3,Win32,60
,,,,,,,,,,,,,,,,,,,,1,1.705999851,5,0.127999783,1,0,1200,1162,1,1199,baffle,47203,2019-10-26_22h12.45.853,SurveyExpMetaMem,3.2.3,Win32,60
,,,,,,,,,,,,,,,,,,,,1,2.081999779,4,0.657000065,1,0,1200,329,1,1199,worse,47203,2019-10-26_22h12.45.853,SurveyExpMetaMem,3.2.3,Win32,60
,,,,,,,,,,,,,,,,,,,,1,1.954999685,4,0.352999926,1,0,1200,432,1,1199,resign,47203,2019-10-26_22h12.45.853,SurveyExpMetaMem,3.2.3,Win32,60
,,,,,,,,,,,,,,,,,,,,1,1.768999815,5,0.146999836,1,0,1200,372,1,1199,inferior,47203,2019-10-26_22h12.45.853,SurveyExpMetaMem,3.2.3,Win32,60
,,,,,,,,,,,,,,,,,,,,1,1.357999802,5,0.104999781,1,0,1200,89,1,1199,cruiseship,47203,2019-10-26_22h12.45.853,SurveyExpMetaMem,3.2.3,Win32,60
,,,,,,,,,,,,,,,,,,,,1,1.001999855,4,0.21999979,1,0,1200,915,1,1199,abuse,47203,2019-10-26_22h12.45.853,SurveyExpMetaMem,3.2.3,Win32,60
,,,,,,,,,,,,,,,,,,,,2,2.287999868,6,0.156999826,1,0,1200,173,1,1199,hope,47203,2019-10-26_22h12.45.853,SurveyExpMetaMem,3.2.3,Win32,60
,,,,,,,,,,,,,,,,,,,,2,1.904999733,6,0.074999809,1,0,1200,665,1,1199,read,47203,2019-10-26_22h12.45.853,SurveyExpMetaMem,3.2.3,Win32,60
,,,,,,,,,,,,,,,,,,,,3,2.139999866,6,0.087999821,1,0,1200,95,1,1199,giggle,47203,2019-10-26_22h12.45.853,SurveyExpMetaMem,3.2.3,Win32,60
,,,,,,,,,,,,,,,,,,,,3,2.164999723,6,0.088999748,1,0,1200,200,1,1199,preach,47203,2019-10-26_22h12.45.853,SurveyExpMetaMem,3.2.3,Win32,60
,,,,,,,,,,,,,,,,,,,,6,2.461999893,2,0.639999866,1,0,1200,983,1,1199,demonic,47203,2019-10-26_22h12.45.853,SurveyExpMetaMem,3.2.3,Win32,60
,,,,,,,,,,,,,,,,,,,,6,7.821999788,4,0.406999826,1,0,1200,1041,1,1199,sin,47203,2019-10-26_22h12.45.853,SurveyExpMetaMem,3.2.3,Win32,60
,,,,,,,,,,,,,,,,,,,,1,2.206999779,5,0.173999786,1,0,1200,719,1,1199,western,47203,2019-10-26_22h12.45.853,SurveyExpMetaMem,3.2.3,Win32,60
,,,,,,,,,,,,,,,,,,,,1,1.183999777,5,0.115999937,1,0,1200,815,1,1199,apple,47203,2019-10-26_22h12.45.853,SurveyExpMetaMem,3.2.3,Win32,60
,,,,,,,,,,,,,,,,,,,,1,0.629999876,5,0.099999666,1,0,1200,789,1,1199,green,47203,2019-10-26_22h12.45.853,SurveyExpMetaMem,3.2.3,Win32,60
,,,,,,,,,,,,,,,,,,,,2,2.472999811,5,0.075000048,1,0,1200,297,1,1199,pleasure,47203,2019-10-26_22h12.45.853,SurveyExpMetaMem,3.2.3,Win32,60
,,,,,,,,,,,,,,,,,,,,3,5.039999962,4,0.395999908,1,0,1200,343,1,1199,fever,47203,2019-10-26_22h12.45.853,SurveyExpMetaMem,3.2.3,Win32,60
,,,,,,,,,,,,,,,,,,,,1,10.94099975,5,0.147000074,1,0,1200,699,1,1199,leg,47203,2019-10-26_22h12.45.853,SurveyExpMetaMem,3.2.3,Win32,60
,,,,,,,,,,,,,,,,,,,,2,2.620999813,5,0.135999918,1,0,1200,540,1,1199,derelict,47203,2019-10-26_22h12.45.853,SurveyExpMetaMem,3.2.3,Win32,60
,,,,,,,,,,,,,,,,,,,,2,3.759999752,6,0.12899971,1,0,1200,638,1,1199,quench,47203,2019-10-26_22h12.45.853,SurveyExpMetaMem,3.2.3,Win32,60
,,,,,,,,,,,,,,,,,,,,1,2.25999999,5,0.14199996,1,0,1200,125,1,1199,dancing,47203,2019-10-26_22h12.45.853,SurveyExpMetaMem,3.2.3,Win32,60
,,,,,,,,,,,,,,,,,,,,1,2.127999783,5,0.123999834,1,0,1200,154,1,1199,race,47203,2019-10-26_22h12.45.853,SurveyExpMetaMem,3.2.3,Win32,60
,,,,,,,,,,,,,,,,,,,,7,2.963999748,2,1.339999914,1,0,1200,945,1,1199,demon,47203,2019-10-26_22h12.45.853,SurveyExpMetaMem,3.2.3,Win32,60
,,,,,,,,,,,,,,,,,,,,4,7.699999809,3,0.177999735,1,0,1200,1101,1,1199,scary,47203,2019-10-26_22h12.45.853,SurveyExpMetaMem,3.2.3,Win32,60
,,,,,,,,,,,,,,,,,,,,3,113.1670001,6,0.163999796,1,0,1200,83,1,1199,appreciative,47203,2019-10-26_22h12.45.853,SurveyExpMetaMem,3.2.3,Win32,60
,,,,,,,,,,,,,,,,,,,,3,1.286999941,6,0.224999905,1,0,1200,884,1,1199,grateful,47203,2019-10-26_22h12.45.853,SurveyExpMetaMem,3.2.3,Win32,60
,,,,,,,,,,,,,,,,,,,,4,2.388999701,4,0.251999855,1,0,1200,330,1,1199,sunburn,47203,2019-10-26_22h12.45.853,SurveyExpMetaMem,3.2.3,Win32,60
,,,,,,,,,,,,,,,,,,,,4,0.009000063,4,0.00999999,1,0,1200,151,1,1199,react,47203,2019-10-26_22h12.45.853,SurveyExpMetaMem,3.2.3,Win32,60
,,,,,,,,,,,,,,,,,,,,3,3.211999893,6,1.606999874,1,0,1200,118,1,1199,conquer,47203,2019-10-26_22h12.45.853,SurveyExpMetaMem,3.2.3,Win32,60
,,,,,,,,,,,,,,,,,,,,2,2.51099968,5,0.275999784,1,0,1200,452,1,1199,scapegoat,47203,2019-10-26_22h12.45.853,SurveyExpMetaMem,3.2.3,Win32,60
,,,,,,,,,,,,,,,,,,,,4,2.828999996,6,7.128999949,1,0,1200,1164,1,1199,battle,47203,2019-10-26_22h12.45.853,SurveyExpMetaMem,3.2.3,Win32,60
,,,,,,,,,,,,,,,,,,,,1,6.65899992,5,0.076999903,1,0,1200,1169,1,1199,enforcement,47203,2019-10-26_22h12.45.853,SurveyExpMetaMem,3.2.3,Win32,60
,,,,,,,,,,,,,,,,,,,,2,3.170999765,6,0.266000032,1,0,1200,1153,1,1199,mangle,47203,2019-10-26_22h12.45.853,SurveyExpMetaMem,3.2.3,Win32,60
,,,,,,,,,,,,,,,,,,,,1,1.051999807,6,0.099999905,1,0,1200,681,1,1199,fig,47203,2019-10-26_22h12.45.853,SurveyExpMetaMem,3.2.3,Win32,60
,,,,,,,,,,,,,,,,,,,,1,1.369999886,6,0.123999834,1,0,1200,507,1,1199,smudge,47203,2019-10-26_22h12.45.853,SurveyExpMetaMem,3.2.3,Win32,60
,,,,,,,,,,,,,,,,,,,,1,0.865999937,6,0.070999861,1,0,1200,516,1,1199,smug,47203,2019-10-26_22h12.45.853,SurveyExpMetaMem,3.2.3,Win32,60
,,,,,,,,,,,,,,,,,,,,1,0.753999949,6,0.072000027,1,0,1200,143,1,1199,weekend,47203,2019-10-26_22h12.45.853,SurveyExpMetaMem,3.2.3,Win32,60
,,,,,,,,,,,,,,,,,,,,3,2.593999863,4,0.052999973,1,0,1200,902,1,1199,rejected,47203,2019-10-26_22h12.45.853,SurveyExpMetaMem,3.2.3,Win32,60
,,,,,,,,,,,,,,,,,,,,2,3.65299964,5,0.071999788,1,0,1200,692,1,1199,medicine,47203,2019-10-26_22h12.45.853,SurveyExpMetaMem,3.2.3,Win32,60
,,,,,,,,,,,,,,,,,,,,3,2.529999971,6,2.256999731,1,0,1200,185,1,1199,flirt,47203,2019-10-26_22h12.45.853,SurveyExpMetaMem,3.2.3,Win32,60
,,,,,,,,,,,,,,,,,,,,6,4.734999895,4,9.110999823,1,0,1200,969,1,1199,whore,47203,2019-10-26_22h12.45.853,SurveyExpMetaMem,3.2.3,Win32,60
,,,,,,,,,,,,,,,,,,,,2,7.406999826,4,0.092000008,1,0,1200,1017,1,1199,aggravated,47203,2019-10-26_22h12.45.853,SurveyExpMetaMem,3.2.3,Win32,60
,,,,,,,,,,,,,,,,,,,,3,2.353999853,4,0.178999901,1,0,1200,54,1,1199,alcohol,47203,2019-10-26_22h12.45.853,SurveyExpMetaMem,3.2.3,Win32,60
,,,,,,,,,,,,,,,,,,,,3,1.802999973,4,0.472999811,1,0,1200,1138,1,1199,wail,47203,2019-10-26_22h12.45.853,SurveyExpMetaMem,3.2.3,Win32,60
,,,,,,,,,,,,,,,,,,,,3,3.09499979,6,0.104999781,1,0,1200,866,1,1199,haven,47203,2019-10-26_22h12.45.853,SurveyExpMetaMem,3.2.3,Win32,60
,,,,,,,,,,,,,,,,,,,,3,15.08899975,4,0.287999868,1,0,1200,350,1,1199,inadequate,47203,2019-10-26_22h12.45.853,SurveyExpMetaMem,3.2.3,Win32,60
,,,,,,,,,,,,,,,,,,,,2,1.658999681,5,0.123999834,1,0,1200,100,1,1199,intense,47203,2019-10-26_22h12.45.853,SurveyExpMetaMem,3.2.3,Win32,60
,,,,,,,,,,,,,,,,,,,,2,1.790999889,5,0.092999935,1,0,1200,525,1,1199,stagnant,47203,2019-10-26_22h12.45.853,SurveyExpMetaMem,3.2.3,Win32,60
,,,,,,,,,,,,,,,,,,,,3,4.761999846,6,0.422999859,1,0,1200,268,1,1199,tickle,47203,2019-10-26_22h12.45.853,SurveyExpMetaMem,3.2.3,Win32,60
,,,,,,,,,,,,,,,,,,,,1,3.998999834,5,0.087999821,1,0,1200,514,1,1199,defer,47203,2019-10-26_22h12.45.853,SurveyExpMetaMem,3.2.3,Win32,60
,,,,,,,,,,,,,,,,,,,,2,1.757999897,4,0.147999763,1,0,1200,1161,1,1199,shock,47203,2019-10-26_22h12.45.853,SurveyExpMetaMem,3.2.3,Win32,60
,,,,,,,,,,,,,,,,,,,,1,2.206999779,5,0.073999882,1,0,1200,580,1,1199,fur,47203,2019-10-26_22h12.45.853,SurveyExpMetaMem,3.2.3,Win32,60
,,,,,,,,,,,,,,,,,,,,2,2.42599988,6,0.500999928,1,0,1200,195,1,1199,laughing,47203,2019-10-26_22h12.45.853,SurveyExpMetaMem,3.2.3,Win32,60
,,,,,,,,,,,,,,,,,,,,1,10.70299983,5,0.144999743,1,0,1200,893,1,1199,nature,47203,2019-10-26_22h12.45.853,SurveyExpMetaMem,3.2.3,Win32,60
,,,,,,,,,,,,,,,,,,,,1,13.13199997,5,0.116999865,1,0,1200,755,1,1199,soap,47203,2019-10-26_22h12.45.853,SurveyExpMetaMem,3.2.3,Win32,60
,,,,,,,,,,,,,,,,,,,,1,0.756999731,5,0.129999638,1,0,1200,598,1,1199,feet,47203,2019-10-26_22h12.45.853,SurveyExpMetaMem,3.2.3,Win32,60
,,,,,,,,,,,,,,,,,,,,1,0.806999922,5,0.09800005,1,0,1200,587,1,1199,dissolve,47203,2019-10-26_22h12.45.853,SurveyExpMetaMem,3.2.3,Win32,60
,,,,,,,,,,,,,,,,,,,,1,0.89199996,5,0.045999765,1,0,1200,476,1,1199,warden,47203,2019-10-26_22h12.45.853,SurveyExpMetaMem,3.2.3,Win32,60
,,,,,,,,,,,,,,,,,,,,2,2.813999891,3,0.591999769,1,0,1200,976,1,1199,tumor,47203,2019-10-26_22h12.45.853,SurveyExpMetaMem,3.2.3,Win32,60
,,,,,,,,,,,,,,,,,,,,1,1.244999886,5,0.140999794,1,0,1200,152,1,1199,hire,47203,2019-10-26_22h12.45.853,SurveyExpMetaMem,3.2.3,Win32,60
,,,,,,,,,,,,,,,,,,,,1,0.815999985,5,0.086999893,1,0,1200,86,1,1199,talent,47203,2019-10-26_22h12.45.853,SurveyExpMetaMem,3.2.3,Win32,60
,,,,,,,,,,,,,,,,,,,,1,0.775999784,5,0.06799984,1,0,1200,754,1,1199,reflection,47203,2019-10-26_22h12.45.853,SurveyExpMetaMem,3.2.3,Win32,60
,,,,,,,,,,,,,,,,,,,,1,0.625999689,5,0.090999842,1,0,1200,695,1,1199,teacher,47203,2019-10-26_22h12.45.853,SurveyExpMetaMem,3.2.3,Win32,60
,,,,,,,,,,,,,,,,,,,,1,0.590999842,5,0.098999739,1,0,1200,219,1,1199,know,47203,2019-10-26_22h12.45.853,SurveyExpMetaMem,3.2.3,Win32,60
,,,,,,,,,,,,,,,,,,,,1,0.568999767,5,0.021999836,1,0,1200,438,1,1199,dull,47203,2019-10-26_22h12.45.853,SurveyExpMetaMem,3.2.3,Win32,60
,,,,,,,,,,,,,,,,,,,,2,1.752999783,4,0.206999779,1,0,1200,971,1,1199,crash,47203,2019-10-26_22h12.45.853,SurveyExpMetaMem,3.2.3,Win32,60
,,,,,,,,,,,,,,,,,,,,2,1.887999773,4,0.079999924,1,0,1200,449,1,1199,egotistical,47203,2019-10-26_22h12.45.853,SurveyExpMetaMem,3.2.3,Win32,60
,,,,,,,,,,,,,,,,,,,,2,3.014999866,6,0.330999851,1,0,1200,892,1,1199,untroubled,47203,2019-10-26_22h12.45.853,SurveyExpMetaMem,3.2.3,Win32,60
,,,,,,,,,,,,,,,,,,,,4,2.455999851,7,0.138999701,1,0,1200,877,1,1199,bless,47203,2019-10-26_22h12.45.853,SurveyExpMetaMem,3.2.3,Win32,60
,,,,,,,,,,,,,,,,,,,,4,1.888999939,6,0.124999762,1,0,1200,889,1,1199,wise,47203,2019-10-26_22h12.45.853,SurveyExpMetaMem,3.2.3,Win32,60
,,,,,,,,,,,,,,,,,,,,4,3.475999832,3,0.297999859,1,0,1200,1134,1,1199,obsessed,47203,2019-10-26_22h12.45.853,SurveyExpMetaMem,3.2.3,Win32,60
,,,,,,,,,,,,,,,,,,,,2,2.121999979,4,0.276999712,1,0,1200,1155,1,1199,tangle,47203,2019-10-26_22h12.45.853,SurveyExpMetaMem,3.2.3,Win32,60
,,,,,,,,,,,,,,,,,,,,1,1.95299983,5,0.057999849,1,0,1200,188,1,1199,profit,47203,2019-10-26_22h12.45.853,SurveyExpMetaMem,3.2.3,Win32,60
,,,,,,,,,,,,,,,,,,,,2,1.892999887,4,0.072000027,1,0,1200,966,1,1199,regretful,47203,2019-10-26_22h12.45.853,SurveyExpMetaMem,3.2.3,Win32,60
,,,,,,,,,,,,,,,,,,,,1,1.314999819,5,0.113999844,1,0,1200,880,1,1199,security,47203,2019-10-26_22h12.45.853,SurveyExpMetaMem,3.2.3,Win32,60
,,,,,,,,,,,,,,,,,,,,3,2.973999739,4,0.17599988,1,0,1200,1005,1,1199,pissed,47203,2019-10-26_22h12.45.853,SurveyExpMetaMem,3.2.3,Win32,60
,,,,,,,,,,,,,,,,,,,,5,14.00999975,4,0.108999968,1,0,1200,347,1,1199,unpleasant,47203,2019-10-26_22h12.45.853,SurveyExpMetaMem,3.2.3,Win32,60
,,,,,,,,,,,,,,,,,,,,2,3.398999929,5,0.437999964,1,0,1200,1077,1,1199,unsure,47203,2019-10-26_22h12.45.853,SurveyExpMetaMem,3.2.3,Win32,60
,,,,,,,,,,,,,,,,,,,,2,1.727999687,4,0.191999912,1,0,1200,454,1,1199,damp,47203,2019-10-26_22h12.45.853,SurveyExpMetaMem,3.2.3,Win32,60
,,,,,,,,,,,,,,,,,,,,2,5.84499979,5,0.312999725,1,0,1200,753,1,1199,patience,47203,2019-10-26_22h12.45.853,SurveyExpMetaMem,3.2.3,Win32,60
,,,,,,,,,,,,,,,,,,,,2,1.792999744,5,0.210999727,1,0,1200,1103,1,1199,mob,47203,2019-10-26_22h12.45.853,SurveyExpMetaMem,3.2.3,Win32,60
,,,,,,,,,,,,,,,,,,,,1,1.345999956,5,0.086999893,1,0,1200,623,1,1199,suburban,47203,2019-10-26_22h12.45.853,SurveyExpMetaMem,3.2.3,Win32,60
,,,,,,,,,,,,,,,,,,,,1,1.025999784,5,0.088999748,1,0,1200,856,1,1199,leisurely,47203,2019-10-26_22h12.45.853,SurveyExpMetaMem,3.2.3,Win32,60
,,,,,,,,,,,,,,,,,,,,1,1.072999716,5,0.113999844,1,0,1200,443,1,1199,incorrect,47203,2019-10-26_22h12.45.853,SurveyExpMetaMem,3.2.3,Win32,60
,,,,,,,,,,,,,,,,,,,,1,1.496999741,5,0.131999969,1,0,1200,215,1,1199,salary,47203,2019-10-26_22h12.45.853,SurveyExpMetaMem,3.2.3,Win32,60
,,,,,,,,,,,,,,,,,,,,2,1.987999916,4,0.105999947,1,0,1200,1086,1,1199,irritate,47203,2019-10-26_22h12.45.853,SurveyExpMetaMem,3.2.3,Win32,60
,,,,,,,,,,,,,,,,,,,,2,1.071999788,4,0.074999809,1,0,1200,1002,1,1199,wounds,47203,2019-10-26_22h12.45.853,SurveyExpMetaMem,3.2.3,Win32,60
,,,,,,,,,,,,,,,,,,,,1,1.065000057,5,0.097999811,1,0,1200,262,1,1199,athletics,47203,2019-10-26_22h12.45.853,SurveyExpMetaMem,3.2.3,Win32,60
,,,,,,,,,,,,,,,,,,,,3,1.962999821,4,0.139999866,1,0,1200,1116,1,1199,emergency,47203,2019-10-26_22h12.45.853,SurveyExpMetaMem,3.2.3,Win32,60
,,,,,,,,,,,,,,,,,,,,3,2.612999916,4,0.123999834,1,0,1200,1131,1,1199,envious,47203,2019-10-26_22h12.45.853,SurveyExpMetaMem,3.2.3,Win32,60
,,,,,,,,,,,,,,,,,,,,2,3.818999767,6,0.323999882,1,0,1200,708,1,1199,nursery,47203,2019-10-26_22h12.45.853,SurveyExpMetaMem,3.2.3,Win32,60
,,,,,,,,,,,,,,,,,,,,1,3.704999924,5,0.0849998,1,0,1200,626,1,1199,pan,47203,2019-10-26_22h12.45.853,SurveyExpMetaMem,3.2.3,Win32,60
,,,,,,,,,,,,,,,,,,,,1,1.006999969,5,0.107999802,1,0,1200,1197,1,1199,command,47203,2019-10-26_22h12.45.853,SurveyExpMetaMem,3.2.3,Win32,60
,,,,,,,,,,,,,,,,,,,,2,5.358999729,5,0.086999893,1,0,1200,803,1,1199,tidy,47203,2019-10-26_22h12.45.853,SurveyExpMetaMem,3.2.3,Win32,60
,,,,,,,,,,,,,,,,,,,,2,2.751999855,4,0.305000067,1,0,1200,484,1,1199,leave,47203,2019-10-26_22h12.45.853,SurveyExpMetaMem,3.2.3,Win32,60
,,,,,,,,,,,,,,,,,,,,3,2.22699976,4,0.290999651,1,0,1200,926,1,1199,dead,47203,2019-10-26_22h12.45.853,SurveyExpMetaMem,3.2.3,Win32,60
,,,,,,,,,,,,,,,,,,,,3,1.121999979,4,0.09499979,1,0,1200,361,1,1199,glum,47203,2019-10-26_22h12.45.853,SurveyExpMetaMem,3.2.3,Win32,60
,,,,,,,,,,,,,,,,,,,,2,1.781999826,4,0.108999729,1,0,1200,1133,1,1199,slip,47203,2019-10-26_22h12.45.853,SurveyExpMetaMem,3.2.3,Win32,60
,,,,,,,,,,,,,,,,,,,,2,4.326999903,5,0.150999784,1,0,1200,85,1,1199,like,47203,2019-10-26_22h12.45.853,SurveyExpMetaMem,3.2.3,Win32,60
,,,,,,,,,,,,,,,,,,,,2,2.001999855,4,0.128999949,1,0,1200,567,1,1199,folly,47203,2019-10-26_22h12.45.853,SurveyExpMetaMem,3.2.3,Win32,60
,,,,,,,,,,,,,,,,,,,,3,8.656999826,4,0.095999956,1,0,1200,1057,1,1199,deceit,47203,2019-10-26_22h12.45.853,SurveyExpMetaMem,3.2.3,Win32,60
,,,,,,,,,,,,,,,,,,,,1,1.071999788,5,0.160999775,1,0,1200,698,1,1199,oven,47203,2019-10-26_22h12.45.853,SurveyExpMetaMem,3.2.3,Win32,60
,,,,,,,,,,,,,,,,,,,,2,1.305999756,4,0.156999826,1,0,1200,960,1,1199,irritated,47203,2019-10-26_22h12.45.853,SurveyExpMetaMem,3.2.3,Win32,60
,,,,,,,,,,,,,,,,,,,,2,2.66899991,4,0.072999954,1,0,1200,934,1,1199,sob,47203,2019-10-26_22h12.45.853,SurveyExpMetaMem,3.2.3,Win32,60
,,,,,,,,,,,,,,,,,,,,2,1.196999788,4,0.090999842,1,0,1200,307,1,1199,sick,47203,2019-10-26_22h12.45.853,SurveyExpMetaMem,3.2.3,Win32,60
,,,,,,,,,,,,,,,,,,,,1,0.955999851,5,0.207999945,1,0,1200,709,1,1199,ancestor,47203,2019-10-26_22h12.45.853,SurveyExpMetaMem,3.2.3,Win32,60
,,,,,,,,,,,,,,,,,,,,1,0.858999729,5,0.080999851,1,0,1200,765,1,1199,candid,47203,2019-10-26_22h12.45.853,SurveyExpMetaMem,3.2.3,Win32,60
,,,,,,,,,,,,,,,,,,,,2,1.178999901,4,0.32799983,1,0,1200,389,1,1199,gloomy,47203,2019-10-26_22h12.45.853,SurveyExpMetaMem,3.2.3,Win32,60
,,,,,,,,,,,,,,,,,,,,1,1.171999931,5,0.152999878,1,0,1200,663,1,1199,trout,47203,2019-10-26_22h12.45.853,SurveyExpMetaMem,3.2.3,Win32,60
,,,,,,,,,,,,,,,,,,,,1,0.858999729,5,0.085000038,1,0,1200,534,1,1199,rules,47203,2019-10-26_22h12.45.853,SurveyExpMetaMem,3.2.3,Win32,60
,,,,,,,,,,,,,,,,,,,,1,3.187999725,5,0.107999802,1,0,1200,764,1,1199,coin,47203,2019-10-26_22h12.45.853,SurveyExpMetaMem,3.2.3,Win32,60
,,,,,,,,,,,,,,,,,,,,1,0.716999769,5,0.092000008,1,0,1200,864,1,1199,blanket,47203,2019-10-26_22h12.45.853,SurveyExpMetaMem,3.2.3,Win32,60
,,,,,,,,,,,,,,,,,,,,1,0.792999983,5,0.128000021,1,0,1200,676,1,1199,straighten,47203,2019-10-26_22h12.45.853,SurveyExpMetaMem,3.2.3,Win32,60
,,,,,,,,,,,,,,,,,,,,1,1.217999935,5,0.109999895,1,0,1200,746,1,1199,proper,47203,2019-10-26_22h12.45.853,SurveyExpMetaMem,3.2.3,Win32,60
,,,,,,,,,,,,,,,,,,,,2,2.637999773,4,0.07799983,1,0,1200,1198,1,1199,lightning,47203,2019-10-26_22h12.45.853,SurveyExpMetaMem,3.2.3,Win32,60
,,,,,,,,,,,,,,,,,,,,2,3.488999844,6,0.490999699,1,0,1200,58,1,1199,boost,47203,2019-10-26_22h12.45.853,SurveyExpMetaMem,3.2.3,Win32,60
,,,,,,,,,,,,,,,,,,,,2,2.919999838,6,0.091999769,1,0,1200,225,1,1199,strong,47203,2019-10-26_22h12.45.853,SurveyExpMetaMem,3.2.3,Win32,60
,,,,,,,,,,,,,,,,,,,,3,2.139999628,4,0.41899991,1,0,1200,995,1,1199,cult,47203,2019-10-26_22h12.45.853,SurveyExpMetaMem,3.2.3,Win32,60
,,,,,,,,,,,,,,,,,,,,4,3.564999819,4,0.224999905,1,0,1200,773,1,1199,rational,47203,2019-10-26_22h12.45.853,SurveyExpMetaMem,3.2.3,Win32,60
,,,,,,,,,,,,,,,,,,,,4,5.171999693,6,0.268999815,1,0,1200,44,1,1199,diploma,47203,2019-10-26_22h12.45.853,SurveyExpMetaMem,3.2.3,Win32,60
,,,,,,,,,,,,,,,,,,,,4,4.990999937,5,1.184999704,1,0,1200,253,1,1199,soldier,47203,2019-10-26_22h12.45.853,SurveyExpMetaMem,3.2.3,Win32,60
,,,,,,,,,,,,,,,,,,,,4,2.690000057,4,0.35199976,1,0,1200,973,1,1199,anger,47203,2019-10-26_22h12.45.853,SurveyExpMetaMem,3.2.3,Win32,60
,,,,,,,,,,,,,,,,,,,,1,6.645999908,5,0.157999754,1,0,1200,621,1,1199,chew,47203,2019-10-26_22h12.45.853,SurveyExpMetaMem,3.2.3,Win32,60
,,,,,,,,,,,,,,,,,,,,1,0.803999901,5,0.107999802,1,0,1200,609,1,1199,candlestick,47203,2019-10-26_22h12.45.853,SurveyExpMetaMem,3.2.3,Win32,60
,,,,,,,,,,,,,,,,,,,,2,1.858999729,4,0.144999981,1,0,1200,1098,1,1199,confused,47203,2019-10-26_22h12.45.853,SurveyExpMetaMem,3.2.3,Win32,60
,,,,,,,,,,,,,,,,,,,,2,1.038999796,4,0.144999743,1,0,1200,1088,1,1199,forbid,47203,2019-10-26_22h12.45.853,SurveyExpMetaMem,3.2.3,Win32,60
,,,,,,,,,,,,,,,,,,,,2,1.852999926,4,0.144999981,1,0,1200,381,1,1199,sloppy,47203,2019-10-26_22h12.45.853,SurveyExpMetaMem,3.2.3,Win32,60
,,,,,,,,,,,,,,,,,,,,2,1.441999912,4,0.108999729,1,0,1200,1076,1,1199,embarrassed,47203,2019-10-26_22h12.45.853,SurveyExpMetaMem,3.2.3,Win32,60
,,,,,,,,,,,,,,,,,,,,2,1.899999857,4,0.114999771,1,0,1200,592,1,1199,sweep,47203,2019-10-26_22h12.45.853,SurveyExpMetaMem,3.2.3,Win32,60
,,,,,,,,,,,,,,,,,,,,3,1.539999962,3,1.121999979,1,0,1200,1068,1,1199,riot,47203,2019-10-26_22h12.45.853,SurveyExpMetaMem,3.2.3,Win32,60
,,,,,,,,,,,,,,,,,,,,3,1.242999792,3,0.352999926,1,0,1200,953,1,1199,victim,47203,2019-10-26_22h12.45.853,SurveyExpMetaMem,3.2.3,Win32,60
,,,,,,,,,,,,,,,,,,,,1,3.151999712,5,0.125,1,0,1200,280,1,1199,cookout,47203,2019-10-26_22h12.45.853,SurveyExpMetaMem,3.2.3,Win32,60
,,,,,,,,,,,,,,,,,,,,1,1.138999939,5,0.093999863,1,0,1200,563,1,1199,stupor,47203,2019-10-26_22h12.45.853,SurveyExpMetaMem,3.2.3,Win32,60
,,,,,,,,,,,,,,,,,,,,1,1.106999874,5,0.059999704,1,0,1200,1105,1,1199,flee,47203,2019-10-26_22h12.45.853,SurveyExpMetaMem,3.2.3,Win32,60
,,,,,,,,,,,,,,,,,,,,1,1.167000055,5,0.07799983,1,0,1200,261,1,1199,windsurfers,47203,2019-10-26_22h12.45.853,SurveyExpMetaMem,3.2.3,Win32,60
,,,,,,,,,,,,,,,,,,,,2,1.974999905,4,0.108999968,1,0,1200,958,1,1199,traitor,47203,2019-10-26_22h12.45.853,SurveyExpMetaMem,3.2.3,Win32,60
,,,,,,,,,,,,,,,,,,,,2,6.980999947,5,0.956999779,1,0,1200,528,1,1199,dirt,47203,2019-10-26_22h12.45.853,SurveyExpMetaMem,3.2.3,Win32,60
,,,,,,,,,,,,,,,,,,,,3,2.063999891,4,0.296999931,1,0,1200,943,1,1199,trauma,47203,2019-10-26_22h12.45.853,SurveyExpMetaMem,3.2.3,Win32,60
,,,,,,,,,,,,,,,,,,,,1,2.825999975,5,0.14199996,1,0,1200,569,1,1199,onion,47203,2019-10-26_22h12.45.853,SurveyExpMetaMem,3.2.3,Win32,60
,,,,,,,,,,,,,,,,,,,,1,1.437999725,5,0.105999708,1,0,1200,566,1,1199,obscure,47203,2019-10-26_22h12.45.853,SurveyExpMetaMem,3.2.3,Win32,60
,,,,,,,,,,,,,,,,,,,,1,1.15899992,5,0.072999716,1,0,1200,1097,1,1199,bees,47203,2019-10-26_22h12.45.853,SurveyExpMetaMem,3.2.3,Win32,60
,,,,,,,,,,,,,,,,,,,,1,0.809999943,5,0.056999922,1,0,1200,834,1,1199,crown,47203,2019-10-26_22h12.45.853,SurveyExpMetaMem,3.2.3,Win32,60
,,,,,,,,,,,,,,,,,,,,1,1.024999857,5,0.008999825,1,0,1200,913,1,1199,ulcer,47203,2019-10-26_22h12.45.853,SurveyExpMetaMem,3.2.3,Win32,60
,,,,,,,,,,,,,,,,,,,,1,0.954999924,5,0.029999733,1,0,1200,790,1,1199,binoculars,47203,2019-10-26_22h12.45.853,SurveyExpMetaMem,3.2.3,Win32,60
,,,,,,,,,,,,,,,,,,,,1,0.819000006,5,0.036000013,1,0,1200,496,1,1199,slow,47203,2019-10-26_22h12.45.853,SurveyExpMetaMem,3.2.3,Win32,60
,,,,,,,,,,,,,,,,,,,,1,3.918999672,5,0.086999893,1,0,1200,1199,1,1199,expensive,47203,2019-10-26_22h12.45.853,SurveyExpMetaMem,3.2.3,Win32,60
,,,,,,,,,,,,,,,,,,,,1,1.889999866,5,0.054999828,1,0,1200,482,1,1199,cell,47203,2019-10-26_22h12.45.853,SurveyExpMetaMem,3.2.3,Win32,60
,,,,,,,,,,,,,,,,,,,,2,3.323999882,5,0.089999914,1,0,1200,827,1,1199,saint,47203,2019-10-26_22h12.45.853,SurveyExpMetaMem,3.2.3,Win32,60
,,,,,,,,,,,,,,,,,,,,2,4.233999968,5,0.079999924,1,0,1200,837,1,1199,responsible,47203,2019-10-26_22h12.45.853,SurveyExpMetaMem,3.2.3,Win32,60
,,,,,,,,,,,,,,,,,,,,3,1.625,4,0.238999844,1,0,1200,483,1,1199,condescension,47203,2019-10-26_22h12.45.853,SurveyExpMetaMem,3.2.3,Win32,60
,,,,,,,,,,,,,,,,,,,,2,2.973999977,6,0.203999758,1,0,1200,867,1,1199,relaxed,47203,2019-10-26_22h12.45.853,SurveyExpMetaMem,3.2.3,Win32,60
,,,,,,,,,,,,,,,,,,,,1,1.156999826,5,0.138999939,1,0,1200,617,1,1199,tomato,47203,2019-10-26_22h12.45.853,SurveyExpMetaMem,3.2.3,Win32,60
,,,,,,,,,,,,,,,,,,,,2,1.859999657,6,0.008999825,1,0,1200,735,1,1199,tea,47203,2019-10-26_22h12.45.853,SurveyExpMetaMem,3.2.3,Win32,60
,,,,,,,,,,,,,,,,,,,,2,0.065999746,1,18.93999982,1,0,1200,18,1,1199,mail,47203,2019-10-26_22h12.45.853,SurveyExpMetaMem,3.2.3,Win32,60
,,,,,,,,,,,,,,,,,,,,5,0.453999758,4,2.934999943,1,0,1200,382,1,1199,vulnerable,47203,2019-10-26_22h12.45.853,SurveyExpMetaMem,3.2.3,Win32,60
,,,,,,,,,,,,,,,,,,,,3,4.789999962,4,0.250999689,1,0,1200,1061,1,1199,difficult,47203,2019-10-26_22h12.45.853,SurveyExpMetaMem,3.2.3,Win32,60
,,,,,,,,,,,,,,,,,,,,4,7.232999802,4,0.291999817,1,0,1200,481,1,1199,melancholy,47203,2019-10-26_22h12.45.853,SurveyExpMetaMem,3.2.3,Win32,60
,,,,,,,,,,,,,,,,,,,,1,2.988999844,5,0.139999866,1,0,1200,518,1,1199,report,47203,2019-10-26_22h12.45.853,SurveyExpMetaMem,3.2.3,Win32,60
,,,,,,,,,,,,,,,,,,,,2,3.944999933,6,0.361000061,1,0,1200,822,1,1199,clearer,47203,2019-10-26_22h12.45.853,SurveyExpMetaMem,3.2.3,Win32,60
,,,,,,,,,,,,,,,,,,,,1,4.272999763,5,0.2099998,1,0,1200,713,1,1199,mobile,47203,2019-10-26_22h12.45.853,SurveyExpMetaMem,3.2.3,Win32,60
,,,,,,,,,,,,,,,,,,,,2,1.598999739,6,0.20299983,1,0,1200,196,1,1199,smile,47203,2019-10-26_22h12.45.853,SurveyExpMetaMem,3.2.3,Win32,60
,,,,,,,,,,,,,,,,,,,,2,1.087999821,6,0.158999681,1,0,1200,258,1,1199,children,47203,2019-10-26_22h12.45.853,SurveyExpMetaMem,3.2.3,Win32,60
,,,,,,,,,,,,,,,,,,,,2,1.487999916,6,0.131000042,1,0,1200,769,1,1199,relate,47203,2019-10-26_22h12.45.853,SurveyExpMetaMem,3.2.3,Win32,60
,,,,,,,,,,,,,,,,,,,,3,4.204999924,4,0.188999891,1,0,1200,344,1,1199,pessimistic,47203,2019-10-26_22h12.45.853,SurveyExpMetaMem,3.2.3,Win32,60
,,,,,,,,,,,,,,,,,,,,2,2.756999969,5,0.136999846,1,0,1200,519,1,1199,listless,47203,2019-10-26_22h12.45.853,SurveyExpMetaMem,3.2.3,Win32,60
,,,,,,,,,,,,,,,,,,,,1,1.462999821,5,0.129999638,1,0,1200,825,1,1199,swan,47203,2019-10-26_22h12.45.853,SurveyExpMetaMem,3.2.3,Win32,60
,,,,,,,,,,,,,,,,,,,,2,1.809999943,4,0.121999979,1,0,1200,559,1,1199,lazy,47203,2019-10-26_22h12.45.853,SurveyExpMetaMem,3.2.3,Win32,60
,,,,,,,,,,,,,,,,,,,,1,1.947999716,5,0.198999643,1,0,1200,165,1,1199,sizzle,47203,2019-10-26_22h12.45.853,SurveyExpMetaMem,3.2.3,Win32,60
,,,,,,,,,,,,,,,,,,,,2,2.259999752,6,0.355999947,1,0,1200,174,1,1199,snow,47203,2019-10-26_22h12.45.853,SurveyExpMetaMem,3.2.3,Win32,60
,,,,,,,,,,,,,,,,,,,,1,2.257999897,5,0.215999842,1,0,1200,701,1,1199,telephone,47203,2019-10-26_22h12.45.853,SurveyExpMetaMem,3.2.3,Win32,60
,,,,,,,,,,,,,,,,,,,,1,1.188999891,5,0.110999823,1,0,1200,693,1,1199,key,47203,2019-10-26_22h12.45.853,SurveyExpMetaMem,3.2.3,Win32,60
,,,,,,,,,,,,,,,,,,,,1,0.843999863,5,0.105999708,1,0,1200,222,1,1199,waterskiing,47203,2019-10-26_22h12.45.853,SurveyExpMetaMem,3.2.3,Win32,60
,,,,,,,,,,,,,,,,,,,,2,1.571999788,4,0.086999893,1,0,1200,101,1,1199,alien,47203,2019-10-26_22h12.45.853,SurveyExpMetaMem,3.2.3,Win32,60
,,,,,,,,,,,,,,,,,,,,2,4.338999748,4,0.149999857,1,0,1200,487,1,1199,junk,47203,2019-10-26_22h12.45.853,SurveyExpMetaMem,3.2.3,Win32,60
,,,,,,,,,,,,,,,,,,,,2,1.178999901,4,0.123999834,1,0,1200,938,1,1199,seasick,47203,2019-10-26_22h12.45.853,SurveyExpMetaMem,3.2.3,Win32,60
,,,,,,,,,,,,,,,,,,,,1,1.640999794,5,0.112999916,1,0,1200,820,1,1199,oxygen,47203,2019-10-26_22h12.45.853,SurveyExpMetaMem,3.2.3,Win32,60
,,,,,,,,,,,,,,,,,,,,2,5.78099966,4,0.140999794,1,0,1200,1136,1,1199,appall,47203,2019-10-26_22h12.45.853,SurveyExpMetaMem,3.2.3,Win32,60
,,,,,,,,,,,,,,,,,,,,2,1.244999886,5,1.305999756,1,0,1200,146,1,1199,congratulations,47203,2019-10-26_22h12.45.853,SurveyExpMetaMem,3.2.3,Win32,60
,,,,,,,,,,,,,,,,,,,,2,2.892999887,4,0.054999828,1,0,1200,420,1,1199,smoke,47203,2019-10-26_22h12.45.853,SurveyExpMetaMem,3.2.3,Win32,60
,,,,,,,,,,,,,,,,,,,,2,1.343999863,4,0.061999798,1,0,1200,1119,1,1199,confusion,47203,2019-10-26_22h12.45.853,SurveyExpMetaMem,3.2.3,Win32,60
,,,,,,,,,,,,,,,,,,,,2,2.711999893,4,0.122999907,1,0,1200,269,1,1199,extravagant,47203,2019-10-26_22h12.45.853,SurveyExpMetaMem,3.2.3,Win32,60
,,,,,,,,,,,,,,,,,,,,2,3.056999683,4,0.100999832,1,0,1200,509,1,1199,ash,47203,2019-10-26_22h12.45.853,SurveyExpMetaMem,3.2.3,Win32,60
,,,,,,,,,,,,,,,,,,,,2,1.194999933,4,0.105999947,1,0,1200,1074,1,1199,detain,47203,2019-10-26_22h12.45.853,SurveyExpMetaMem,3.2.3,Win32,60
,,,,,,,,,,,,,,,,,,,,3,1.528999805,4,0.073999882,1,0,1200,326,1,1199,scam,47203,2019-10-26_22h12.45.853,SurveyExpMetaMem,3.2.3,Win32,60
,,,,,,,,,,,,,,,,,,,,3,1.846999884,4,0.073999882,1,0,1200,937,1,1199,prison,47203,2019-10-26_22h12.45.853,SurveyExpMetaMem,3.2.3,Win32,60
,,,,,,,,,,,,,,,,,,,,3,2.246999979,4,0.097999811,1,0,1200,1154,1,1199,politics,47203,2019-10-26_22h12.45.853,SurveyExpMetaMem,3.2.3,Win32,60
,,,,,,,,,,,,,,,,,,,,3,1.811999798,6,0.332999706,1,0,1200,239,1,1199,compassionate,47203,2019-10-26_22h12.45.853,SurveyExpMetaMem,3.2.3,Win32,60
,,,,,,,,,,,,,,,,,,,,3,2.803999662,4,0.198999882,1,0,1200,434,1,1199,frail,47203,2019-10-26_22h12.45.853,SurveyExpMetaMem,3.2.3,Win32,60
,,,,,,,,,,,,,,,,,,,,3,3.621000051,4,0.088999748,1,0,1200,1194,1,1199,obsession,47203,2019-10-26_22h12.45.853,SurveyExpMetaMem,3.2.3,Win32,60
,,,,,,,,,,,,,,,,,,,,3,1.624999762,6,0.125999928,1,0,1200,273,1,1199,worthwhile,47203,2019-10-26_22h12.45.853,SurveyExpMetaMem,3.2.3,Win32,60
,,,,,,,,,,,,,,,,,,,,3,1.453999996,4,0.460999966,1,0,1200,477,1,1199,separate,47203,2019-10-26_22h12.45.853,SurveyExpMetaMem,3.2.3,Win32,60
,,,,,,,,,,,,,,,,,,,,4,3.255999804,4,0.267999887,1,0,1200,335,1,1199,decay,47203,2019-10-26_22h12.45.853,SurveyExpMetaMem,3.2.3,Win32,60
,,,,,,,,,,,,,,,,,,,,3,5.581999779,4,0.080999851,1,0,1200,497,1,1199,pungent,47203,2019-10-26_22h12.45.853,SurveyExpMetaMem,3.2.3,Win32,60
,,,,,,,,,,,,,,,,,,,,2,3.757999897,5,0.425999641,1,0,1200,251,1,1199,meteor,47203,2019-10-26_22h12.45.853,SurveyExpMetaMem,3.2.3,Win32,60
,,,,,,,,,,,,,,,,,,,,3,13.67599964,3,0.138000011,1,0,1200,1037,1,1199,scared,47203,2019-10-26_22h12.45.853,SurveyExpMetaMem,3.2.3,Win32,60
,,,,,,,,,,,,,,,,,,,,3,3.604999781,6,0.25399971,1,0,1200,26,1,1199,inspired,47203,2019-10-26_22h12.45.853,SurveyExpMetaMem,3.2.3,Win32,60
,,,,,,,,,,,,,,,,,,,,3,2.148000002,4,0.073999643,1,0,1200,126,1,1199,rich,47203,2019-10-26_22h12.45.853,SurveyExpMetaMem,3.2.3,Win32,60
,,,,,,,,,,,,,,,,,,,,2,2.697999716,4,1.004999638,1,0,1200,393,1,1199,droop,47203,2019-10-26_22h12.45.853,SurveyExpMetaMem,3.2.3,Win32,60
,,,,,,,,,,,,,,,,,,,,1,1.688999891,5,0.246999979,1,0,1200,650,1,1199,native,47203,2019-10-26_22h12.45.853,SurveyExpMetaMem,3.2.3,Win32,60
,,,,,,,,,,,,,,,,,,,,1,1.287999868,5,0.305999756,1,0,1200,782,1,1199,open,47203,2019-10-26_22h12.45.853,SurveyExpMetaMem,3.2.3,Win32,60
,,,,,,,,,,,,,,,,,,,,1,0.676999807,5,0.11899972,1,0,1200,249,1,1199,award,47203,2019-10-26_22h12.45.853,SurveyExpMetaMem,3.2.3,Win32,60
,,,,,,,,,,,,,,,,,,,,2,2.138999701,6,0.338999748,1,0,1200,732,1,1199,humble,47203,2019-10-26_22h12.45.853,SurveyExpMetaMem,3.2.3,Win32,60
,,,,,,,,,,,,,,,,,,,,2,2.874999762,5,0.280999899,1,0,1200,87,1,1199,cookie,47203,2019-10-26_22h12.45.853,SurveyExpMetaMem,3.2.3,Win32,60
,,,,,,,,,,,,,,,,,,,,2,9.794999838,4,0.121999979,1,0,1200,408,1,1199,bore,47203,2019-10-26_22h12.45.853,SurveyExpMetaMem,3.2.3,Win32,60
,,,,,,,,,,,,,,,,,,,,2,1.847999811,6,1.342999935,1,0,1200,274,1,1199,song,47203,2019-10-26_22h12.45.853,SurveyExpMetaMem,3.2.3,Win32,60
,,,,,,,,,,,,,,,,,,,,2,1.841999769,6,0.127999783,1,0,1200,875,1,1199,fluffy,47203,2019-10-26_22h12.45.853,SurveyExpMetaMem,3.2.3,Win32,60
,,,,,,,,,,,,,,,,,,,,2,1.473999977,6,0.126999855,1,0,1200,186,1,1199,holiday,47203,2019-10-26_22h12.45.853,SurveyExpMetaMem,3.2.3,Win32,60
,,,,,,,,,,,,,,,,,,,,3,18.39799976,5,0.061999798,1,0,1200,968,1,1199,insult,47203,2019-10-26_22h12.45.853,SurveyExpMetaMem,3.2.3,Win32,60
,,,,,,,,,,,,,,,,,,,,2,5.27699995,4,0.147999763,1,0,1200,1013,1,1199,guilty,47203,2019-10-26_22h12.45.853,SurveyExpMetaMem,3.2.3,Win32,60
,,,,,,,,,,,,,,,,,,,,2,4.930999756,4,0.140999794,1,0,1200,1099,1,1199,fire,47203,2019-10-26_22h12.45.853,SurveyExpMetaMem,3.2.3,Win32,60
,,,,,,,,,,,,,,,,,,,,2,2.444999695,6,0.292999983,1,0,1200,876,1,1199,politeness,47203,2019-10-26_22h12.45.853,SurveyExpMetaMem,3.2.3,Win32,60
,,,,,,,,,,,,,,,,,,,,2,3.239999771,5,0.116999865,1,0,1200,573,1,1199,cease,47203,2019-10-26_22h12.45.853,SurveyExpMetaMem,3.2.3,Win32,60
,,,,,,,,,,,,,,,,,,,,2,2.852999926,6,0.357999802,1,0,1200,783,1,1199,sprinkle,47203,2019-10-26_22h12.45.853,SurveyExpMetaMem,3.2.3,Win32,60
,,,,,,,,,,,,,,,,,,,,1,1.367999792,5,0.359999657,1,0,1200,494,1,1199,butcher,47203,2019-10-26_22h12.45.853,SurveyExpMetaMem,3.2.3,Win32,60
,,,,,,,,,,,,,,,,,,,,2,2.247999907,6,0.138000011,1,0,1200,120,1,1199,imaginative,47203,2019-10-26_22h12.45.853,SurveyExpMetaMem,3.2.3,Win32,60
,,,,,,,,,,,,,,,,,,,,1,2.631999969,5,0.298999786,1,0,1200,862,1,1199,ease,47203,2019-10-26_22h12.45.853,SurveyExpMetaMem,3.2.3,Win32,60
,,,,,,,,,,,,,,,,,,,,2,2.603999853,4,0.11199975,1,0,1200,1114,1,1199,foe,47203,2019-10-26_22h12.45.853,SurveyExpMetaMem,3.2.3,Win32,60
,,,,,,,,,,,,,,,,,,,,1,4.041999817,5,0.112999916,1,0,1200,103,1,1199,conquest,47203,2019-10-26_22h12.45.853,SurveyExpMetaMem,3.2.3,Win32,60
,,,,,,,,,,,,,,,,,,,,1,0.656999826,5,0.099999666,1,0,1200,642,1,1199,newspaper,47203,2019-10-26_22h12.45.853,SurveyExpMetaMem,3.2.3,Win32,60
,,,,,,,,,,,,,,,,,,,,1,0.882999897,5,0.103999853,1,0,1200,812,1,1199,harp,47203,2019-10-26_22h12.45.853,SurveyExpMetaMem,3.2.3,Win32,60
,,,,,,,,,,,,,,,,,,,,1,0.688999891,5,0.089999914,1,0,1200,66,1,1199,zest,47203,2019-10-26_22h12.45.853,SurveyExpMetaMem,3.2.3,Win32,60
,,,,,,,,,,,,,,,,,,,,2,2.194999933,6,0.211999893,1,0,1200,244,1,1199,sexy,47203,2019-10-26_22h12.45.853,SurveyExpMetaMem,3.2.3,Win32,60
,,,,,,,,,,,,,,,,,,,,7,5.025999784,3,1.306999922,1,0,1200,900,1,1199,suicide,47203,2019-10-26_22h12.45.853,SurveyExpMetaMem,3.2.3,Win32,60
,,,,,,,,,,,,,,,,,,,,2,3.181999922,6,0.138000011,1,0,1200,212,1,1199,belief,47203,2019-10-26_22h12.45.853,SurveyExpMetaMem,3.2.3,Win32,60
,,,,,,,,,,,,,,,,,,,,3,5.358999968,4,0.31099987,1,0,1200,673,1,1199,bedspread,47203,2019-10-26_22h12.45.853,SurveyExpMetaMem,3.2.3,Win32,60
,,,,,,,,,,,,,,,,,,,,3,1.426999807,4,0.106999874,1,0,1200,418,1,1199,cheapskate,47203,2019-10-26_22h12.45.853,SurveyExpMetaMem,3.2.3,Win32,60
,,,,,,,,,,,,,,,,,,,,3,1.25399971,4,0.109999895,1,0,1200,322,1,1199,widow,47203,2019-10-26_22h12.45.853,SurveyExpMetaMem,3.2.3,Win32,60
,,,,,,,,,,,,,,,,,,,,3,4.795999765,4,0.104999781,1,0,1200,160,1,1199,reunion,47203,2019-10-26_22h12.45.853,SurveyExpMetaMem,3.2.3,Win32,60
,,,,,,,,,,,,,,,,,,,,1,3.403999805,5,0.144999981,1,0,1200,6,1,1199,chest,47203,2019-10-26_22h12.45.853,SurveyExpMetaMem,3.2.3,Win32,60
,,,,,,,,,,,,,,,,,,,,2,2.037999868,6,0.441999912,1,0,1200,229,1,1199,heaven,47203,2019-10-26_22h12.45.853,SurveyExpMetaMem,3.2.3,Win32,60
,,,,,,,,,,,,,,,,,,,,2,5.228999853,6,0.142999887,1,0,1200,31,1,1199,brownie,47203,2019-10-26_22h12.45.853,SurveyExpMetaMem,3.2.3,Win32,60
,,,,,,,,,,,,,,,,,,,,3,3.825999737,4,0.056999922,1,0,1200,1065,1,1199,slap,47203,2019-10-26_22h12.45.853,SurveyExpMetaMem,3.2.3,Win32,60
,,,,,,,,,,,,,,,,,,,,3,6.113999844,3,2.536999941,1,0,1200,1031,1,1199,fear,47203,2019-10-26_22h12.45.853,SurveyExpMetaMem,3.2.3,Win32,60
,,,,,,,,,,,,,,,,,,,,3,0.249999762,3,0.008999825,1,0,1200,780,1,1199,grass,47203,2019-10-26_22h12.45.853,SurveyExpMetaMem,3.2.3,Win32,60
,,,,,,,,,,,,,,,,,,,,3,0.008999825,2,4.79399991,1,0,1200,1182,1,1199,pierce,47203,2019-10-26_22h12.45.853,SurveyExpMetaMem,3.2.3,Win32,60
,,,,,,,,,,,,,,,,,,,,4,0.086999655,2,1.69299984,1,0,1200,554,1,1199,label,47203,2019-10-26_22h12.45.853,SurveyExpMetaMem,3.2.3,Win32,60
,,,,,,,,,,,,,,,,,,,,4,0.045999765,2,0.951999664,1,0,1200,1054,1,1199,jealous,47203,2019-10-26_22h12.45.853,SurveyExpMetaMem,3.2.3,Win32,60
,,,,,,,,,,,,,,,,,,,,4,0.103999853,1,1.06799984,1,0,1200,651,1,1199,bathroom,47203,2019-10-26_22h12.45.853,SurveyExpMetaMem,3.2.3,Win32,60
,,,,,,,,,,,,,,,,,,,,2,10.01399994,4,0.608999729,1,0,1200,383,1,1199,messy,47203,2019-10-26_22h12.45.853,SurveyExpMetaMem,3.2.3,Win32,60
,,,,,,,,,,,,,,,,,,,,2,1.725999832,4,0.112999916,1,0,1200,436,1,1199,mediocre,47203,2019-10-26_22h12.45.853,SurveyExpMetaMem,3.2.3,Win32,60
,,,,,,,,,,,,,,,,,,,,2,3.631999969,4,0.303999901,1,0,1200,309,1,1199,homeless,47203,2019-10-26_22h12.45.853,SurveyExpMetaMem,3.2.3,Win32,60
,,,,,,,,,,,,,,,,,,,,2,1.81099987,5,0.788999796,1,0,1200,290,1,1199,enthusiasm,47203,2019-10-26_22h12.45.853,SurveyExpMetaMem,3.2.3,Win32,60
,,,,,,,,,,,,,,,,,,,,1,2.45299983,5,0.239999771,1,0,1200,285,1,1199,gold,47203,2019-10-26_22h12.45.853,SurveyExpMetaMem,3.2.3,Win32,60
,,,,,,,,,,,,,,,,,,,,5,1.018999815,1,0.056999922,1,0,1200,129,1,1199,fly,47203,2019-10-26_22h12.45.853,SurveyExpMetaMem,3.2.3,Win32,60
,,,,,,,,,,,,,,,,,,,,3,10.01099968,4,0.245999813,1,0,1200,935,1,1199,despise,47203,2019-10-26_22h12.45.853,SurveyExpMetaMem,3.2.3,Win32,60
,,,,,,,,,,,,,,,,,,,,1,2.357999802,5,0.250999928,1,0,1200,739,1,1199,seagull,47203,2019-10-26_22h12.45.853,SurveyExpMetaMem,3.2.3,Win32,60
,,,,,,,,,,,,,,,,,,,,1,1.832999945,5,0.240999699,1,0,1200,691,1,1199,circle,47203,2019-10-26_22h12.45.853,SurveyExpMetaMem,3.2.3,Win32,60
,,,,,,,,,,,,,,,,,,,,2,9.794999838,4,0.565999985,1,0,1200,368,1,1199,dreary,47203,2019-10-26_22h12.45.853,SurveyExpMetaMem,3.2.3,Win32,60
,,,,,,,,,,,,,,,,,,,,1,1.721999884,5,0.331999779,1,0,1200,760,1,1199,shrimp,47203,2019-10-26_22h12.45.853,SurveyExpMetaMem,3.2.3,Win32,60
,,,,,,,,,,,,,,,,,,,,2,2.123999834,4,0.143999815,1,0,1200,399,1,1199,withdrawn,47203,2019-10-26_22h12.45.853,SurveyExpMetaMem,3.2.3,Win32,60
,,,,,,,,,,,,,,,,,,,,3,1.495999813,4,0.123999834,1,0,1200,1064,1,1199,sinful,47203,2019-10-26_22h12.45.853,SurveyExpMetaMem,3.2.3,Win32,60
,,,,,,,,,,,,,,,,,,,,2,2.848999739,6,1.544999838,1,0,1200,55,1,1199,rare,47203,2019-10-26_22h12.45.853,SurveyExpMetaMem,3.2.3,Win32,60
,,,,,,,,,,,,,,,,,,,,1,3.535999775,6,0.267999887,1,0,1200,833,1,1199,nice,47203,2019-10-26_22h12.45.853,SurveyExpMetaMem,3.2.3,Win32,60
,,,,,,,,,,,,,,,,,,,,1,5.188999891,6,0.242999792,1,0,1200,234,1,1199,redeem,47203,2019-10-26_22h12.45.853,SurveyExpMetaMem,3.2.3,Win32,60
,,,,,,,,,,,,,,,,,,,,3,2.572999954,4,0.166999817,1,0,1200,1039,1,1199,stalk,47203,2019-10-26_22h12.45.853,SurveyExpMetaMem,3.2.3,Win32,60
,,,,,,,,,,,,,,,,,,,,1,3.622999907,5,0.589999914,1,0,1200,168,1,1199,mate,47203,2019-10-26_22h12.45.853,SurveyExpMetaMem,3.2.3,Win32,60
,,,,,,,,,,,,,,,,,,,,1,1.523000002,5,0.190999985,1,0,1200,593,1,1199,errand,47203,2019-10-26_22h12.45.853,SurveyExpMetaMem,3.2.3,Win32,60
,,,,,,,,,,,,,,,,,,,,1,1.309999943,5,0.559000015,1,0,1200,156,1,1199,gym,47203,2019-10-26_22h12.45.853,SurveyExpMetaMem,3.2.3,Win32,60
,,,,,,,,,,,,,,,,,,,,3,2.883999825,3,0.225999832,1,0,1200,961,1,1199,crucify,47203,2019-10-26_22h12.45.853,SurveyExpMetaMem,3.2.3,Win32,60
,,,,,,,,,,,,,,,,,,,,1,3.007999659,5,0.274999857,1,0,1200,814,1,1199,dress,47203,2019-10-26_22h12.45.853,SurveyExpMetaMem,3.2.3,Win32,60
,,,,,,,,,,,,,,,,,,,,2,2.454999924,6,0.298999786,1,0,1200,781,1,1199,emerald,47203,2019-10-26_22h12.45.853,SurveyExpMetaMem,3.2.3,Win32,60
,,,,,,,,,,,,,,,,,,,,2,2.698999882,6,0.256999731,1,0,1200,740,1,1199,groceries,47203,2019-10-26_22h12.45.853,SurveyExpMetaMem,3.2.3,Win32,60
,,,,,,,,,,,,,,,,,,,,3,4.898999929,4,0.356999874,1,0,1200,1189,1,1199,lava,47203,2019-10-26_22h12.45.853,SurveyExpMetaMem,3.2.3,Win32,60
,,,,,,,,,,,,,,,,,,,,4,2.259999752,3,0.690999985,1,0,1200,950,1,1199,murder,47203,2019-10-26_22h12.45.853,SurveyExpMetaMem,3.2.3,Win32,60
,,,,,,,,,,,,,,,,,,,,1,2.573999643,1,0.155999899,1,0,1200,615,1,1199,lad,47203,2019-10-26_22h12.45.853,SurveyExpMetaMem,3.2.3,Win32,60
,,,,,,,,,,,,,,,,,,,,5,0.106999874,3,3.840999842,1,0,1200,1015,1,1199,frighten,47203,2019-10-26_22h12.45.853,SurveyExpMetaMem,3.2.3,Win32,60
,,,,,,,,,,,,,,,,,,,,6,5.713999987,3,0.649999857,1,0,1200,905,1,1199,suffocate,47203,2019-10-26_22h12.45.853,SurveyExpMetaMem,3.2.3,Win32,60
,,,,,,,,,,,,,,,,,,,,4,2.221999884,3,0.24000001,1,0,1200,1083,1,1199,delayed,47203,2019-10-26_22h12.45.853,SurveyExpMetaMem,3.2.3,Win32,60
,,,,,,,,,,,,,,,,,,,,2,14.87099981,5,0.0849998,1,0,1200,272,1,1199,confidence,47203,2019-10-26_22h12.45.853,SurveyExpMetaMem,3.2.3,Win32,60
,,,,,,,,,,,,,,,,,,,,2,1.354999781,6,0.089999914,1,0,1200,180,1,1199,embrace,47203,2019-10-26_22h12.45.853,SurveyExpMetaMem,3.2.3,Win32,60
,,,,,,,,,,,,,,,,,,,,2,2.275999784,4,0.108999729,1,0,1200,1173,1,1199,lurk,47203,2019-10-26_22h12.45.853,SurveyExpMetaMem,3.2.3,Win32,60
,,,,,,,,,,,,,,,,,,,,2,3.018999815,6,0.256999731,1,0,1200,878,1,1199,sleep,47203,2019-10-26_22h12.45.853,SurveyExpMetaMem,3.2.3,Win32,60
,,,,,,,,,,,,,,,,,,,,2,3.010999918,5,0.905999899,1,0,1200,660,1,1199,rock,47203,2019-10-26_22h12.45.853,SurveyExpMetaMem,3.2.3,Win32,60
,,,,,,,,,,,,,,,,,,,,1,1.407999992,5,0.132999897,1,0,1200,743,1,1199,herbal,47203,2019-10-26_22h12.45.853,SurveyExpMetaMem,3.2.3,Win32,60
,,,,,,,,,,,,,,,,,,,,1,0.838999987,5,0.112999678,1,0,1200,33,1,1199,sister,47203,2019-10-26_22h12.45.853,SurveyExpMetaMem,3.2.3,Win32,60
,,,,,,,,,,,,,,,,,,,,1,0.670999765,5,0.061999798,1,0,1200,625,1,1199,hat,47203,2019-10-26_22h12.45.853,SurveyExpMetaMem,3.2.3,Win32,60
,,,,,,,,,,,,,,,,,,,,1,0.670999765,5,0.095999718,1,0,1200,767,1,1199,civil,47203,2019-10-26_22h12.45.853,SurveyExpMetaMem,3.2.3,Win32,60
,,,,,,,,,,,,,,,,,,,,7,2.112999916,3,0.904999733,1,0,1200,1049,1,1199,electrocute,47203,2019-10-26_22h12.45.853,SurveyExpMetaMem,3.2.3,Win32,60
,,,,,,,,,,,,,,,,,,,,2,6.787999868,6,0.360999823,1,0,1200,192,1,1199,pleased,47203,2019-10-26_22h12.45.853,SurveyExpMetaMem,3.2.3,Win32,60
,,,,,,,,,,,,,,,,,,,,1,1.694000006,5,0.15599966,1,0,1200,613,1,1199,cup,47203,2019-10-26_22h12.45.853,SurveyExpMetaMem,3.2.3,Win32,60
,,,,,,,,,,,,,,,,,,,,1,1.35800004,5,0.129999876,1,0,1200,503,1,1199,sludge,47203,2019-10-26_22h12.45.853,SurveyExpMetaMem,3.2.3,Win32,60
,,,,,,,,,,,,,,,,,,,,3,2.303999901,4,0.109999895,1,0,1200,932,1,1199,bankrupt,47203,2019-10-26_22h12.45.853,SurveyExpMetaMem,3.2.3,Win32,60
,,,,,,,,,,,,,,,,,,,,3,1.807999849,6,0.256999731,1,0,1200,881,1,1199,protected,47203,2019-10-26_22h12.45.853,SurveyExpMetaMem,3.2.3,Win32,60
,,,,,,,,,,,,,,,,,,,,1,6.672999859,5,0.118000031,1,0,1200,56,1,1199,spice,47203,2019-10-26_22h12.45.853,SurveyExpMetaMem,3.2.3,Win32,60
,,,,,,,,,,,,,,,,,,,,1,0.701999903,5,0.074999809,1,0,1200,471,1,1199,chump,47203,2019-10-26_22h12.45.853,SurveyExpMetaMem,3.2.3,Win32,60
,,,,,,,,,,,,,,,,,,,,1,1.06099987,5,0.072999716,1,0,1200,122,1,1199,prince,47203,2019-10-26_22h12.45.853,SurveyExpMetaMem,3.2.3,Win32,60
,,,,,,,,,,,,,,,,,,,,3,2.115999937,7,0.174999952,1,0,1200,40,1,1199,kissing,47203,2019-10-26_22h12.45.853,SurveyExpMetaMem,3.2.3,Win32,60
,,,,,,,,,,,,,,,,,,,,1,4.574999809,5,0.248999834,1,0,1200,254,1,1199,crush,47203,2019-10-26_22h12.45.853,SurveyExpMetaMem,3.2.3,Win32,60
,,,,,,,,,,,,,,,,,,,,6,2.093999863,4,1.128999949,1,0,1200,906,1,1199,syphilis,47203,2019-10-26_22h12.45.853,SurveyExpMetaMem,3.2.3,Win32,60
,,,,,,,,,,,,,,,,,,,,6,2.154000044,4,0.175999641,1,0,1200,1024,1,1199,burn,47203,2019-10-26_22h12.45.853,SurveyExpMetaMem,3.2.3,Win32,60
,,,,,,,,,,,,,,,,,,,,3,2.123999834,4,0.280999899,1,0,1200,327,1,1199,misfortune,47203,2019-10-26_22h12.45.853,SurveyExpMetaMem,3.2.3,Win32,60
,,,,,,,,,,,,,,,,,,,,4,6.716999769,4,0.949999809,1,0,1200,572,1,1199,cast,47203,2019-10-26_22h12.45.853,SurveyExpMetaMem,3.2.3,Win32,60
,,,,,,,,,,,,,,,,,,,,2,2.544999838,6,0.195999861,1,0,1200,240,1,1199,giggles,47203,2019-10-26_22h12.45.853,SurveyExpMetaMem,3.2.3,Win32,60
,,,,,,,,,,,,,,,,,,,,4,1.957000017,4,0.304999828,1,0,1200,1022,1,1199,creepy,47203,2019-10-26_22h12.45.853,SurveyExpMetaMem,3.2.3,Win32,60
,,,,,,,,,,,,,,,,,,,,1,3.271999836,5,0.172999859,1,0,1200,678,1,1199,lightbulb,47203,2019-10-26_22h12.45.853,SurveyExpMetaMem,3.2.3,Win32,60
,,,,,,,,,,,,,,,,,,,,1,1.069999695,5,0.083999872,1,0,1200,177,1,1199,frosting,47203,2019-10-26_22h12.45.853,SurveyExpMetaMem,3.2.3,Win32,60
,,,,,,,,,,,,,,,,,,,,2,1.326999664,4,0.226999998,1,0,1200,416,1,1199,boring,47203,2019-10-26_22h12.45.853,SurveyExpMetaMem,3.2.3,Win32,60
,,,,,,,,,,,,,,,,,,,,1,1.830999851,5,0.127999783,1,0,1200,786,1,1199,afternoon,47203,2019-10-26_22h12.45.853,SurveyExpMetaMem,3.2.3,Win32,60
,,,,,,,,,,,,,,,,,,,,1,1.099999905,5,0.135999918,1,0,1200,114,1,1199,raise,47203,2019-10-26_22h12.45.853,SurveyExpMetaMem,3.2.3,Win32,60
,,,,,,,,,,,,,,,,,,,,2,4.416999817,4,0.121999741,1,0,1200,1142,1,1199,disturb,47203,2019-10-26_22h12.45.853,SurveyExpMetaMem,3.2.3,Win32,60
,,,,,,,,,,,,,,,,,,,,2,0.937999725,4,0.107999802,1,0,1200,989,1,1199,banish,47203,2019-10-26_22h12.45.853,SurveyExpMetaMem,3.2.3,Win32,60
,,,,,,,,,,,,,,,,,,,,2,2.022999763,4,0.053999901,1,0,1200,412,1,1199,mucus,47203,2019-10-26_22h12.45.853,SurveyExpMetaMem,3.2.3,Win32,60
,,,,,,,,,,,,,,,,,,,,3,1.973999739,6,0.180999756,1,0,1200,124,1,1199,honeymoon,47203,2019-10-26_22h12.45.853,SurveyExpMetaMem,3.2.3,Win32,60
,,,,,,,,,,,,,,,,,,,,1,4.25999999,5,0.194999933,1,0,1200,551,1,1199,coal,47203,2019-10-26_22h12.45.853,SurveyExpMetaMem,3.2.3,Win32,60
,,,,,,,,,,,,,,,,,,,,2,2.243999958,4,0.14199996,1,0,1200,1185,1,1199,shotgun,47203,2019-10-26_22h12.45.853,SurveyExpMetaMem,3.2.3,Win32,60
,,,,,,,,,,,,,,,,,,,,3,1.644999981,4,0.123999834,1,0,1200,1033,1,1199,horror,47203,2019-10-26_22h12.45.853,SurveyExpMetaMem,3.2.3,Win32,60
,,,,,,,,,,,,,,,,,,,,2,1.972999811,6,0.125,1,0,1200,859,1,1199,serene,47203,2019-10-26_22h12.45.853,SurveyExpMetaMem,3.2.3,Win32,60
,,,,,,,,,,,,,,,,,,,,6,3.826999903,5,5.899999857,1,0,1200,92,1,1199,justice,47203,2019-10-26_22h12.45.853,SurveyExpMetaMem,3.2.3,Win32,60
,,,,,,,,,,,,,,,,,,,,6,2.082000017,4,0.112999916,1,0,1200,944,1,1199,kill,47203,2019-10-26_22h12.45.853,SurveyExpMetaMem,3.2.3,Win32,60
,,,,,,,,,,,,,,,,,,,,6,1.529999733,4,0.130999804,1,0,1200,1038,1,1199,pervert,47203,2019-10-26_22h12.45.853,SurveyExpMetaMem,3.2.3,Win32,60
,,,,,,,,,,,,,,,,,,,,7,1.911000013,4,0.162999868,1,0,1200,985,1,1199,pollution,47203,2019-10-26_22h12.45.853,SurveyExpMetaMem,3.2.3,Win32,60
,,,,,,,,,,,,,,,,,,,,6,1.971999884,4,0.225999832,1,0,1200,425,1,1199,crutch,47203,2019-10-26_22h12.45.853,SurveyExpMetaMem,3.2.3,Win32,60
,,,,,,,,,,,,,,,,,,,,3,7.115999937,3,0.380999804,1,0,1200,1168,1,1199,financial,47203,2019-10-26_22h12.45.853,SurveyExpMetaMem,3.2.3,Win32,60
,,,,,,,,,,,,,,,,,,,,1,12.55799985,5,0.207999945,1,0,1200,227,1,1199,musician,47203,2019-10-26_22h12.45.853,SurveyExpMetaMem,3.2.3,Win32,60
,,,,,,,,,,,,,,,,,,,,2,1.238999844,4,0.326999903,1,0,1200,1016,1,1199,awful,47203,2019-10-26_22h12.45.853,SurveyExpMetaMem,3.2.3,Win32,60
,,,,,,,,,,,,,,,,,,,,2,1.208999872,4,0.075999975,1,0,1200,462,1,1199,shallow,47203,2019-10-26_22h12.45.853,SurveyExpMetaMem,3.2.3,Win32,60
,,,,,,,,,,,,,,,,,,,,1,2.612999916,5,0.154999971,1,0,1200,674,1,1199,fitting,47203,2019-10-26_22h12.45.853,SurveyExpMetaMem,3.2.3,Win32,60
,,,,,,,,,,,,,,,,,,,,2,1.77099967,6,0.142999887,1,0,1200,236,1,1199,amaze,47203,2019-10-26_22h12.45.853,SurveyExpMetaMem,3.2.3,Win32,60
,,,,,,,,,,,,,,,,,,,,4,2.190999985,3,0.18599987,1,0,1200,903,1,1199,cancer,47203,2019-10-26_22h12.45.853,SurveyExpMetaMem,3.2.3,Win32,60
,,,,,,,,,,,,,,,,,,,,1,2.119999886,5,0.130999804,1,0,1200,1075,1,1199,apprehension,47203,2019-10-26_22h12.45.853,SurveyExpMetaMem,3.2.3,Win32,60
,,,,,,,,,,,,,,,,,,,,2,1.789999962,4,0.072999954,1,0,1200,431,1,1199,itch,47203,2019-10-26_22h12.45.853,SurveyExpMetaMem,3.2.3,Win32,60
,,,,,,,,,,,,,,,,,,,,2,1.299999952,4,0.072999716,1,0,1200,1001,1,1199,rude,47203,2019-10-26_22h12.45.853,SurveyExpMetaMem,3.2.3,Win32,60
,,,,,,,,,,,,,,,,,,,,6,2.690999746,4,0.406999826,1,0,1200,972,1,1199,homicide,47203,2019-10-26_22h12.45.853,SurveyExpMetaMem,3.2.3,Win32,60
,,,,,,,,,,,,,,,,,,,,4,0.253999949,4,0.022999763,1,0,1200,936,1,1199,assault,47203,2019-10-26_22h12.45.853,SurveyExpMetaMem,3.2.3,Win32,60
,,,,,,,,,,,,,,,,,,,,1,10.84299994,4,1.768999815,1,0,1200,552,1,1199,shadow,47203,2019-10-26_22h12.45.853,SurveyExpMetaMem,3.2.3,Win32,60
,,,,,,,,,,,,,,,,,,,,2,3.045999765,6,0.240999937,1,0,1200,228,1,1199,suite,47203,2019-10-26_22h12.45.853,SurveyExpMetaMem,3.2.3,Win32,60
,,,,,,,,,,,,,,,,,,,,2,5.500999689,6,0.182999849,1,0,1200,105,1,1199,curious,47203,2019-10-26_22h12.45.853,SurveyExpMetaMem,3.2.3,Win32,60
,,,,,,,,,,,,,,,,,,,,1,2.955999851,5,0.118999958,1,0,1200,728,1,1199,patio,47203,2019-10-26_22h12.45.853,SurveyExpMetaMem,3.2.3,Win32,60
,,,,,,,,,,,,,,,,,,,,1,0.866999865,5,0.116999865,1,0,1200,491,1,1199,meek,47203,2019-10-26_22h12.45.853,SurveyExpMetaMem,3.2.3,Win32,60
,,,,,,,,,,,,,,,,,,,,1,2.073999643,5,0.126999855,1,0,1200,47,1,1199,enjoy,47203,2019-10-26_22h12.45.853,SurveyExpMetaMem,3.2.3,Win32,60
,,,,,,,,,,,,,,,,,,,,1,1.046000004,5,0.105999947,1,0,1200,135,1,1199,applause,47203,2019-10-26_22h12.45.853,SurveyExpMetaMem,3.2.3,Win32,60
,,,,,,,,,,,,,,,,,,,,1,0.621999741,5,0.088999748,1,0,1200,172,1,1199,potential,47203,2019-10-26_22h12.45.853,SurveyExpMetaMem,3.2.3,Win32,60
,,,,,,,,,,,,,,,,,,,,1,0.707999706,5,0.097999811,1,0,1200,578,1,1199,govern,47203,2019-10-26_22h12.45.853,SurveyExpMetaMem,3.2.3,Win32,60
,,,,,,,,,,,,,,,,,,,,2,1.789999962,4,0.103999853,1,0,1200,340,1,1199,coward,47203,2019-10-26_22h12.45.853,SurveyExpMetaMem,3.2.3,Win32,60
,,,,,,,,,,,,,,,,,,,,2,2.701999903,6,0.215999842,1,0,1200,164,1,1199,marry,47203,2019-10-26_22h12.45.853,SurveyExpMetaMem,3.2.3,Win32,60
,,,,,,,,,,,,,,,,,,,,3,1.454999924,4,0.164999962,1,0,1200,993,1,1199,remorse,47203,2019-10-26_22h12.45.853,SurveyExpMetaMem,3.2.3,Win32,60
,,,,,,,,,,,,,,,,,,,,1,7.221999645,5,0.227999926,1,0,1200,247,1,1199,graduate,47203,2019-10-26_22h12.45.853,SurveyExpMetaMem,3.2.3,Win32,60
,,,,,,,,,,,,,,,,,,,,2,1.330999851,4,0.093999863,1,0,1200,1113,1,1199,dagger,47203,2019-10-26_22h12.45.853,SurveyExpMetaMem,3.2.3,Win32,60
,,,,,,,,,,,,,,,,,,,,1,1.246999741,5,0.092999935,1,0,1200,535,1,1199,ramble,47203,2019-10-26_22h12.45.853,SurveyExpMetaMem,3.2.3,Win32,60
,,,,,,,,,,,,,,,,,,,,1,0.606999874,5,0.096999884,1,0,1200,761,1,1199,corn,47203,2019-10-26_22h12.45.853,SurveyExpMetaMem,3.2.3,Win32,60
,,,,,,,,,,,,,,,,,,,,1,0.727999926,5,0.072999716,1,0,1200,259,1,1199,thin,47203,2019-10-26_22h12.45.853,SurveyExpMetaMem,3.2.3,Win32,60
,,,,,,,,,,,,,,,,,,,,1,0.615999937,5,0.05099988,1,0,1200,451,1,1199,lame,47203,2019-10-26_22h12.45.853,SurveyExpMetaMem,3.2.3,Win32,60
,,,,,,,,,,,,,,,,,,,,2,2.013999939,6,0.35800004,1,0,1200,71,1,1199,spirit,47203,2019-10-26_22h12.45.853,SurveyExpMetaMem,3.2.3,Win32,60
,,,,,,,,,,,,,,,,,,,,2,1.540999889,6,0.11199975,1,0,1200,98,1,1199,affection,47203,2019-10-26_22h12.45.853,SurveyExpMetaMem,3.2.3,Win32,60
,,,,,,,,,,,,,,,,,,,,4,4.326999903,4,0.200000048,1,0,1200,1070,1,1199,bleed,47203,2019-10-26_22h12.45.853,SurveyExpMetaMem,3.2.3,Win32,60
,,,,,,,,,,,,,,,,,,,,1,1.755999804,5,0.095999956,1,0,1200,106,1,1199,voyage,47203,2019-10-26_22h12.45.853,SurveyExpMetaMem,3.2.3,Win32,60
,,,,,,,,,,,,,,,,,,,,2,2.122999907,6,0.139999866,1,0,1200,890,1,1199,carefree,47203,2019-10-26_22h12.45.853,SurveyExpMetaMem,3.2.3,Win32,60
,,,,,,,,,,,,,,,,,,,,1,2.289999962,5,0.055999756,1,0,1200,766,1,1199,flag,47203,2019-10-26_22h12.45.853,SurveyExpMetaMem,3.2.3,Win32,60
,,,,,,,,,,,,,,,,,,,,1,0.75399971,5,0.07799983,1,0,1200,841,1,1199,bathtub,47203,2019-10-26_22h12.45.853,SurveyExpMetaMem,3.2.3,Win32,60
,,,,,,,,,,,,,,,,,,,,2,1.840999842,4,0.314999819,1,0,1200,302,1,1199,loneliness,47203,2019-10-26_22h12.45.853,SurveyExpMetaMem,3.2.3,Win32,60
,,,,,,,,,,,,,,,,,,,,1,3.360999823,5,0.109999895,1,0,1200,34,1,1199,personality,47203,2019-10-26_22h12.45.853,SurveyExpMetaMem,3.2.3,Win32,60
,,,,,,,,,,,,,,,,,,,,2,1.871000051,4,0.21999979,1,0,1200,338,1,1199,obesity,47203,2019-10-26_22h12.45.853,SurveyExpMetaMem,3.2.3,Win32,60
,,,,,,,,,,,,,,,,,,,,2,1.336999893,4,0.083999872,1,0,1200,351,1,1199,germs,47203,2019-10-26_22h12.45.853,SurveyExpMetaMem,3.2.3,Win32,60
,,,,,,,,,,,,,,,,,,,,2,3.582999706,5,0.225999832,1,0,1200,539,1,1199,novice,47203,2019-10-26_22h12.45.853,SurveyExpMetaMem,3.2.3,Win32,60
,,,,,,,,,,,,,,,,,,,,2,3.750999928,4,0.758999825,1,0,1200,1180,1,1199,heat,47203,2019-10-26_22h12.45.853,SurveyExpMetaMem,3.2.3,Win32,60
,,,,,,,,,,,,,,,,,,,,2,1.771999836,4,0.267999887,1,0,1200,460,1,1199,rag,47203,2019-10-26_22h12.45.853,SurveyExpMetaMem,3.2.3,Win32,60
,,,,,,,,,,,,,,,,,,,,2,2.119999886,4,0.146999836,1,0,1200,1143,1,1199,arrogant,47203,2019-10-26_22h12.45.853,SurveyExpMetaMem,3.2.3,Win32,60
,,,,,,,,,,,,,,,,,,,,1,1.654999733,5,0.155999899,1,0,1200,637,1,1199,flock,47203,2019-10-26_22h12.45.853,SurveyExpMetaMem,3.2.3,Win32,60
,,,,,,,,,,,,,,,,,,,,2,1.318000078,4,0.286999941,1,0,1200,1063,1,1199,quarrel,47203,2019-10-26_22h12.45.853,SurveyExpMetaMem,3.2.3,Win32,60
,,,,,,,,,,,,,,,,,,,,3,2.60199976,3,0.194999933,1,0,1200,1108,1,1199,spider,47203,2019-10-26_22h12.45.853,SurveyExpMetaMem,3.2.3,Win32,60
,,,,,,,,,,,,,,,,,,,,1,1.633999825,5,0.229999781,1,0,1200,806,1,1199,tree,47203,2019-10-26_22h12.45.853,SurveyExpMetaMem,3.2.3,Win32,60
,,,,,,,,,,,,,,,,,,,,1,5.197999716,4,0.537999868,1,0,1200,407,1,1199,handicap,47203,2019-10-26_22h12.45.853,SurveyExpMetaMem,3.2.3,Win32,60
,,,,,,,,,,,,,,,,,,,,3,3.283999681,3,0.760999918,1,0,1200,1040,1,1199,communism,47203,2019-10-26_22h12.45.853,SurveyExpMetaMem,3.2.3,Win32,60
,,,,,,,,,,,,,,,,,,,,2,4.121999979,6,0.100999832,1,0,1200,144,1,1199,aroused,47203,2019-10-26_22h12.45.853,SurveyExpMetaMem,3.2.3,Win32,60
,,,,,,,,,,,,,,,,,,,,4,4.842999697,4,3.595000029,1,0,1200,8,1,1199,extreme,47203,2019-10-26_22h12.45.853,SurveyExpMetaMem,3.2.3,Win32,60
,,,,,,,,,,,,,,,,,,,,4,1.590999842,4,0.307999849,1,0,1200,1151,1,1199,drama,47203,2019-10-26_22h12.45.853,SurveyExpMetaMem,3.2.3,Win32,60
,,,,,,,,,,,,,,,,,,,,4,1.138999701,4,0.139999866,1,0,1200,986,1,1199,mad,47203,2019-10-26_22h12.45.853,SurveyExpMetaMem,3.2.3,Win32,60
,,,,,,,,,,,,,,,,,,,,2,3.707999945,6,0.096999884,1,0,1200,848,1,1199,graceful,47203,2019-10-26_22h12.45.853,SurveyExpMetaMem,3.2.3,Win32,60
,,,,,,,,,,,,,,,,,,,,1,1.268999815,5,0.039000034,1,0,1200,608,1,1199,carrot,47203,2019-10-26_22h12.45.853,SurveyExpMetaMem,3.2.3,Win32,60
,,,,,,,,,,,,,,,,,,,,1,0.84800005,5,0.054999828,1,0,1200,557,1,1199,class,47203,2019-10-26_22h12.45.853,SurveyExpMetaMem,3.2.3,Win32,60
