mouse_4.x,mouse_4.y,mouse_4.leftButton,mouse_4.midButton,mouse_4.rightButton,mouse.x,mouse.y,mouse.leftButton,mouse.midButton,mouse.rightButton,mouse_2.x,mouse_2.y,mouse_2.leftButton,mouse_2.midButton,mouse_2.rightButton,mouse_3.x,mouse_3.y,mouse_3.leftButton,mouse_3.midButton,mouse_3.rightButton,A_key_resp.keys,A_key_resp.rt,key_resp.keys,key_resp.rt,trials.thisRepN,trials.thisTrialN,trials.thisN,trials.thisIndex,trials.ran,trials.order,word,ParticipantID,date,expName,psychopyVersion,OS,frameRate
0.610185185,0.036111111,1,0,0,0.238888889,-0.061111111,1,0,0,0.352777778,-0.046296296,1,0,0,0.510185185,-0.098148148,1,0,0,7,5.521999836,8,11.67400002,1,0,1200,187,1,1199,excite,11111,2019-10-21_17h14.14.122,SurveyExpMetaMem,3.2.3,Win32,60
,,,,,,,,,,,,,,,,,,,,6,5.329999924,5,6.15899992,1,0,1200,1087,1,1199,affair,11111,2019-10-21_17h14.14.122,SurveyExpMetaMem,3.2.3,Win32,60
,,,,,,,,,,,,,,,,,,,,3,10.78100014,4,3.276000023,1,0,1200,554,1,1199,label,11111,2019-10-21_17h14.14.122,SurveyExpMetaMem,3.2.3,Win32,60
,,,,,,,,,,,,,,,,,,,,2,11.88899994,8,2.006999969,1,0,1200,718,1,1199,flow,11111,2019-10-21_17h14.14.122,SurveyExpMetaMem,3.2.3,Win32,60
,,,,,,,,,,,,,,,,,,,,8,3.08100009,4,6.391000032,1,0,1200,950,1,1199,murder,11111,2019-10-21_17h14.14.122,SurveyExpMetaMem,3.2.3,Win32,60
,,,,,,,,,,,,,,,,,,,,7,3.605000019,2,1.614000082,1,0,1200,1113,1,1199,dagger,11111,2019-10-21_17h14.14.122,SurveyExpMetaMem,3.2.3,Win32,60
,,,,,,,,,,,,,,,,,,,,3,3.559000015,2,1.46600008,1,0,1200,1117,1,1199,court,11111,2019-10-21_17h14.14.122,SurveyExpMetaMem,3.2.3,Win32,60
,,,,,,,,,,,,,,,,,,,,3,6.105999947,1,0.670000076,1,0,1200,477,1,1199,separate,11111,2019-10-21_17h14.14.122,SurveyExpMetaMem,3.2.3,Win32,60
,,,,,,,,,,,,,,,,,,,,7,7.19900012,7,2.351000071,1,0,1200,880,1,1199,security,11111,2019-10-21_17h14.14.122,SurveyExpMetaMem,3.2.3,Win32,60
,,,,,,,,,,,,,,,,,,,,8,24.75,8,3.976999998,1,0,1200,66,1,1199,zest,11111,2019-10-21_17h14.14.122,SurveyExpMetaMem,3.2.3,Win32,60
,,,,,,,,,,,,,,,,,,,,6,3.138999939,6,4.039999962,1,0,1200,801,1,1199,noon,11111,2019-10-21_17h14.14.122,SurveyExpMetaMem,3.2.3,Win32,60
,,,,,,,,,,,,,,,,,,,,7,2.188000202,7,0.647000074,1,0,1200,679,1,1199,yellow,11111,2019-10-21_17h14.14.122,SurveyExpMetaMem,3.2.3,Win32,60
,,,,,,,,,,,,,,,,,,,,8,2.208000183,9,1.803999901,1,0,1200,39,1,1199,birth,11111,2019-10-21_17h14.14.122,SurveyExpMetaMem,3.2.3,Win32,60
,,,,,,,,,,,,,,,,,,,,3,5.398000002,7,1.286000013,1,0,1200,793,1,1199,virtue,11111,2019-10-21_17h14.14.122,SurveyExpMetaMem,3.2.3,Win32,60
,,,,,,,,,,,,,,,,,,,,8,5.552999973,2,3.509000063,1,0,1200,591,1,1199,bereavement,11111,2019-10-21_17h14.14.122,SurveyExpMetaMem,3.2.3,Win32,60
,,,,,,,,,,,,,,,,,,,,7,3.004999876,1,2.256000042,1,0,1200,323,1,1199,ungrateful,11111,2019-10-21_17h14.14.122,SurveyExpMetaMem,3.2.3,Win32,60
,,,,,,,,,,,,,,,,,,,,2,3.5400002,2,3.097000122,1,0,1200,421,1,1199,stale,11111,2019-10-21_17h14.14.122,SurveyExpMetaMem,3.2.3,Win32,60
,,,,,,,,,,,,,,,,,,,,7,4.558000088,4,2.934999943,1,0,1200,638,1,1199,quench,11111,2019-10-21_17h14.14.122,SurveyExpMetaMem,3.2.3,Win32,60
,,,,,,,,,,,,,,,,,,,,6,5.421999931,4,1.950000048,1,0,1200,797,1,1199,hamburger,11111,2019-10-21_17h14.14.122,SurveyExpMetaMem,3.2.3,Win32,60
,,,,,,,,,,,,,,,,,,,,5,3.549999952,5,1.687000036,1,0,1200,605,1,1199,year,11111,2019-10-21_17h14.14.122,SurveyExpMetaMem,3.2.3,Win32,60
,,,,,,,,,,,,,,,,,,,,3,4.25,7,1.087000132,1,0,1200,742,1,1199,window,11111,2019-10-21_17h14.14.122,SurveyExpMetaMem,3.2.3,Win32,60
,,,,,,,,,,,,,,,,,,,,6,2.877000093,7,0.879000187,1,0,1200,601,1,1199,roof,11111,2019-10-21_17h14.14.122,SurveyExpMetaMem,3.2.3,Win32,60
,,,,,,,,,,,,,,,,,,,,7,2.75,8,0.548000097,1,0,1200,237,1,1199,beautiful,11111,2019-10-21_17h14.14.122,SurveyExpMetaMem,3.2.3,Win32,60
,,,,,,,,,,,,,,,,,,,,7,2.493999958,8,1.028000116,1,0,1200,706,1,1199,cat,11111,2019-10-21_17h14.14.122,SurveyExpMetaMem,3.2.3,Win32,60
,,,,,,,,,,,,,,,,,,,,3,2.86500001,7,1.196000099,1,0,1200,777,1,1199,casual,11111,2019-10-21_17h14.14.122,SurveyExpMetaMem,3.2.3,Win32,60
,,,,,,,,,,,,,,,,,,,,8,11.57400012,4,1.921000004,1,0,1200,494,1,1199,butcher,11111,2019-10-21_17h14.14.122,SurveyExpMetaMem,3.2.3,Win32,60
,,,,,,,,,,,,,,,,,,,,2,7.059999943,8,0.10800004,1,0,1200,792,1,1199,moral,11111,2019-10-21_17h14.14.122,SurveyExpMetaMem,3.2.3,Win32,60
,,,,,,,,,,,,,,,,,,,,8,7.722000122,2,1.80700016,1,0,1200,1031,1,1199,fear,11111,2019-10-21_17h14.14.122,SurveyExpMetaMem,3.2.3,Win32,60
,,,,,,,,,,,,,,,,,,,,7,4.36500001,3,0.792999983,1,0,1200,312,1,1199,stench,11111,2019-10-21_17h14.14.122,SurveyExpMetaMem,3.2.3,Win32,60
,,,,,,,,,,,,,,,,,,,,6,2.016000032,7,0.83100009,1,0,1200,131,1,1199,treat,11111,2019-10-21_17h14.14.122,SurveyExpMetaMem,3.2.3,Win32,60
,,,,,,,,,,,,,,,,,,,,4,3.114000082,6,1.399000168,1,0,1200,714,1,1199,courtyard,11111,2019-10-21_17h14.14.122,SurveyExpMetaMem,3.2.3,Win32,60
,,,,,,,,,,,,,,,,,,,,7,2.069000006,3,1.197999954,1,0,1200,980,1,1199,liar,11111,2019-10-21_17h14.14.122,SurveyExpMetaMem,3.2.3,Win32,60
,,,,,,,,,,,,,,,,,,,,4,4.710999966,2,1.397000074,1,0,1200,1111,1,1199,bruise,11111,2019-10-21_17h14.14.122,SurveyExpMetaMem,3.2.3,Win32,60
,,,,,,,,,,,,,,,,,,,,3,3.312000036,2,1.127000093,1,0,1200,509,1,1199,ash,11111,2019-10-21_17h14.14.122,SurveyExpMetaMem,3.2.3,Win32,60
,,,,,,,,,,,,,,,,,,,,7,6.644000053,7,0.899000168,1,0,1200,232,1,1199,prosper,11111,2019-10-21_17h14.14.122,SurveyExpMetaMem,3.2.3,Win32,60
,,,,,,,,,,,,,,,,,,,,3,1.862999916,6,3.271999836,1,0,1200,590,1,1199,stool,11111,2019-10-21_17h14.14.122,SurveyExpMetaMem,3.2.3,Win32,60
,,,,,,,,,,,,,,,,,,,,3,3.541999817,3,0.875,1,0,1200,1083,1,1199,delayed,11111,2019-10-21_17h14.14.122,SurveyExpMetaMem,3.2.3,Win32,60
,,,,,,,,,,,,,,,,,,,,6,23.33299994,6,1.240999937,1,0,1200,663,1,1199,trout,11111,2019-10-21_17h14.14.122,SurveyExpMetaMem,3.2.3,Win32,60
,,,,,,,,,,,,,,,,,,,,3,14.28900003,1,0.947999954,1,0,1200,913,1,1199,ulcer,11111,2019-10-21_17h14.14.122,SurveyExpMetaMem,3.2.3,Win32,60
,,,,,,,,,,,,,,,,,,,,6,3.588999987,1,0.421000004,1,0,1200,902,1,1199,rejected,11111,2019-10-21_17h14.14.122,SurveyExpMetaMem,3.2.3,Win32,60
,,,,,,,,,,,,,,,,,,,,7,1.965999842,8,0.470000029,1,0,1200,192,1,1199,pleased,11111,2019-10-21_17h14.14.122,SurveyExpMetaMem,3.2.3,Win32,60
,,,,,,,,,,,,,,,,,,,,4,5.177000046,6,0.53399992,1,0,1200,113,1,1199,bridesmaid,11111,2019-10-21_17h14.14.122,SurveyExpMetaMem,3.2.3,Win32,60
,,,,,,,,,,,,,,,,,,,,2,4.207000017,8,0.939999819,1,0,1200,806,1,1199,tree,11111,2019-10-21_17h14.14.122,SurveyExpMetaMem,3.2.3,Win32,60
,,,,,,,,,,,,,,,,,,,,8,2.542000055,8,0.226999998,1,0,1200,226,1,1199,prize,11111,2019-10-21_17h14.14.122,SurveyExpMetaMem,3.2.3,Win32,60
,,,,,,,,,,,,,,,,,,,,8,2.503999949,8,0.736999989,1,0,1200,248,1,1199,win,11111,2019-10-21_17h14.14.122,SurveyExpMetaMem,3.2.3,Win32,60
,,,,,,,,,,,,,,,,,,,,7,2.289999962,6,0.766000032,1,0,1200,649,1,1199,donkey,11111,2019-10-21_17h14.14.122,SurveyExpMetaMem,3.2.3,Win32,60
,,,,,,,,,,,,,,,,,,,,9,2.649000168,9,1.506999969,1,0,1200,1165,1,1199,revolt,11111,2019-10-21_17h14.14.122,SurveyExpMetaMem,3.2.3,Win32,60
,,,,,,,,,,,,,,,,,,,,8,2.256000042,1,1.503999949,1,0,1200,929,1,1199,mutilation,11111,2019-10-21_17h14.14.122,SurveyExpMetaMem,3.2.3,Win32,60
,,,,,,,,,,,,,,,,,,,,2,2.829999924,3,1.713999987,1,0,1200,482,1,1199,cell,11111,2019-10-21_17h14.14.122,SurveyExpMetaMem,3.2.3,Win32,60
,,,,,,,,,,,,,,,,,,,,2,3.60800004,2,0.74000001,1,0,1200,464,1,1199,tick,11111,2019-10-21_17h14.14.122,SurveyExpMetaMem,3.2.3,Win32,60
,,,,,,,,,,,,,,,,,,,,3,3.779999971,2,1.264999866,1,0,1200,475,1,1199,nameless,11111,2019-10-21_17h14.14.122,SurveyExpMetaMem,3.2.3,Win32,60
,,,,,,,,,,,,,,,,,,,,7,4.624000072,8,2.193000078,1,0,1200,297,1,1199,pleasure,11111,2019-10-21_17h14.14.122,SurveyExpMetaMem,3.2.3,Win32,60
,,,,,,,,,,,,,,,,,,,,8,2.194000006,9,1.012000084,1,0,1200,146,1,1199,congratulations,11111,2019-10-21_17h14.14.122,SurveyExpMetaMem,3.2.3,Win32,60
,,,,,,,,,,,,,,,,,,,,6,1.904999971,7,0.641000032,1,0,1200,825,1,1199,swan,11111,2019-10-21_17h14.14.122,SurveyExpMetaMem,3.2.3,Win32,60
,,,,,,,,,,,,,,,,,,,,6,3.082999945,6,1.426000118,1,0,1200,1168,1,1199,financial,11111,2019-10-21_17h14.14.122,SurveyExpMetaMem,3.2.3,Win32,60
,,,,,,,,,,,,,,,,,,,,6,2.546000004,3,0.119999886,1,0,1200,532,1,1199,recede,11111,2019-10-21_17h14.14.122,SurveyExpMetaMem,3.2.3,Win32,60
,,,,,,,,,,,,,,,,,,,,7,4.183000088,8,0.72300005,1,0,1200,202,1,1199,mercy,11111,2019-10-21_17h14.14.122,SurveyExpMetaMem,3.2.3,Win32,60
,,,,,,,,,,,,,,,,,,,,4,3.71600008,7,0.792000055,1,0,1200,895,1,1199,peace,11111,2019-10-21_17h14.14.122,SurveyExpMetaMem,3.2.3,Win32,60
,,,,,,,,,,,,,,,,,,,,7,5.628999949,8,0.337000132,1,0,1200,873,1,1199,useful,11111,2019-10-21_17h14.14.122,SurveyExpMetaMem,3.2.3,Win32,60
,,,,,,,,,,,,,,,,,,,,7,2.542000055,3,0.223999977,1,0,1200,994,1,1199,repulsed,11111,2019-10-21_17h14.14.122,SurveyExpMetaMem,3.2.3,Win32,60
,,,,,,,,,,,,,,,,,,,,8,1.61500001,2,0.219000101,1,0,1200,1137,1,1199,knife,11111,2019-10-21_17h14.14.122,SurveyExpMetaMem,3.2.3,Win32,60
,,,,,,,,,,,,,,,,,,,,4,3.822999954,7,0.421000004,1,0,1200,862,1,1199,ease,11111,2019-10-21_17h14.14.122,SurveyExpMetaMem,3.2.3,Win32,60
,,,,,,,,,,,,,,,,,,,,3,3.287999868,2,0.127000093,1,0,1200,473,1,1199,senseless,11111,2019-10-21_17h14.14.122,SurveyExpMetaMem,3.2.3,Win32,60
,,,,,,,,,,,,,,,,,,,,7,1.882000208,6,1.527000189,1,0,1200,24,1,1199,model,11111,2019-10-21_17h14.14.122,SurveyExpMetaMem,3.2.3,Win32,60
,,,,,,,,,,,,,,,,,,,,2,3.15899992,8,0.470000029,1,0,1200,667,1,1199,dew,11111,2019-10-21_17h14.14.122,SurveyExpMetaMem,3.2.3,Win32,60
,,,,,,,,,,,,,,,,,,,,4,6.724999905,5,1.795000076,1,0,1200,506,1,1199,lower,11111,2019-10-21_17h14.14.122,SurveyExpMetaMem,3.2.3,Win32,60
,,,,,,,,,,,,,,,,,,,,7,6.376000166,7,1.253999949,1,0,1200,151,1,1199,react,11111,2019-10-21_17h14.14.122,SurveyExpMetaMem,3.2.3,Win32,60
,,,,,,,,,,,,,,,,,,,,7,1.447000027,8,0.289000034,1,0,1200,866,1,1199,haven,11111,2019-10-21_17h14.14.122,SurveyExpMetaMem,3.2.3,Win32,60
,,,,,,,,,,,,,,,,,,,,3,3.082000017,6,0.974999905,1,0,1200,603,1,1199,mane,11111,2019-10-21_17h14.14.122,SurveyExpMetaMem,3.2.3,Win32,60
,,,,,,,,,,,,,,,,,,,,2,2.586999893,6,1.121999979,1,0,1200,819,1,1199,sheep,11111,2019-10-21_17h14.14.122,SurveyExpMetaMem,3.2.3,Win32,60
,,,,,,,,,,,,,,,,,,,,1,2.230999947,7,0.947000027,1,0,1200,4,1,1199,night,11111,2019-10-21_17h14.14.122,SurveyExpMetaMem,3.2.3,Win32,60
,,,,,,,,,,,,,,,,,,,,4,2.709000111,7,1.417000055,1,0,1200,669,1,1199,plaza,11111,2019-10-21_17h14.14.122,SurveyExpMetaMem,3.2.3,Win32,60
,,,,,,,,,,,,,,,,,,,,6,3.56400013,2,0.503999949,1,0,1200,341,1,1199,stinky,11111,2019-10-21_17h14.14.122,SurveyExpMetaMem,3.2.3,Win32,60
,,,,,,,,,,,,,,,,,,,,7,1.68200016,3,1.111000061,1,0,1200,1112,1,1199,pressure,11111,2019-10-21_17h14.14.122,SurveyExpMetaMem,3.2.3,Win32,60
,,,,,,,,,,,,,,,,,,,,7,4.282999992,8,0.296999931,1,0,1200,217,1,1199,bravery,11111,2019-10-21_17h14.14.122,SurveyExpMetaMem,3.2.3,Win32,60
,,,,,,,,,,,,,,,,,,,,7,2.256000042,3,0.178999901,1,0,1200,367,1,1199,pathetic,11111,2019-10-21_17h14.14.122,SurveyExpMetaMem,3.2.3,Win32,60
,,,,,,,,,,,,,,,,,,,,2,1.750999928,3,0.22300005,1,0,1200,366,1,1199,fatigue,11111,2019-10-21_17h14.14.122,SurveyExpMetaMem,3.2.3,Win32,60
,,,,,,,,,,,,,,,,,,,,4,5.246000051,6,1.011999846,1,0,1200,580,1,1199,fur,11111,2019-10-21_17h14.14.122,SurveyExpMetaMem,3.2.3,Win32,60
,,,,,,,,,,,,,,,,,,,,6,4.126000166,3,0.134000063,1,0,1200,34,1,1199,personality,11111,2019-10-21_17h14.14.122,SurveyExpMetaMem,3.2.3,Win32,60
,,,,,,,,,,,,,,,,,,,,7,7.769999981,8,1.088000059,1,0,1200,72,1,1199,attract,11111,2019-10-21_17h14.14.122,SurveyExpMetaMem,3.2.3,Win32,60
,,,,,,,,,,,,,,,,,,,,7,1.405999899,7,0.369999886,1,0,1200,124,1,1199,honeymoon,11111,2019-10-21_17h14.14.122,SurveyExpMetaMem,3.2.3,Win32,60
,,,,,,,,,,,,,,,,,,,,8,1.606000185,8,0.169000149,1,0,1200,81,1,1199,best,11111,2019-10-21_17h14.14.122,SurveyExpMetaMem,3.2.3,Win32,60
,,,,,,,,,,,,,,,,,,,,7,3.350000143,8,0.18599987,1,0,1200,246,1,1199,complete,11111,2019-10-21_17h14.14.122,SurveyExpMetaMem,3.2.3,Win32,60
,,,,,,,,,,,,,,,,,,,,8,2.255000114,7,3.400000095,1,0,1200,713,1,1199,mobile,11111,2019-10-21_17h14.14.122,SurveyExpMetaMem,3.2.3,Win32,60
,,,,,,,,,,,,,,,,,,,,7,4.542999983,3,0.855000019,1,0,1200,1169,1,1199,enforcement,11111,2019-10-21_17h14.14.122,SurveyExpMetaMem,3.2.3,Win32,60
,,,,,,,,,,,,,,,,,,,,7,16.99300003,4,2.753000021,1,0,1200,725,1,1199,checkerboard,11111,2019-10-21_17h14.14.122,SurveyExpMetaMem,3.2.3,Win32,60
,,,,,,,,,,,,,,,,,,,,7,3.414999962,3,0.615999937,1,0,1200,327,1,1199,misfortune,11111,2019-10-21_17h14.14.122,SurveyExpMetaMem,3.2.3,Win32,60
,,,,,,,,,,,,,,,,,,,,8,1.947999954,8,0.190999985,1,0,1200,247,1,1199,graduate,11111,2019-10-21_17h14.14.122,SurveyExpMetaMem,3.2.3,Win32,60
,,,,,,,,,,,,,,,,,,,,7,2.083999872,2,0.424000025,1,0,1200,992,1,1199,addict,11111,2019-10-21_17h14.14.122,SurveyExpMetaMem,3.2.3,Win32,60
,,,,,,,,,,,,,,,,,,,,3,1.947000027,6,3.924999952,1,0,1200,646,1,1199,wear,11111,2019-10-21_17h14.14.122,SurveyExpMetaMem,3.2.3,Win32,60
,,,,,,,,,,,,,,,,,,,,7,2.18900013,3,0.157999992,1,0,1200,468,1,1199,noose,11111,2019-10-21_17h14.14.122,SurveyExpMetaMem,3.2.3,Win32,60
,,,,,,,,,,,,,,,,,,,,6,3.144000053,4,0.796999931,1,0,1200,620,1,1199,spray,11111,2019-10-21_17h14.14.122,SurveyExpMetaMem,3.2.3,Win32,60
,,,,,,,,,,,,,,,,,,,,6,4.239000082,5,0.92200017,1,0,1200,769,1,1199,relate,11111,2019-10-21_17h14.14.122,SurveyExpMetaMem,3.2.3,Win32,60
,,,,,,,,,,,,,,,,,,,,7,1.758000135,4,2.70600009,1,0,1200,1139,1,1199,scare,11111,2019-10-21_17h14.14.122,SurveyExpMetaMem,3.2.3,Win32,60
,,,,,,,,,,,,,,,,,,,,3,3.340999842,6,1.368000031,1,0,1200,572,1,1199,cast,11111,2019-10-21_17h14.14.122,SurveyExpMetaMem,3.2.3,Win32,60
,,,,,,,,,,,,,,,,,,,,7,1.70600009,7,0.667000055,1,0,1200,136,1,1199,dog,11111,2019-10-21_17h14.14.122,SurveyExpMetaMem,3.2.3,Win32,60
,,,,,,,,,,,,,,,,,,,,7,3.183000088,3,0.614000082,1,0,1200,574,1,1199,distracted,11111,2019-10-21_17h14.14.122,SurveyExpMetaMem,3.2.3,Win32,60
,,,,,,,,,,,,,,,,,,,,6,9.411999941,4,1.236999989,1,0,1200,672,1,1199,ketchup,11111,2019-10-21_17h14.14.122,SurveyExpMetaMem,3.2.3,Win32,60
,,,,,,,,,,,,,,,,,,,,7,4.294999838,8,0.137000084,1,0,1200,90,1,1199,satisfaction,11111,2019-10-21_17h14.14.122,SurveyExpMetaMem,3.2.3,Win32,60
,,,,,,,,,,,,,,,,,,,,8,1.402999878,7,0.503000021,1,0,1200,269,1,1199,extravagant,11111,2019-10-21_17h14.14.122,SurveyExpMetaMem,3.2.3,Win32,60
,,,,,,,,,,,,,,,,,,,,4,2.608999968,3,0.35800004,1,0,1200,536,1,1199,vacant,11111,2019-10-21_17h14.14.122,SurveyExpMetaMem,3.2.3,Win32,60
,,,,,,,,,,,,,,,,,,,,6,2.79399991,6,1.553999901,1,0,1200,56,1,1199,spice,11111,2019-10-21_17h14.14.122,SurveyExpMetaMem,3.2.3,Win32,60
,,,,,,,,,,,,,,,,,,,,8,1.740999937,9,0.213999987,1,0,1200,896,1,1199,cuddle,11111,2019-10-21_17h14.14.122,SurveyExpMetaMem,3.2.3,Win32,60
,,,,,,,,,,,,,,,,,,,,3,6.469000101,7,0.430000067,1,0,1200,631,1,1199,delicate,11111,2019-10-21_17h14.14.122,SurveyExpMetaMem,3.2.3,Win32,60
,,,,,,,,,,,,,,,,,,,,3,2.707000017,2,0.698999882,1,0,1200,931,1,1199,overweight,11111,2019-10-21_17h14.14.122,SurveyExpMetaMem,3.2.3,Win32,60
,,,,,,,,,,,,,,,,,,,,4,4.08100009,2,0.387000084,1,0,1200,350,1,1199,inadequate,11111,2019-10-21_17h14.14.122,SurveyExpMetaMem,3.2.3,Win32,60
,,,,,,,,,,,,,,,,,,,,8,1.538000107,8,0.145999908,1,0,1200,41,1,1199,progress,11111,2019-10-21_17h14.14.122,SurveyExpMetaMem,3.2.3,Win32,60
,,,,,,,,,,,,,,,,,,,,4,2.042999983,8,0.058000088,1,0,1200,885,1,1199,cozy,11111,2019-10-21_17h14.14.122,SurveyExpMetaMem,3.2.3,Win32,60
,,,,,,,,,,,,,,,,,,,,7,2.726999998,8,0.203000069,1,0,1200,535,1,1199,ramble,11111,2019-10-21_17h14.14.122,SurveyExpMetaMem,3.2.3,Win32,60
,,,,,,,,,,,,,,,,,,,,8,2.29399991,9,0.111999989,1,0,1200,40,1,1199,kissing,11111,2019-10-21_17h14.14.122,SurveyExpMetaMem,3.2.3,Win32,60
,,,,,,,,,,,,,,,,,,,,6,3.045000076,7,1.308000088,1,0,1200,695,1,1199,teacher,11111,2019-10-21_17h14.14.122,SurveyExpMetaMem,3.2.3,Win32,60
,,,,,,,,,,,,,,,,,,,,7,20.72600007,4,0.291000128,1,0,1200,560,1,1199,spurn,11111,2019-10-21_17h14.14.122,SurveyExpMetaMem,3.2.3,Win32,60
,,,,,,,,,,,,,,,,,,,,8,1.563999891,8,0.31099987,1,0,1200,265,1,1199,invent,11111,2019-10-21_17h14.14.122,SurveyExpMetaMem,3.2.3,Win32,60
,,,,,,,,,,,,,,,,,,,,7,2.257999897,2,0.268999815,1,0,1200,318,1,1199,disappointment,11111,2019-10-21_17h14.14.122,SurveyExpMetaMem,3.2.3,Win32,60
,,,,,,,,,,,,,,,,,,,,4,2.856999874,3,0.062999964,1,0,1200,1062,1,1199,shoplifter,11111,2019-10-21_17h14.14.122,SurveyExpMetaMem,3.2.3,Win32,60
,,,,,,,,,,,,,,,,,,,,7,3.361000061,6,2.174999952,1,0,1200,273,1,1199,worthwhile,11111,2019-10-21_17h14.14.122,SurveyExpMetaMem,3.2.3,Win32,60
,,,,,,,,,,,,,,,,,,,,7,2.111999989,3,0.490999937,1,0,1200,1109,1,1199,germ,11111,2019-10-21_17h14.14.122,SurveyExpMetaMem,3.2.3,Win32,60
,,,,,,,,,,,,,,,,,,,,9,2.686999798,2,0.323000193,1,0,1200,1074,1,1199,detain,11111,2019-10-21_17h14.14.122,SurveyExpMetaMem,3.2.3,Win32,60
,,,,,,,,,,,,,,,,,,,,9,1.270999908,1,0.371999979,1,0,1200,940,1,1199,war,11111,2019-10-21_17h14.14.122,SurveyExpMetaMem,3.2.3,Win32,60
,,,,,,,,,,,,,,,,,,,,8,4.633999825,7,0.054000139,1,0,1200,117,1,1199,powerful,11111,2019-10-21_17h14.14.122,SurveyExpMetaMem,3.2.3,Win32,60
,,,,,,,,,,,,,,,,,,,,4,1.896000147,3,0.401000023,1,0,1200,1077,1,1199,unsure,11111,2019-10-21_17h14.14.122,SurveyExpMetaMem,3.2.3,Win32,60
,,,,,,,,,,,,,,,,,,,,3,6.624000072,7,0.245000124,1,0,1200,846,1,1199,able,11111,2019-10-21_17h14.14.122,SurveyExpMetaMem,3.2.3,Win32,60
,,,,,,,,,,,,,,,,,,,,6,1.773999929,7,0.325999975,1,0,1200,557,1,1199,class,11111,2019-10-21_17h14.14.122,SurveyExpMetaMem,3.2.3,Win32,60
,,,,,,,,,,,,,,,,,,,,3,1.701999903,2,0.289000034,1,0,1200,488,1,1199,rusty,11111,2019-10-21_17h14.14.122,SurveyExpMetaMem,3.2.3,Win32,60
,,,,,,,,,,,,,,,,,,,,6,2.344000101,6,0.272000074,1,0,1200,829,1,1199,innocent,11111,2019-10-21_17h14.14.122,SurveyExpMetaMem,3.2.3,Win32,60
,,,,,,,,,,,,,,,,,,,,9,1.812000036,8,1.253999949,1,0,1200,1068,1,1199,riot,11111,2019-10-21_17h14.14.122,SurveyExpMetaMem,3.2.3,Win32,60
,,,,,,,,,,,,,,,,,,,,7,2.728999853,3,0.354000092,1,0,1200,54,1,1199,alcohol,11111,2019-10-21_17h14.14.122,SurveyExpMetaMem,3.2.3,Win32,60
,,,,,,,,,,,,,,,,,,,,6,9.087000132,2,1.042999983,1,0,1200,1071,1,1199,uncomfortable,11111,2019-10-21_17h14.14.122,SurveyExpMetaMem,3.2.3,Win32,60
,,,,,,,,,,,,,,,,,,,,7,2.255999804,7,0.220000029,1,0,1200,1151,1,1199,drama,11111,2019-10-21_17h14.14.122,SurveyExpMetaMem,3.2.3,Win32,60
,,,,,,,,,,,,,,,,,,,,7,1.493000031,3,0.305999994,1,0,1200,581,1,1199,dork,11111,2019-10-21_17h14.14.122,SurveyExpMetaMem,3.2.3,Win32,60
,,,,,,,,,,,,,,,,,,,,7,17.15199995,6,2.297999859,1,0,1200,745,1,1199,inform,11111,2019-10-21_17h14.14.122,SurveyExpMetaMem,3.2.3,Win32,60
,,,,,,,,,,,,,,,,,,,,3,2.27699995,4,1.410000086,1,0,1200,562,1,1199,average,11111,2019-10-21_17h14.14.122,SurveyExpMetaMem,3.2.3,Win32,60
,,,,,,,,,,,,,,,,,,,,9,1.746000051,4,1.571000099,1,0,1200,1,1,1199,fuck,11111,2019-10-21_17h14.14.122,SurveyExpMetaMem,3.2.3,Win32,60
,,,,,,,,,,,,,,,,,,,,4,2.444000006,6,0.478999853,1,0,1200,845,1,1199,honey,11111,2019-10-21_17h14.14.122,SurveyExpMetaMem,3.2.3,Win32,60
,,,,,,,,,,,,,,,,,,,,4,2.042999983,4,0.17200017,1,0,1200,582,1,1199,cling,11111,2019-10-21_17h14.14.122,SurveyExpMetaMem,3.2.3,Win32,60
,,,,,,,,,,,,,,,,,,,,7,2.804999828,3,1.805000067,1,0,1200,1078,1,1199,trouble,11111,2019-10-21_17h14.14.122,SurveyExpMetaMem,3.2.3,Win32,60
,,,,,,,,,,,,,,,,,,,,8,2.256999969,3,0.530999899,1,0,1200,922,1,1199,nightmare,11111,2019-10-21_17h14.14.122,SurveyExpMetaMem,3.2.3,Win32,60
,,,,,,,,,,,,,,,,,,,,7,4.461999893,2,1.262000084,1,0,1200,394,1,1199,dump,11111,2019-10-21_17h14.14.122,SurveyExpMetaMem,3.2.3,Win32,60
,,,,,,,,,,,,,,,,,,,,3,2.301999807,2,0.669999838,1,0,1200,503,1,1199,sludge,11111,2019-10-21_17h14.14.122,SurveyExpMetaMem,3.2.3,Win32,60
,,,,,,,,,,,,,,,,,,,,3,2.030999899,2,0.153999805,1,0,1200,376,1,1199,incompetent,11111,2019-10-21_17h14.14.122,SurveyExpMetaMem,3.2.3,Win32,60
,,,,,,,,,,,,,,,,,,,,3,1.3349998,3,0.231000185,1,0,1200,408,1,1199,bore,11111,2019-10-21_17h14.14.122,SurveyExpMetaMem,3.2.3,Win32,60
,,,,,,,,,,,,,,,,,,,,4,2.935000181,3,0.726999998,1,0,1200,1091,1,1199,cram,11111,2019-10-21_17h14.14.122,SurveyExpMetaMem,3.2.3,Win32,60
,,,,,,,,,,,,,,,,,,,,7,2.065000057,8,0.470000029,1,0,1200,518,1,1199,report,11111,2019-10-21_17h14.14.122,SurveyExpMetaMem,3.2.3,Win32,60
,,,,,,,,,,,,,,,,,,,,6,2.344000101,6,0.128999949,1,0,1200,883,1,1199,sky,11111,2019-10-21_17h14.14.122,SurveyExpMetaMem,3.2.3,Win32,60
,,,,,,,,,,,,,,,,,,,,4,3.180999994,3,0.638000011,1,0,1200,618,1,1199,ceiling,11111,2019-10-21_17h14.14.122,SurveyExpMetaMem,3.2.3,Win32,60
,,,,,,,,,,,,,,,,,,,,6,0.075000048,6,3.675000191,1,0,1200,841,1,1199,bathtub,11111,2019-10-21_17h14.14.122,SurveyExpMetaMem,3.2.3,Win32,60
,,,,,,,,,,,,,,,,,,,,9,1.927999973,4,2.328000069,1,0,1200,1171,1,1199,chaos,11111,2019-10-21_17h14.14.122,SurveyExpMetaMem,3.2.3,Win32,60
,,,,,,,,,,,,,,,,,,,,7,4.757999897,4,0.134000063,1,0,1200,1181,1,1199,blade,11111,2019-10-21_17h14.14.122,SurveyExpMetaMem,3.2.3,Win32,60
,,,,,,,,,,,,,,,,,,,,4,10.57400012,3,0.200999975,1,0,1200,461,1,1199,ail,11111,2019-10-21_17h14.14.122,SurveyExpMetaMem,3.2.3,Win32,60
,,,,,,,,,,,,,,,,,,,,7,2.48300004,6,0.578999996,1,0,1200,175,1,1199,playground,11111,2019-10-21_17h14.14.122,SurveyExpMetaMem,3.2.3,Win32,60
,,,,,,,,,,,,,,,,,,,,3,2.647000074,8,1.010999918,1,0,1200,831,1,1199,sofa,11111,2019-10-21_17h14.14.122,SurveyExpMetaMem,3.2.3,Win32,60
,,,,,,,,,,,,,,,,,,,,8,1.856999874,3,1.792000055,1,0,1200,956,1,1199,crushed,11111,2019-10-21_17h14.14.122,SurveyExpMetaMem,3.2.3,Win32,60
,,,,,,,,,,,,,,,,,,,,7,1.970000029,8,1.267000198,1,0,1200,166,1,1199,unite,11111,2019-10-21_17h14.14.122,SurveyExpMetaMem,3.2.3,Win32,60
,,,,,,,,,,,,,,,,,,,,3,1.843000174,2,0.555000067,1,0,1200,412,1,1199,mucus,11111,2019-10-21_17h14.14.122,SurveyExpMetaMem,3.2.3,Win32,60
,,,,,,,,,,,,,,,,,,,,3,2.25999999,7,0.531000137,1,0,1200,83,1,1199,appreciative,11111,2019-10-21_17h14.14.122,SurveyExpMetaMem,3.2.3,Win32,60
,,,,,,,,,,,,,,,,,,,,4,3.161000013,6,0.068000078,1,0,1200,276,1,1199,pastry,11111,2019-10-21_17h14.14.122,SurveyExpMetaMem,3.2.3,Win32,60
,,,,,,,,,,,,,,,,,,,,7,2.539999962,2,0.492000103,1,0,1200,458,1,1199,refuse,11111,2019-10-21_17h14.14.122,SurveyExpMetaMem,3.2.3,Win32,60
,,,,,,,,,,,,,,,,,,,,4,3.622999907,5,1.146000147,1,0,1200,761,1,1199,corn,11111,2019-10-21_17h14.14.122,SurveyExpMetaMem,3.2.3,Win32,60
,,,,,,,,,,,,,,,,,,,,8,1.503000021,2,0.794999838,1,0,1200,1025,1,1199,deadly,11111,2019-10-21_17h14.14.122,SurveyExpMetaMem,3.2.3,Win32,60
,,,,,,,,,,,,,,,,,,,,9,1.231000185,3,2.710000038,1,0,1200,1099,1,1199,fire,11111,2019-10-21_17h14.14.122,SurveyExpMetaMem,3.2.3,Win32,60
,,,,,,,,,,,,,,,,,,,,7,3.274000168,6,4.690999985,1,0,1200,826,1,1199,poem,11111,2019-10-21_17h14.14.122,SurveyExpMetaMem,3.2.3,Win32,60
,,,,,,,,,,,,,,,,,,,,8,3.023999929,8,1.008999825,1,0,1200,212,1,1199,belief,11111,2019-10-21_17h14.14.122,SurveyExpMetaMem,3.2.3,Win32,60
,,,,,,,,,,,,,,,,,,,,3,2.25999999,2,0.40199995,1,0,1200,399,1,1199,withdrawn,11111,2019-10-21_17h14.14.122,SurveyExpMetaMem,3.2.3,Win32,60
,,,,,,,,,,,,,,,,,,,,3,1.523000002,2,0.190000057,1,0,1200,527,1,1199,passive,11111,2019-10-21_17h14.14.122,SurveyExpMetaMem,3.2.3,Win32,60
,,,,,,,,,,,,,,,,,,,,4,2.044000149,6,0.150000095,1,0,1200,277,1,1199,cupcake,11111,2019-10-21_17h14.14.122,SurveyExpMetaMem,3.2.3,Win32,60
,,,,,,,,,,,,,,,,,,,,4,1.055000067,6,0.148000002,1,0,1200,775,1,1199,pancakes,11111,2019-10-21_17h14.14.122,SurveyExpMetaMem,3.2.3,Win32,60
,,,,,,,,,,,,,,,,,,,,4,2.305000067,4,0.15199995,1,0,1200,424,1,1199,fault,11111,2019-10-21_17h14.14.122,SurveyExpMetaMem,3.2.3,Win32,60
,,,,,,,,,,,,,,,,,,,,6,2.718999863,3,0.640000105,1,0,1200,1190,1,1199,clench,11111,2019-10-21_17h14.14.122,SurveyExpMetaMem,3.2.3,Win32,60
,,,,,,,,,,,,,,,,,,,,7,1.904000044,7,0.279000044,1,0,1200,1174,1,1199,beast,11111,2019-10-21_17h14.14.122,SurveyExpMetaMem,3.2.3,Win32,60
,,,,,,,,,,,,,,,,,,,,3,14.704,7,0.041000128,1,0,1200,802,1,1199,familiar,11111,2019-10-21_17h14.14.122,SurveyExpMetaMem,3.2.3,Win32,60
,,,,,,,,,,,,,,,,,,,,7,2.771999836,8,0.129000187,1,0,1200,49,1,1199,ecstatic,11111,2019-10-21_17h14.14.122,SurveyExpMetaMem,3.2.3,Win32,60
,,,,,,,,,,,,,,,,,,,,7,1.638000011,7,0.211999893,1,0,1200,36,1,1199,puppy,11111,2019-10-21_17h14.14.122,SurveyExpMetaMem,3.2.3,Win32,60
,,,,,,,,,,,,,,,,,,,,8,1.411999941,3,0.354000092,1,0,1200,982,1,1199,robbery,11111,2019-10-21_17h14.14.122,SurveyExpMetaMem,3.2.3,Win32,60
,,,,,,,,,,,,,,,,,,,,7,2.521999836,7,0.601000071,1,0,1200,3,1,1199,nudist,11111,2019-10-21_17h14.14.122,SurveyExpMetaMem,3.2.3,Win32,60
,,,,,,,,,,,,,,,,,,,,8,3.881000042,5,0.276000023,1,0,1200,1176,1,1199,vampire,11111,2019-10-21_17h14.14.122,SurveyExpMetaMem,3.2.3,Win32,60
,,,,,,,,,,,,,,,,,,,,7,2.544999838,3,1.555999994,1,0,1200,465,1,1199,void,11111,2019-10-21_17h14.14.122,SurveyExpMetaMem,3.2.3,Win32,60
,,,,,,,,,,,,,,,,,,,,3,2.654999971,5,5.074999809,1,0,1200,720,1,1199,stable,11111,2019-10-21_17h14.14.122,SurveyExpMetaMem,3.2.3,Win32,60
,,,,,,,,,,,,,,,,,,,,3,3.694999933,2,0.565999985,1,0,1200,398,1,1199,handicapped,11111,2019-10-21_17h14.14.122,SurveyExpMetaMem,3.2.3,Win32,60
,,,,,,,,,,,,,,,,,,,,7,1.930000067,7,0.380000114,1,0,1200,235,1,1199,cheery,11111,2019-10-21_17h14.14.122,SurveyExpMetaMem,3.2.3,Win32,60
,,,,,,,,,,,,,,,,,,,,8,1.526000023,2,0.193000078,1,0,1200,1138,1,1199,wail,11111,2019-10-21_17h14.14.122,SurveyExpMetaMem,3.2.3,Win32,60
,,,,,,,,,,,,,,,,,,,,7,2.485000134,8,1.578999996,1,0,1200,239,1,1199,compassionate,11111,2019-10-21_17h14.14.122,SurveyExpMetaMem,3.2.3,Win32,60
,,,,,,,,,,,,,,,,,,,,8,1.437999964,7,0.592000008,1,0,1200,118,1,1199,conquer,11111,2019-10-21_17h14.14.122,SurveyExpMetaMem,3.2.3,Win32,60
,,,,,,,,,,,,,,,,,,,,3,4.007999897,3,0.424000025,1,0,1200,470,1,1199,cynical,11111,2019-10-21_17h14.14.122,SurveyExpMetaMem,3.2.3,Win32,60
,,,,,,,,,,,,,,,,,,,,7,1.837000132,3,0.142999887,1,0,1200,1126,1,1199,offensive,11111,2019-10-21_17h14.14.122,SurveyExpMetaMem,3.2.3,Win32,60
,,,,,,,,,,,,,,,,,,,,4,3.081999779,3,0.930999994,1,0,1200,452,1,1199,scapegoat,11111,2019-10-21_17h14.14.122,SurveyExpMetaMem,3.2.3,Win32,60
,,,,,,,,,,,,,,,,,,,,3,2.621999979,2,0.647000074,1,0,1200,375,1,1199,manure,11111,2019-10-21_17h14.14.122,SurveyExpMetaMem,3.2.3,Win32,60
,,,,,,,,,,,,,,,,,,,,4,3.338999987,5,1.70600009,1,0,1200,750,1,1199,porpoise,11111,2019-10-21_17h14.14.122,SurveyExpMetaMem,3.2.3,Win32,60
,,,,,,,,,,,,,,,,,,,,4,4.026000023,7,1.440000057,1,0,1200,387,1,1199,tax,11111,2019-10-21_17h14.14.122,SurveyExpMetaMem,3.2.3,Win32,60
,,,,,,,,,,,,,,,,,,,,6,4.05700016,7,0.891000032,1,0,1200,268,1,1199,tickle,11111,2019-10-21_17h14.14.122,SurveyExpMetaMem,3.2.3,Win32,60
,,,,,,,,,,,,,,,,,,,,7,1.496000051,3,0.75999999,1,0,1200,1128,1,1199,fighting,11111,2019-10-21_17h14.14.122,SurveyExpMetaMem,3.2.3,Win32,60
,,,,,,,,,,,,,,,,,,,,3,2.039999962,7,0.640000105,1,0,1200,836,1,1199,lounge,11111,2019-10-21_17h14.14.122,SurveyExpMetaMem,3.2.3,Win32,60
,,,,,,,,,,,,,,,,,,,,3,1.904000044,7,0.436000109,1,0,1200,879,1,1199,bird,11111,2019-10-21_17h14.14.122,SurveyExpMetaMem,3.2.3,Win32,60
,,,,,,,,,,,,,,,,,,,,3,1.289000034,7,0.325000048,1,0,1200,735,1,1199,tea,11111,2019-10-21_17h14.14.122,SurveyExpMetaMem,3.2.3,Win32,60
,,,,,,,,,,,,,,,,,,,,4,4.124000072,8,1.255999804,1,0,1200,840,1,1199,cuisine,11111,2019-10-21_17h14.14.122,SurveyExpMetaMem,3.2.3,Win32,60
,,,,,,,,,,,,,,,,,,,,3,2.494999886,2,0.230000019,1,0,1200,380,1,1199,expire,11111,2019-10-21_17h14.14.122,SurveyExpMetaMem,3.2.3,Win32,60
,,,,,,,,,,,,,,,,,,,,3,2.481999874,8,0.636000156,1,0,1200,894,1,1199,sunset,11111,2019-10-21_17h14.14.122,SurveyExpMetaMem,3.2.3,Win32,60
,,,,,,,,,,,,,,,,,,,,3,2.494999886,8,0.995000124,1,0,1200,854,1,1199,river,11111,2019-10-21_17h14.14.122,SurveyExpMetaMem,3.2.3,Win32,60
,,,,,,,,,,,,,,,,,,,,4,3.155999899,5,0.130000114,1,0,1200,628,1,1199,chess,11111,2019-10-21_17h14.14.122,SurveyExpMetaMem,3.2.3,Win32,60
,,,,,,,,,,,,,,,,,,,,3,3.946000099,2,1.53399992,1,0,1200,978,1,1199,starving,11111,2019-10-21_17h14.14.122,SurveyExpMetaMem,3.2.3,Win32,60
,,,,,,,,,,,,,,,,,,,,6,1.773000002,6,1.003999949,1,0,1200,757,1,1199,sentiment,11111,2019-10-21_17h14.14.122,SurveyExpMetaMem,3.2.3,Win32,60
,,,,,,,,,,,,,,,,,,,,7,1.671999931,9,1.157000065,1,0,1200,178,1,1199,alive,11111,2019-10-21_17h14.14.122,SurveyExpMetaMem,3.2.3,Win32,60
,,,,,,,,,,,,,,,,,,,,6,1.789999962,7,0.213999987,1,0,1200,77,1,1199,adore,11111,2019-10-21_17h14.14.122,SurveyExpMetaMem,3.2.3,Win32,60
,,,,,,,,,,,,,,,,,,,,2,1.526000023,2,1.072000027,1,0,1200,511,1,1199,slouch,11111,2019-10-21_17h14.14.122,SurveyExpMetaMem,3.2.3,Win32,60
,,,,,,,,,,,,,,,,,,,,8,3.575999975,2,2.264000177,1,0,1200,251,1,1199,meteor,11111,2019-10-21_17h14.14.122,SurveyExpMetaMem,3.2.3,Win32,60
,,,,,,,,,,,,,,,,,,,,4,2.825999975,2,0.654999971,1,0,1200,1086,1,1199,irritate,11111,2019-10-21_17h14.14.122,SurveyExpMetaMem,3.2.3,Win32,60
,,,,,,,,,,,,,,,,,,,,8,1.674000025,3,2.725000143,1,0,1200,578,1,1199,govern,11111,2019-10-21_17h14.14.122,SurveyExpMetaMem,3.2.3,Win32,60
,,,,,,,,,,,,,,,,,,,,7,3.993000031,7,0.203999996,1,0,1200,233,1,1199,exhilaration,11111,2019-10-21_17h14.14.122,SurveyExpMetaMem,3.2.3,Win32,60
,,,,,,,,,,,,,,,,,,,,4,3.305000067,2,0.153000116,1,0,1200,317,1,1199,cry,11111,2019-10-21_17h14.14.122,SurveyExpMetaMem,3.2.3,Win32,60
,,,,,,,,,,,,,,,,,,,,8,1.740999937,7,0.756000042,1,0,1200,222,1,1199,waterskiing,11111,2019-10-21_17h14.14.122,SurveyExpMetaMem,3.2.3,Win32,60
,,,,,,,,,,,,,,,,,,,,3,3.396000147,1,0.253999949,1,0,1200,1020,1,1199,malice,11111,2019-10-21_17h14.14.122,SurveyExpMetaMem,3.2.3,Win32,60
,,,,,,,,,,,,,,,,,,,,6,3.305000067,2,0.871999979,1,0,1200,1064,1,1199,sinful,11111,2019-10-21_17h14.14.122,SurveyExpMetaMem,3.2.3,Win32,60
,,,,,,,,,,,,,,,,,,,,7,2.70600009,3,0.439999819,1,0,1200,863,1,1199,fireplace,11111,2019-10-21_17h14.14.122,SurveyExpMetaMem,3.2.3,Win32,60
,,,,,,,,,,,,,,,,,,,,6,3.605000019,4,0.871000051,1,0,1200,467,1,1199,FALSE,11111,2019-10-21_17h14.14.122,SurveyExpMetaMem,3.2.3,Win32,60
,,,,,,,,,,,,,,,,,,,,7,1.809000015,6,0.732999802,1,0,1200,1042,1,1199,brutal,11111,2019-10-21_17h14.14.122,SurveyExpMetaMem,3.2.3,Win32,60
,,,,,,,,,,,,,,,,,,,,3,3.789999962,3,0.920000076,1,0,1200,993,1,1199,remorse,11111,2019-10-21_17h14.14.122,SurveyExpMetaMem,3.2.3,Win32,60
,,,,,,,,,,,,,,,,,,,,6,1.694000006,6,0.286000013,1,0,1200,73,1,1199,rhythm,11111,2019-10-21_17h14.14.122,SurveyExpMetaMem,3.2.3,Win32,60
,,,,,,,,,,,,,,,,,,,,7,2.246999979,3,0.389000177,1,0,1200,397,1,1199,complaint,11111,2019-10-21_17h14.14.122,SurveyExpMetaMem,3.2.3,Win32,60
,,,,,,,,,,,,,,,,,,,,7,4.569000006,2,0.501000166,1,0,1200,1179,1,1199,nerves,11111,2019-10-21_17h14.14.122,SurveyExpMetaMem,3.2.3,Win32,60
,,,,,,,,,,,,,,,,,,,,4,3.17200017,4,0.510999918,1,0,1200,415,1,1199,grime,11111,2019-10-21_17h14.14.122,SurveyExpMetaMem,3.2.3,Win32,60
,,,,,,,,,,,,,,,,,,,,6,3.717000008,7,0.727999926,1,0,1200,65,1,1199,restaurant,11111,2019-10-21_17h14.14.122,SurveyExpMetaMem,3.2.3,Win32,60
,,,,,,,,,,,,,,,,,,,,6,2.52699995,5,2.443000078,1,0,1200,285,1,1199,gold,11111,2019-10-21_17h14.14.122,SurveyExpMetaMem,3.2.3,Win32,60
,,,,,,,,,,,,,,,,,,,,7,2.148000002,8,6.190999985,1,0,1200,172,1,1199,potential,11111,2019-10-21_17h14.14.122,SurveyExpMetaMem,3.2.3,Win32,60
,,,,,,,,,,,,,,,,,,,,8,1.29399991,8,0.196000099,1,0,1200,242,1,1199,triumph,11111,2019-10-21_17h14.14.122,SurveyExpMetaMem,3.2.3,Win32,60
,,,,,,,,,,,,,,,,,,,,3,2.088000059,2,0.256999969,1,0,1200,300,1,1199,unhappy,11111,2019-10-21_17h14.14.122,SurveyExpMetaMem,3.2.3,Win32,60
,,,,,,,,,,,,,,,,,,,,4,4.049999952,6,1.653000116,1,0,1200,691,1,1199,circle,11111,2019-10-21_17h14.14.122,SurveyExpMetaMem,3.2.3,Win32,60
,,,,,,,,,,,,,,,,,,,,4,2.643000126,2,0.114000082,1,0,1200,395,1,1199,lack,11111,2019-10-21_17h14.14.122,SurveyExpMetaMem,3.2.3,Win32,60
,,,,,,,,,,,,,,,,,,,,7,1.638999939,7,0.213999987,1,0,1200,84,1,1199,eat,11111,2019-10-21_17h14.14.122,SurveyExpMetaMem,3.2.3,Win32,60
,,,,,,,,,,,,,,,,,,,,6,2.89199996,7,0.894999981,1,0,1200,733,1,1199,poetry,11111,2019-10-21_17h14.14.122,SurveyExpMetaMem,3.2.3,Win32,60
,,,,,,,,,,,,,,,,,,,,8,2.190999985,8,0.136000156,1,0,1200,173,1,1199,hope,11111,2019-10-21_17h14.14.122,SurveyExpMetaMem,3.2.3,Win32,60
,,,,,,,,,,,,,,,,,,,,4,2.447000027,5,0.386999846,1,0,1200,33,1,1199,sister,11111,2019-10-21_17h14.14.122,SurveyExpMetaMem,3.2.3,Win32,60
,,,,,,,,,,,,,,,,,,,,3,3.508999825,2,0.360000134,1,0,1200,304,1,1199,depression,11111,2019-10-21_17h14.14.122,SurveyExpMetaMem,3.2.3,Win32,60
,,,,,,,,,,,,,,,,,,,,8,3.042000055,4,2.155999899,1,0,1200,1197,1,1199,command,11111,2019-10-21_17h14.14.122,SurveyExpMetaMem,3.2.3,Win32,60
,,,,,,,,,,,,,,,,,,,,6,3.357000113,3,0.243999958,1,0,1200,952,1,1199,troubled,11111,2019-10-21_17h14.14.122,SurveyExpMetaMem,3.2.3,Win32,60
,,,,,,,,,,,,,,,,,,,,4,2.321000099,2,0.269999981,1,0,1200,455,1,1199,chubby,11111,2019-10-21_17h14.14.122,SurveyExpMetaMem,3.2.3,Win32,60
,,,,,,,,,,,,,,,,,,,,8,3.144999981,8,0.227999926,1,0,1200,181,1,1199,fascinate,11111,2019-10-21_17h14.14.122,SurveyExpMetaMem,3.2.3,Win32,60
,,,,,,,,,,,,,,,,,,,,3,2.323999882,6,1.078999996,1,0,1200,604,1,1199,lamp,11111,2019-10-21_17h14.14.122,SurveyExpMetaMem,3.2.3,Win32,60
,,,,,,,,,,,,,,,,,,,,3,3.472999811,2,0.355000019,1,0,1200,369,1,1199,blind,11111,2019-10-21_17h14.14.122,SurveyExpMetaMem,3.2.3,Win32,60
,,,,,,,,,,,,,,,,,,,,3,1.833000183,6,2.822000027,1,0,1200,666,1,1199,verify,11111,2019-10-21_17h14.14.122,SurveyExpMetaMem,3.2.3,Win32,60
,,,,,,,,,,,,,,,,,,,,4,2.667000055,8,0.072000027,1,0,1200,68,1,1199,perfect,11111,2019-10-21_17h14.14.122,SurveyExpMetaMem,3.2.3,Win32,60
,,,,,,,,,,,,,,,,,,,,4,2.950999975,8,0.207999945,1,0,1200,287,1,1199,optimistic,11111,2019-10-21_17h14.14.122,SurveyExpMetaMem,3.2.3,Win32,60
,,,,,,,,,,,,,,,,,,,,4,7.226999998,5,0.062999964,1,0,1200,608,1,1199,carrot,11111,2019-10-21_17h14.14.122,SurveyExpMetaMem,3.2.3,Win32,60
,,,,,,,,,,,,,,,,,,,,7,1.888000011,3,0.143000126,1,0,1200,377,1,1199,complain,11111,2019-10-21_17h14.14.122,SurveyExpMetaMem,3.2.3,Win32,60
,,,,,,,,,,,,,,,,,,,,6,2.549000025,6,0.139999866,1,0,1200,799,1,1199,precise,11111,2019-10-21_17h14.14.122,SurveyExpMetaMem,3.2.3,Win32,60
,,,,,,,,,,,,,,,,,,,,8,2.497999907,7,1.422999859,1,0,1200,25,1,1199,charisma,11111,2019-10-21_17h14.14.122,SurveyExpMetaMem,3.2.3,Win32,60
,,,,,,,,,,,,,,,,,,,,4,2.704999924,5,0.15199995,1,0,1200,606,1,1199,easel,11111,2019-10-21_17h14.14.122,SurveyExpMetaMem,3.2.3,Win32,60
,,,,,,,,,,,,,,,,,,,,3,2.270999908,6,0.444000006,1,0,1200,708,1,1199,nursery,11111,2019-10-21_17h14.14.122,SurveyExpMetaMem,3.2.3,Win32,60
,,,,,,,,,,,,,,,,,,,,7,2.951999903,3,0.549000025,1,0,1200,1110,1,1199,bastard,11111,2019-10-21_17h14.14.122,SurveyExpMetaMem,3.2.3,Win32,60
,,,,,,,,,,,,,,,,,,,,3,4.823999882,8,1.506000042,1,0,1200,179,1,1199,star,11111,2019-10-21_17h14.14.122,SurveyExpMetaMem,3.2.3,Win32,60
,,,,,,,,,,,,,,,,,,,,8,2.012000084,1,0.758999825,1,0,1200,958,1,1199,traitor,11111,2019-10-21_17h14.14.122,SurveyExpMetaMem,3.2.3,Win32,60
,,,,,,,,,,,,,,,,,,,,4,2.70600009,5,0.128999949,1,0,1200,549,1,1199,beet,11111,2019-10-21_17h14.14.122,SurveyExpMetaMem,3.2.3,Win32,60
,,,,,,,,,,,,,,,,,,,,4,2.730000019,3,0.366999865,1,0,1200,531,1,1199,omit,11111,2019-10-21_17h14.14.122,SurveyExpMetaMem,3.2.3,Win32,60
,,,,,,,,,,,,,,,,,,,,4,1.526000023,5,0.263000011,1,0,1200,710,1,1199,gender,11111,2019-10-21_17h14.14.122,SurveyExpMetaMem,3.2.3,Win32,60
,,,,,,,,,,,,,,,,,,,,7,3.111999989,3,0.296999931,1,0,1200,964,1,1199,grieve,11111,2019-10-21_17h14.14.122,SurveyExpMetaMem,3.2.3,Win32,60
,,,,,,,,,,,,,,,,,,,,8,1.888000011,6,1.154000044,1,0,1200,1192,1,1199,startled,11111,2019-10-21_17h14.14.122,SurveyExpMetaMem,3.2.3,Win32,60
,,,,,,,,,,,,,,,,,,,,7,3.940000057,5,1.478999853,1,0,1200,612,1,1199,propeller,11111,2019-10-21_17h14.14.122,SurveyExpMetaMem,3.2.3,Win32,60
,,,,,,,,,,,,,,,,,,,,6,1.433999777,5,0.71600008,1,0,1200,1187,1,1199,drill,11111,2019-10-21_17h14.14.122,SurveyExpMetaMem,3.2.3,Win32,60
,,,,,,,,,,,,,,,,,,,,2,2.272000074,3,3.51699996,1,0,1200,409,1,1199,old,11111,2019-10-21_17h14.14.122,SurveyExpMetaMem,3.2.3,Win32,60
,,,,,,,,,,,,,,,,,,,,6,2.197999954,6,1.042999983,1,0,1200,539,1,1199,novice,11111,2019-10-21_17h14.14.122,SurveyExpMetaMem,3.2.3,Win32,60
,,,,,,,,,,,,,,,,,,,,7,11.57299995,2,0.271999836,1,0,1200,967,1,1199,horrible,11111,2019-10-21_17h14.14.122,SurveyExpMetaMem,3.2.3,Win32,60
,,,,,,,,,,,,,,,,,,,,4,1.426999807,6,1.163000107,1,0,1200,803,1,1199,tidy,11111,2019-10-21_17h14.14.122,SurveyExpMetaMem,3.2.3,Win32,60
,,,,,,,,,,,,,,,,,,,,6,3.045000076,6,0.186000109,1,0,1200,783,1,1199,sprinkle,11111,2019-10-21_17h14.14.122,SurveyExpMetaMem,3.2.3,Win32,60
,,,,,,,,,,,,,,,,,,,,4,1.604000092,6,1.492000103,1,0,1200,812,1,1199,harp,11111,2019-10-21_17h14.14.122,SurveyExpMetaMem,3.2.3,Win32,60
,,,,,,,,,,,,,,,,,,,,3,8.486999989,1,1.061000109,1,0,1200,403,1,1199,wither,11111,2019-10-21_17h14.14.122,SurveyExpMetaMem,3.2.3,Win32,60
,,,,,,,,,,,,,,,,,,,,4,1.770999908,3,0.636999846,1,0,1200,436,1,1199,mediocre,11111,2019-10-21_17h14.14.122,SurveyExpMetaMem,3.2.3,Win32,60
,,,,,,,,,,,,,,,,,,,,4,2.901000023,5,0.121000051,1,0,1200,796,1,1199,rose,11111,2019-10-21_17h14.14.122,SurveyExpMetaMem,3.2.3,Win32,60
,,,,,,,,,,,,,,,,,,,,6,5.243999958,2,0.763999939,1,0,1200,449,1,1199,egotistical,11111,2019-10-21_17h14.14.122,SurveyExpMetaMem,3.2.3,Win32,60
,,,,,,,,,,,,,,,,,,,,6,3.631999969,4,0.635999918,1,0,1200,429,1,1199,cough,11111,2019-10-21_17h14.14.122,SurveyExpMetaMem,3.2.3,Win32,60
,,,,,,,,,,,,,,,,,,,,7,6.677000046,2,0.472000122,1,0,1200,1028,1,1199,terror,11111,2019-10-21_17h14.14.122,SurveyExpMetaMem,3.2.3,Win32,60
,,,,,,,,,,,,,,,,,,,,6,1.607000113,3,0.620000124,1,0,1200,1030,1,1199,offend,11111,2019-10-21_17h14.14.122,SurveyExpMetaMem,3.2.3,Win32,60
,,,,,,,,,,,,,,,,,,,,7,2.947999954,6,0.453000069,1,0,1200,1198,1,1199,lightning,11111,2019-10-21_17h14.14.122,SurveyExpMetaMem,3.2.3,Win32,60
,,,,,,,,,,,,,,,,,,,,7,3.174000025,2,0.780999899,1,0,1200,973,1,1199,anger,11111,2019-10-21_17h14.14.122,SurveyExpMetaMem,3.2.3,Win32,60
,,,,,,,,,,,,,,,,,,,,3,2.729000092,8,1.536999941,1,0,1200,703,1,1199,book,11111,2019-10-21_17h14.14.122,SurveyExpMetaMem,3.2.3,Win32,60
,,,,,,,,,,,,,,,,,,,,4,7.244999886,7,2.258000135,1,0,1200,142,1,1199,christmas,11111,2019-10-21_17h14.14.122,SurveyExpMetaMem,3.2.3,Win32,60
,,,,,,,,,,,,,,,,,,,,6,1.686000109,3,0.368999958,1,0,1200,1001,1,1199,rude,11111,2019-10-21_17h14.14.122,SurveyExpMetaMem,3.2.3,Win32,60
,,,,,,,,,,,,,,,,,,,,8,1.377000093,3,0.329999924,1,0,1200,308,1,1199,worthless,11111,2019-10-21_17h14.14.122,SurveyExpMetaMem,3.2.3,Win32,60
,,,,,,,,,,,,,,,,,,,,7,1.638999939,2,0.302999973,1,0,1200,1038,1,1199,pervert,11111,2019-10-21_17h14.14.122,SurveyExpMetaMem,3.2.3,Win32,60
,,,,,,,,,,,,,,,,,,,,8,2.450000048,1,1.424000025,1,0,1200,1125,1,1199,outrage,11111,2019-10-21_17h14.14.122,SurveyExpMetaMem,3.2.3,Win32,60
,,,,,,,,,,,,,,,,,,,,4,3.177000046,6,0.111999989,1,0,1200,1060,1,1199,dent,11111,2019-10-21_17h14.14.122,SurveyExpMetaMem,3.2.3,Win32,60
,,,,,,,,,,,,,,,,,,,,4,7.069999933,8,0.70600009,1,0,1200,891,1,1199,kind,11111,2019-10-21_17h14.14.122,SurveyExpMetaMem,3.2.3,Win32,60
,,,,,,,,,,,,,,,,,,,,4,1.970000029,7,0.27699995,1,0,1200,51,1,1199,body,11111,2019-10-21_17h14.14.122,SurveyExpMetaMem,3.2.3,Win32,60
,,,,,,,,,,,,,,,,,,,,6,2.861000061,7,0.838000059,1,0,1200,759,1,1199,prefer,11111,2019-10-21_17h14.14.122,SurveyExpMetaMem,3.2.3,Win32,60
,,,,,,,,,,,,,,,,,,,,7,1.424000025,8,0.77699995,1,0,1200,576,1,1199,policy,11111,2019-10-21_17h14.14.122,SurveyExpMetaMem,3.2.3,Win32,60
,,,,,,,,,,,,,,,,,,,,8,1.455999851,8,0.325000048,1,0,1200,106,1,1199,voyage,11111,2019-10-21_17h14.14.122,SurveyExpMetaMem,3.2.3,Win32,60
,,,,,,,,,,,,,,,,,,,,8,2.105000019,4,1.405999899,1,0,1200,1129,1,1199,spanking,11111,2019-10-21_17h14.14.122,SurveyExpMetaMem,3.2.3,Win32,60
,,,,,,,,,,,,,,,,,,,,7,11.16000009,7,0.703000069,1,0,1200,835,1,1199,helpful,11111,2019-10-21_17h14.14.122,SurveyExpMetaMem,3.2.3,Win32,60
,,,,,,,,,,,,,,,,,,,,7,5.401000023,3,0.342999935,1,0,1200,996,1,1199,sting,11111,2019-10-21_17h14.14.122,SurveyExpMetaMem,3.2.3,Win32,60
,,,,,,,,,,,,,,,,,,,,4,1.679999828,6,0.31099987,1,0,1200,740,1,1199,groceries,11111,2019-10-21_17h14.14.122,SurveyExpMetaMem,3.2.3,Win32,60
,,,,,,,,,,,,,,,,,,,,3,1.907000065,2,0.190000057,1,0,1200,906,1,1199,syphilis,11111,2019-10-21_17h14.14.122,SurveyExpMetaMem,3.2.3,Win32,60
,,,,,,,,,,,,,,,,,,,,7,3.673000097,2,1.054999828,1,0,1200,935,1,1199,despise,11111,2019-10-21_17h14.14.122,SurveyExpMetaMem,3.2.3,Win32,60
,,,,,,,,,,,,,,,,,,,,4,4.440000057,7,0.141000032,1,0,1200,555,1,1199,school,11111,2019-10-21_17h14.14.122,SurveyExpMetaMem,3.2.3,Win32,60
,,,,,,,,,,,,,,,,,,,,3,1.970999956,5,1.065999985,1,0,1200,660,1,1199,rock,11111,2019-10-21_17h14.14.122,SurveyExpMetaMem,3.2.3,Win32,60
,,,,,,,,,,,,,,,,,,,,3,6.756999969,5,1.480999947,1,0,1200,776,1,1199,doll,11111,2019-10-21_17h14.14.122,SurveyExpMetaMem,3.2.3,Win32,60
,,,,,,,,,,,,,,,,,,,,6,2.913000107,6,0.7900002,1,0,1200,877,1,1199,bless,11111,2019-10-21_17h14.14.122,SurveyExpMetaMem,3.2.3,Win32,60
,,,,,,,,,,,,,,,,,,,,2,3.334000111,5,2.402999878,1,0,1200,53,1,1199,lotion,11111,2019-10-21_17h14.14.122,SurveyExpMetaMem,3.2.3,Win32,60
,,,,,,,,,,,,,,,,,,,,7,1.723999977,7,0.486999989,1,0,1200,858,1,1199,donate,11111,2019-10-21_17h14.14.122,SurveyExpMetaMem,3.2.3,Win32,60
,,,,,,,,,,,,,,,,,,,,8,2.054999828,7,1.878000021,1,0,1200,0,1,1199,dragon,11111,2019-10-21_17h14.14.122,SurveyExpMetaMem,3.2.3,Win32,60
,,,,,,,,,,,,,,,,,,,,6,1.679000139,3,0.555999994,1,0,1200,949,1,1199,thief,11111,2019-10-21_17h14.14.122,SurveyExpMetaMem,3.2.3,Win32,60
,,,,,,,,,,,,,,,,,,,,4,3.467000008,4,1.10800004,1,0,1200,495,1,1199,dust,11111,2019-10-21_17h14.14.122,SurveyExpMetaMem,3.2.3,Win32,60
,,,,,,,,,,,,,,,,,,,,8,2.660000086,2,0.697000027,1,0,1200,1073,1,1199,bitch,11111,2019-10-21_17h14.14.122,SurveyExpMetaMem,3.2.3,Win32,60
,,,,,,,,,,,,,,,,,,,,3,5.634000063,3,1.154000044,1,0,1200,496,1,1199,slow,11111,2019-10-21_17h14.14.122,SurveyExpMetaMem,3.2.3,Win32,60
,,,,,,,,,,,,,,,,,,,,6,1.986999989,3,0.411999941,1,0,1200,362,1,1199,despair,11111,2019-10-21_17h14.14.122,SurveyExpMetaMem,3.2.3,Win32,60
,,,,,,,,,,,,,,,,,,,,6,4.556999922,3,0.553999901,1,0,1200,1199,1,1199,expensive,11111,2019-10-21_17h14.14.122,SurveyExpMetaMem,3.2.3,Win32,60
,,,,,,,,,,,,,,,,,,,,7,2.767000198,7,0.502000093,1,0,1200,292,1,1199,birthday,11111,2019-10-21_17h14.14.122,SurveyExpMetaMem,3.2.3,Win32,60
,,,,,,,,,,,,,,,,,,,,4,17.30099988,2,1.232000113,1,0,1200,440,1,1199,forgot,11111,2019-10-21_17h14.14.122,SurveyExpMetaMem,3.2.3,Win32,60
,,,,,,,,,,,,,,,,,,,,3,1.389000177,2,0.799000025,1,0,1200,497,1,1199,pungent,11111,2019-10-21_17h14.14.122,SurveyExpMetaMem,3.2.3,Win32,60
,,,,,,,,,,,,,,,,,,,,7,1.618999958,8,0.232000113,1,0,1200,44,1,1199,diploma,11111,2019-10-21_17h14.14.122,SurveyExpMetaMem,3.2.3,Win32,60
,,,,,,,,,,,,,,,,,,,,7,47.25,7,0.478999853,1,0,1200,696,1,1199,rink,11111,2019-10-21_17h14.14.122,SurveyExpMetaMem,3.2.3,Win32,60
,,,,,,,,,,,,,,,,,,,,7,5.006999969,6,0.037000179,1,0,1200,607,1,1199,greyhound,11111,2019-10-21_17h14.14.122,SurveyExpMetaMem,3.2.3,Win32,60
,,,,,,,,,,,,,,,,,,,,3,2.743999958,6,0.565000057,1,0,1200,688,1,1199,jelly,11111,2019-10-21_17h14.14.122,SurveyExpMetaMem,3.2.3,Win32,60
,,,,,,,,,,,,,,,,,,,,7,1.480999947,8,0.198000193,1,0,1200,105,1,1199,curious,11111,2019-10-21_17h14.14.122,SurveyExpMetaMem,3.2.3,Win32,60
,,,,,,,,,,,,,,,,,,,,6,3.115999937,6,0.592000008,1,0,1200,228,1,1199,suite,11111,2019-10-21_17h14.14.122,SurveyExpMetaMem,3.2.3,Win32,60
,,,,,,,,,,,,,,,,,,,,6,2.217000008,6,0.065999985,1,0,1200,95,1,1199,giggle,11111,2019-10-21_17h14.14.122,SurveyExpMetaMem,3.2.3,Win32,60
,,,,,,,,,,,,,,,,,,,,7,2.241999865,6,1.551999807,1,0,1200,201,1,1199,gorilla,11111,2019-10-21_17h14.14.122,SurveyExpMetaMem,3.2.3,Win32,60
,,,,,,,,,,,,,,,,,,,,3,5.273999929,8,0.875,1,0,1200,238,1,1199,sunshine,11111,2019-10-21_17h14.14.122,SurveyExpMetaMem,3.2.3,Win32,60
,,,,,,,,,,,,,,,,,,,,7,2.839999914,6,0.990999937,1,0,1200,270,1,1199,toddler,11111,2019-10-21_17h14.14.122,SurveyExpMetaMem,3.2.3,Win32,60
,,,,,,,,,,,,,,,,,,,,7,2.00999999,3,1.184000015,1,0,1200,955,1,1199,drown,11111,2019-10-21_17h14.14.122,SurveyExpMetaMem,3.2.3,Win32,60
,,,,,,,,,,,,,,,,,,,,4,2.822999954,5,0.088999987,1,0,1200,388,1,1199,mildew,11111,2019-10-21_17h14.14.122,SurveyExpMetaMem,3.2.3,Win32,60
,,,,,,,,,,,,,,,,,,,,6,2.746999979,5,0.856999874,1,0,1200,61,1,1199,zoom,11111,2019-10-21_17h14.14.122,SurveyExpMetaMem,3.2.3,Win32,60
,,,,,,,,,,,,,,,,,,,,8,2.299000025,1,0.434000015,1,0,1200,971,1,1199,crash,11111,2019-10-21_17h14.14.122,SurveyExpMetaMem,3.2.3,Win32,60
,,,,,,,,,,,,,,,,,,,,7,7.277999878,8,1.394000053,1,0,1200,184,1,1199,surprised,11111,2019-10-21_17h14.14.122,SurveyExpMetaMem,3.2.3,Win32,60
,,,,,,,,,,,,,,,,,,,,3,1.703999996,6,2.259000063,1,0,1200,671,1,1199,windmill,11111,2019-10-21_17h14.14.122,SurveyExpMetaMem,3.2.3,Win32,60
,,,,,,,,,,,,,,,,,,,,3,2.650000095,3,1.76699996,1,0,1200,259,1,1199,thin,11111,2019-10-21_17h14.14.122,SurveyExpMetaMem,3.2.3,Win32,60
,,,,,,,,,,,,,,,,,,,,7,2.845999956,6,1.511999846,1,0,1200,622,1,1199,revere,11111,2019-10-21_17h14.14.122,SurveyExpMetaMem,3.2.3,Win32,60
,,,,,,,,,,,,,,,,,,,,4,3.492000103,2,0.358999968,1,0,1200,541,1,1199,apathy,11111,2019-10-21_17h14.14.122,SurveyExpMetaMem,3.2.3,Win32,60
,,,,,,,,,,,,,,,,,,,,8,1.904999971,3,0.303000212,1,0,1200,1185,1,1199,shotgun,11111,2019-10-21_17h14.14.122,SurveyExpMetaMem,3.2.3,Win32,60
,,,,,,,,,,,,,,,,,,,,2,3.009000063,3,0.455000162,1,0,1200,489,1,1199,timid,11111,2019-10-21_17h14.14.122,SurveyExpMetaMem,3.2.3,Win32,60
,,,,,,,,,,,,,,,,,,,,6,2.945999861,2,0.789999962,1,0,1200,584,1,1199,anus,11111,2019-10-21_17h14.14.122,SurveyExpMetaMem,3.2.3,Win32,60
,,,,,,,,,,,,,,,,,,,,4,1.653000116,7,2.289999962,1,0,1200,727,1,1199,author,11111,2019-10-21_17h14.14.122,SurveyExpMetaMem,3.2.3,Win32,60
,,,,,,,,,,,,,,,,,,,,8,1.979000092,3,1.998000145,1,0,1200,1009,1,1199,frightened,11111,2019-10-21_17h14.14.122,SurveyExpMetaMem,3.2.3,Win32,60
,,,,,,,,,,,,,,,,,,,,8,2.934000015,1,0.321999788,1,0,1200,985,1,1199,pollution,11111,2019-10-21_17h14.14.122,SurveyExpMetaMem,3.2.3,Win32,60
,,,,,,,,,,,,,,,,,,,,7,2.676000118,8,0.180999994,1,0,1200,88,1,1199,ambitious,11111,2019-10-21_17h14.14.122,SurveyExpMetaMem,3.2.3,Win32,60
,,,,,,,,,,,,,,,,,,,,3,4.804999828,7,0.615999937,1,0,1200,886,1,1199,sunflower,11111,2019-10-21_17h14.14.122,SurveyExpMetaMem,3.2.3,Win32,60
,,,,,,,,,,,,,,,,,,,,4,2.25,7,0.903999805,1,0,1200,808,1,1199,violinist,11111,2019-10-21_17h14.14.122,SurveyExpMetaMem,3.2.3,Win32,60
,,,,,,,,,,,,,,,,,,,,3,1.761999846,6,1.231999874,1,0,1200,754,1,1199,reflection,11111,2019-10-21_17h14.14.122,SurveyExpMetaMem,3.2.3,Win32,60
,,,,,,,,,,,,,,,,,,,,8,1.302999973,2,0.369999886,1,0,1200,936,1,1199,assault,11111,2019-10-21_17h14.14.122,SurveyExpMetaMem,3.2.3,Win32,60
,,,,,,,,,,,,,,,,,,,,3,2.006000042,6,0.844000101,1,0,1200,867,1,1199,relaxed,11111,2019-10-21_17h14.14.122,SurveyExpMetaMem,3.2.3,Win32,60
,,,,,,,,,,,,,,,,,,,,6,2.278000116,6,0.565999985,1,0,1200,261,1,1199,windsurfers,11111,2019-10-21_17h14.14.122,SurveyExpMetaMem,3.2.3,Win32,60
,,,,,,,,,,,,,,,,,,,,4,3.475000143,7,0.246999979,1,0,1200,139,1,1199,generosity,11111,2019-10-21_17h14.14.122,SurveyExpMetaMem,3.2.3,Win32,60
,,,,,,,,,,,,,,,,,,,,7,1.796000004,3,0.332000017,1,0,1200,1070,1,1199,bleed,11111,2019-10-21_17h14.14.122,SurveyExpMetaMem,3.2.3,Win32,60
,,,,,,,,,,,,,,,,,,,,8,2.373999834,3,0.829999924,1,0,1200,1049,1,1199,electrocute,11111,2019-10-21_17h14.14.122,SurveyExpMetaMem,3.2.3,Win32,60
,,,,,,,,,,,,,,,,,,,,4,3.315999985,7,0.162999868,1,0,1200,274,1,1199,song,11111,2019-10-21_17h14.14.122,SurveyExpMetaMem,3.2.3,Win32,60
,,,,,,,,,,,,,,,,,,,,3,3.226999998,2,0.853999853,1,0,1200,416,1,1199,boring,11111,2019-10-21_17h14.14.122,SurveyExpMetaMem,3.2.3,Win32,60
,,,,,,,,,,,,,,,,,,,,6,2.011000156,2,0.219000101,1,0,1200,1194,1,1199,obsession,11111,2019-10-21_17h14.14.122,SurveyExpMetaMem,3.2.3,Win32,60
,,,,,,,,,,,,,,,,,,,,6,4.726000071,4,1.232000113,1,0,1200,50,1,1199,bolt,11111,2019-10-21_17h14.14.122,SurveyExpMetaMem,3.2.3,Win32,60
,,,,,,,,,,,,,,,,,,,,3,2.708999872,6,0.855999947,1,0,1200,868,1,1199,grace,11111,2019-10-21_17h14.14.122,SurveyExpMetaMem,3.2.3,Win32,60
,,,,,,,,,,,,,,,,,,,,3,1.631000042,2,0.422999859,1,0,1200,528,1,1199,dirt,11111,2019-10-21_17h14.14.122,SurveyExpMetaMem,3.2.3,Win32,60
,,,,,,,,,,,,,,,,,,,,6,3.694999933,4,0.020999908,1,0,1200,391,1,1199,detach,11111,2019-10-21_17h14.14.122,SurveyExpMetaMem,3.2.3,Win32,60
,,,,,,,,,,,,,,,,,,,,6,2.382999897,6,2.338000059,1,0,1200,596,1,1199,factory,11111,2019-10-21_17h14.14.122,SurveyExpMetaMem,3.2.3,Win32,60
,,,,,,,,,,,,,,,,,,,,3,3.789000034,4,1.303999901,1,0,1200,331,1,1199,casket,11111,2019-10-21_17h14.14.122,SurveyExpMetaMem,3.2.3,Win32,60
,,,,,,,,,,,,,,,,,,,,4,4.200000048,7,0.210999966,1,0,1200,177,1,1199,frosting,11111,2019-10-21_17h14.14.122,SurveyExpMetaMem,3.2.3,Win32,60
,,,,,,,,,,,,,,,,,,,,8,2.953999996,3,0.241999865,1,0,1200,1003,1,1199,jealousy,11111,2019-10-21_17h14.14.122,SurveyExpMetaMem,3.2.3,Win32,60
,,,,,,,,,,,,,,,,,,,,4,4.506000042,7,0.196000099,1,0,1200,64,1,1199,brain,11111,2019-10-21_17h14.14.122,SurveyExpMetaMem,3.2.3,Win32,60
,,,,,,,,,,,,,,,,,,,,7,16.43600011,7,0.622999907,1,0,1200,1124,1,1199,seize,11111,2019-10-21_17h14.14.122,SurveyExpMetaMem,3.2.3,Win32,60
,,,,,,,,,,,,,,,,,,,,3,2.609999895,2,1.128000021,1,0,1200,1173,1,1199,lurk,11111,2019-10-21_17h14.14.122,SurveyExpMetaMem,3.2.3,Win32,60
,,,,,,,,,,,,,,,,,,,,4,7.881999969,7,0.178999901,1,0,1200,147,1,1199,cure,11111,2019-10-21_17h14.14.122,SurveyExpMetaMem,3.2.3,Win32,60
,,,,,,,,,,,,,,,,,,,,8,1.27699995,2,0.470000029,1,0,1200,1007,1,1199,tornado,11111,2019-10-21_17h14.14.122,SurveyExpMetaMem,3.2.3,Win32,60
,,,,,,,,,,,,,,,,,,,,4,2.245000124,5,1.671999931,1,0,1200,747,1,1199,furniture,11111,2019-10-21_17h14.14.122,SurveyExpMetaMem,3.2.3,Win32,60
,,,,,,,,,,,,,,,,,,,,3,2.828000069,7,0.297999859,1,0,1200,162,1,1199,royalty,11111,2019-10-21_17h14.14.122,SurveyExpMetaMem,3.2.3,Win32,60
,,,,,,,,,,,,,,,,,,,,4,2.233999968,2,0.256999969,1,0,1200,510,1,1199,excuse,11111,2019-10-21_17h14.14.122,SurveyExpMetaMem,3.2.3,Win32,60
,,,,,,,,,,,,,,,,,,,,3,2.749000072,7,0.45600009,1,0,1200,744,1,1199,village,11111,2019-10-21_17h14.14.122,SurveyExpMetaMem,3.2.3,Win32,60
,,,,,,,,,,,,,,,,,,,,7,2.388000011,2,0.264000177,1,0,1200,903,1,1199,cancer,11111,2019-10-21_17h14.14.122,SurveyExpMetaMem,3.2.3,Win32,60
,,,,,,,,,,,,,,,,,,,,7,2.345999956,3,0.65899992,1,0,1200,1193,1,1199,damn,11111,2019-10-21_17h14.14.122,SurveyExpMetaMem,3.2.3,Win32,60
,,,,,,,,,,,,,,,,,,,,4,5.585999966,6,1.129999876,1,0,1200,739,1,1199,seagull,11111,2019-10-21_17h14.14.122,SurveyExpMetaMem,3.2.3,Win32,60
,,,,,,,,,,,,,,,,,,,,7,2.306000233,8,0.71600008,1,0,1200,286,1,1199,superstar,11111,2019-10-21_17h14.14.122,SurveyExpMetaMem,3.2.3,Win32,60
,,,,,,,,,,,,,,,,,,,,3,3.180000067,7,0.436000109,1,0,1200,722,1,1199,consoled,11111,2019-10-21_17h14.14.122,SurveyExpMetaMem,3.2.3,Win32,60
,,,,,,,,,,,,,,,,,,,,3,2.360000134,2,0.290999889,1,0,1200,342,1,1199,alienation,11111,2019-10-21_17h14.14.122,SurveyExpMetaMem,3.2.3,Win32,60
,,,,,,,,,,,,,,,,,,,,4,2.636999846,7,0.398999929,1,0,1200,680,1,1199,candle,11111,2019-10-21_17h14.14.122,SurveyExpMetaMem,3.2.3,Win32,60
,,,,,,,,,,,,,,,,,,,,6,2.347000122,2,0.143999815,1,0,1200,550,1,1199,fart,11111,2019-10-21_17h14.14.122,SurveyExpMetaMem,3.2.3,Win32,60
,,,,,,,,,,,,,,,,,,,,4,1.681000233,5,3.361999989,1,0,1200,629,1,1199,barn,11111,2019-10-21_17h14.14.122,SurveyExpMetaMem,3.2.3,Win32,60
,,,,,,,,,,,,,,,,,,,,3,2.194999933,6,1.128999949,1,0,1200,122,1,1199,prince,11111,2019-10-21_17h14.14.122,SurveyExpMetaMem,3.2.3,Win32,60
,,,,,,,,,,,,,,,,,,,,4,1.703000069,7,4.407999992,1,0,1200,785,1,1199,pond,11111,2019-10-21_17h14.14.122,SurveyExpMetaMem,3.2.3,Win32,60
,,,,,,,,,,,,,,,,,,,,8,4.84800005,3,1.914999962,1,0,1200,243,1,1199,fame,11111,2019-10-21_17h14.14.122,SurveyExpMetaMem,3.2.3,Win32,60
,,,,,,,,,,,,,,,,,,,,3,5.205999851,7,0.130000114,1,0,1200,887,1,1199,elegant,11111,2019-10-21_17h14.14.122,SurveyExpMetaMem,3.2.3,Win32,60
,,,,,,,,,,,,,,,,,,,,3,0.987999916,2,0.18900013,1,0,1200,381,1,1199,sloppy,11111,2019-10-21_17h14.14.122,SurveyExpMetaMem,3.2.3,Win32,60
,,,,,,,,,,,,,,,,,,,,3,2.363000154,9,0.321000099,1,0,1200,180,1,1199,embrace,11111,2019-10-21_17h14.14.122,SurveyExpMetaMem,3.2.3,Win32,60
,,,,,,,,,,,,,,,,,,,,7,2.315999985,2,0.184999943,1,0,1200,1002,1,1199,wounds,11111,2019-10-21_17h14.14.122,SurveyExpMetaMem,3.2.3,Win32,60
,,,,,,,,,,,,,,,,,,,,6,2.244999886,2,0.120000124,1,0,1200,358,1,1199,waste,11111,2019-10-21_17h14.14.122,SurveyExpMetaMem,3.2.3,Win32,60
,,,,,,,,,,,,,,,,,,,,8,2.008000135,3,1.632999897,1,0,1200,963,1,1199,dreadful,11111,2019-10-21_17h14.14.122,SurveyExpMetaMem,3.2.3,Win32,60
,,,,,,,,,,,,,,,,,,,,4,4.352999926,2,1.087000132,1,0,1200,583,1,1199,obey,11111,2019-10-21_17h14.14.122,SurveyExpMetaMem,3.2.3,Win32,60
,,,,,,,,,,,,,,,,,,,,6,3.156000137,2,0.217000008,1,0,1200,1122,1,1199,gossip,11111,2019-10-21_17h14.14.122,SurveyExpMetaMem,3.2.3,Win32,60
,,,,,,,,,,,,,,,,,,,,3,1.865999937,2,0.245000124,1,0,1200,524,1,1199,sigh,11111,2019-10-21_17h14.14.122,SurveyExpMetaMem,3.2.3,Win32,60
,,,,,,,,,,,,,,,,,,,,6,2.721000195,8,0.388000011,1,0,1200,35,1,1199,bright,11111,2019-10-21_17h14.14.122,SurveyExpMetaMem,3.2.3,Win32,60
,,,,,,,,,,,,,,,,,,,,7,1.404999971,2,0.43599987,1,0,1200,1036,1,1199,anxiety,11111,2019-10-21_17h14.14.122,SurveyExpMetaMem,3.2.3,Win32,60
,,,,,,,,,,,,,,,,,,,,8,1.492999792,2,0.891000032,1,0,1200,1095,1,1199,fright,11111,2019-10-21_17h14.14.122,SurveyExpMetaMem,3.2.3,Win32,60
,,,,,,,,,,,,,,,,,,,,4,3.289000034,8,0.196000099,1,0,1200,249,1,1199,award,11111,2019-10-21_17h14.14.122,SurveyExpMetaMem,3.2.3,Win32,60
,,,,,,,,,,,,,,,,,,,,4,1.52699995,7,0.688999891,1,0,1200,23,1,1199,earn,11111,2019-10-21_17h14.14.122,SurveyExpMetaMem,3.2.3,Win32,60
,,,,,,,,,,,,,,,,,,,,4,2.255000114,6,0.128000021,1,0,1200,748,1,1199,town,11111,2019-10-21_17h14.14.122,SurveyExpMetaMem,3.2.3,Win32,60
,,,,,,,,,,,,,,,,,,,,4,6.125999928,6,2.690000057,1,0,1200,215,1,1199,salary,11111,2019-10-21_17h14.14.122,SurveyExpMetaMem,3.2.3,Win32,60
,,,,,,,,,,,,,,,,,,,,3,4.039000034,7,0.327000141,1,0,1200,504,1,1199,cane,11111,2019-10-21_17h14.14.122,SurveyExpMetaMem,3.2.3,Win32,60
,,,,,,,,,,,,,,,,,,,,8,4.105999947,2,0.621000051,1,0,1200,1012,1,1199,gunshot,11111,2019-10-21_17h14.14.122,SurveyExpMetaMem,3.2.3,Win32,60
,,,,,,,,,,,,,,,,,,,,3,2.899000168,6,0.277999878,1,0,1200,768,1,1199,trait,11111,2019-10-21_17h14.14.122,SurveyExpMetaMem,3.2.3,Win32,60
,,,,,,,,,,,,,,,,,,,,4,3.789999962,2,0.736999989,1,0,1200,934,1,1199,sob,11111,2019-10-21_17h14.14.122,SurveyExpMetaMem,3.2.3,Win32,60
,,,,,,,,,,,,,,,,,,,,3,1.720000029,2,0.186000109,1,0,1200,927,1,1199,jail,11111,2019-10-21_17h14.14.122,SurveyExpMetaMem,3.2.3,Win32,60
,,,,,,,,,,,,,,,,,,,,3,2.507999897,7,2.811999798,1,0,1200,92,1,1199,justice,11111,2019-10-21_17h14.14.122,SurveyExpMetaMem,3.2.3,Win32,60
,,,,,,,,,,,,,,,,,,,,3,4.022000074,8,0.351999998,1,0,1200,654,1,1199,brief,11111,2019-10-21_17h14.14.122,SurveyExpMetaMem,3.2.3,Win32,60
,,,,,,,,,,,,,,,,,,,,3,5.84800005,8,0.113999844,1,0,1200,31,1,1199,brownie,11111,2019-10-21_17h14.14.122,SurveyExpMetaMem,3.2.3,Win32,60
,,,,,,,,,,,,,,,,,,,,7,1.975999832,8,0.554999828,1,0,1200,1162,1,1199,baffle,11111,2019-10-21_17h14.14.122,SurveyExpMetaMem,3.2.3,Win32,60
,,,,,,,,,,,,,,,,,,,,4,2.364000082,7,0.430999994,1,0,1200,678,1,1199,lightbulb,11111,2019-10-21_17h14.14.122,SurveyExpMetaMem,3.2.3,Win32,60
,,,,,,,,,,,,,,,,,,,,2,1.436000109,4,0.704999924,1,0,1200,633,1,1199,cattle,11111,2019-10-21_17h14.14.122,SurveyExpMetaMem,3.2.3,Win32,60
,,,,,,,,,,,,,,,,,,,,2,5.061999798,3,0.971000195,1,0,1200,450,1,1199,overcast,11111,2019-10-21_17h14.14.122,SurveyExpMetaMem,3.2.3,Win32,60
,,,,,,,,,,,,,,,,,,,,8,1.269000053,2,1.041000128,1,0,1200,1090,1,1199,destruction,11111,2019-10-21_17h14.14.122,SurveyExpMetaMem,3.2.3,Win32,60
,,,,,,,,,,,,,,,,,,,,9,2.102999926,3,2.676999807,1,0,1200,1021,1,1199,attack,11111,2019-10-21_17h14.14.122,SurveyExpMetaMem,3.2.3,Win32,60
,,,,,,,,,,,,,,,,,,,,3,4.172999859,6,1.775000095,1,0,1200,833,1,1199,nice,11111,2019-10-21_17h14.14.122,SurveyExpMetaMem,3.2.3,Win32,60
,,,,,,,,,,,,,,,,,,,,6,7.450000048,7,0.204999924,1,0,1200,556,1,1199,allege,11111,2019-10-21_17h14.14.122,SurveyExpMetaMem,3.2.3,Win32,60
,,,,,,,,,,,,,,,,,,,,8,1.157999992,4,1.678999901,1,0,1200,1172,1,1199,overwhelmed,11111,2019-10-21_17h14.14.122,SurveyExpMetaMem,3.2.3,Win32,60
,,,,,,,,,,,,,,,,,,,,3,4.078000069,7,0.111999989,1,0,1200,140,1,1199,riches,11111,2019-10-21_17h14.14.122,SurveyExpMetaMem,3.2.3,Win32,60
,,,,,,,,,,,,,,,,,,,,4,5.399000168,3,2.129999876,1,0,1200,431,1,1199,itch,11111,2019-10-21_17h14.14.122,SurveyExpMetaMem,3.2.3,Win32,60
,,,,,,,,,,,,,,,,,,,,6,2.371000051,3,0.395999908,1,0,1200,480,1,1199,hinder,11111,2019-10-21_17h14.14.122,SurveyExpMetaMem,3.2.3,Win32,60
,,,,,,,,,,,,,,,,,,,,7,1.570999861,2,0.503000021,1,0,1200,351,1,1199,germs,11111,2019-10-21_17h14.14.122,SurveyExpMetaMem,3.2.3,Win32,60
,,,,,,,,,,,,,,,,,,,,8,1.42599988,1,0.463000059,1,0,1200,1149,1,1199,fight,11111,2019-10-21_17h14.14.122,SurveyExpMetaMem,3.2.3,Win32,60
,,,,,,,,,,,,,,,,,,,,7,4.263000011,6,2.443000078,1,0,1200,78,1,1199,energetic,11111,2019-10-21_17h14.14.122,SurveyExpMetaMem,3.2.3,Win32,60
,,,,,,,,,,,,,,,,,,,,3,2.603000164,4,0.982000113,1,0,1200,406,1,1199,tired,11111,2019-10-21_17h14.14.122,SurveyExpMetaMem,3.2.3,Win32,60
,,,,,,,,,,,,,,,,,,,,9,11.32500005,7,1.651000023,1,0,1200,944,1,1199,kill,11111,2019-10-21_17h14.14.122,SurveyExpMetaMem,3.2.3,Win32,60
,,,,,,,,,,,,,,,,,,,,3,3.386000156,8,1.299000025,1,0,1200,665,1,1199,read,11111,2019-10-21_17h14.14.122,SurveyExpMetaMem,3.2.3,Win32,60
,,,,,,,,,,,,,,,,,,,,4,3.269999981,2,0.042000055,1,0,1200,593,1,1199,errand,11111,2019-10-21_17h14.14.122,SurveyExpMetaMem,3.2.3,Win32,60
,,,,,,,,,,,,,,,,,,,,1,4.506999969,6,1.343999863,1,0,1200,594,1,1199,moss,11111,2019-10-21_17h14.14.122,SurveyExpMetaMem,3.2.3,Win32,60
,,,,,,,,,,,,,,,,,,,,3,2.059999943,6,0.736000061,1,0,1200,659,1,1199,hair,11111,2019-10-21_17h14.14.122,SurveyExpMetaMem,3.2.3,Win32,60
,,,,,,,,,,,,,,,,,,,,3,15.99600005,1,0.589999914,1,0,1200,361,1,1199,glum,11111,2019-10-21_17h14.14.122,SurveyExpMetaMem,3.2.3,Win32,60
,,,,,,,,,,,,,,,,,,,,6,1.90199995,7,0.095999956,1,0,1200,130,1,1199,great,11111,2019-10-21_17h14.14.122,SurveyExpMetaMem,3.2.3,Win32,60
,,,,,,,,,,,,,,,,,,,,5,4.034000158,5,0.593999863,1,0,1200,719,1,1199,western,11111,2019-10-21_17h14.14.122,SurveyExpMetaMem,3.2.3,Win32,60
,,,,,,,,,,,,,,,,,,,,7,7.379999876,6,1.91899991,1,0,1200,634,1,1199,glacier,11111,2019-10-21_17h14.14.122,SurveyExpMetaMem,3.2.3,Win32,60
,,,,,,,,,,,,,,,,,,,,4,3.85800004,6,0.852999926,1,0,1200,437,1,1199,blubber,11111,2019-10-21_17h14.14.122,SurveyExpMetaMem,3.2.3,Win32,60
,,,,,,,,,,,,,,,,,,,,7,1.855000019,6,1.019999981,1,0,1200,558,1,1199,punk,11111,2019-10-21_17h14.14.122,SurveyExpMetaMem,3.2.3,Win32,60
,,,,,,,,,,,,,,,,,,,,4,4.275000095,3,0.963000059,1,0,1200,471,1,1199,chump,11111,2019-10-21_17h14.14.122,SurveyExpMetaMem,3.2.3,Win32,60
,,,,,,,,,,,,,,,,,,,,3,3.494999886,3,1.374000072,1,0,1200,448,1,1199,depart,11111,2019-10-21_17h14.14.122,SurveyExpMetaMem,3.2.3,Win32,60
,,,,,,,,,,,,,,,,,,,,3,3.375999928,4,2.242000103,1,0,1200,209,1,1199,husband,11111,2019-10-21_17h14.14.122,SurveyExpMetaMem,3.2.3,Win32,60
,,,,,,,,,,,,,,,,,,,,4,6.964999914,2,0.786999941,1,0,1200,411,1,1199,bitter,11111,2019-10-21_17h14.14.122,SurveyExpMetaMem,3.2.3,Win32,60
,,,,,,,,,,,,,,,,,,,,3,22.72300005,6,1.344000101,1,0,1200,565,1,1199,frozen,11111,2019-10-21_17h14.14.122,SurveyExpMetaMem,3.2.3,Win32,60
,,,,,,,,,,,,,,,,,,,,6,3.042999983,6,0.519999981,1,0,1200,738,1,1199,horse,11111,2019-10-21_17h14.14.122,SurveyExpMetaMem,3.2.3,Win32,60
,,,,,,,,,,,,,,,,,,,,7,1.131000042,7,0.403000116,1,0,1200,183,1,1199,congratulate,11111,2019-10-21_17h14.14.122,SurveyExpMetaMem,3.2.3,Win32,60
,,,,,,,,,,,,,,,,,,,,7,1.720000029,4,0.881999969,1,0,1200,241,1,1199,car,11111,2019-10-21_17h14.14.122,SurveyExpMetaMem,3.2.3,Win32,60
,,,,,,,,,,,,,,,,,,,,3,2.530999899,6,0.207999945,1,0,1200,899,1,1199,relax,11111,2019-10-21_17h14.14.122,SurveyExpMetaMem,3.2.3,Win32,60
,,,,,,,,,,,,,,,,,,,,4,4.166000128,5,0.971999884,1,0,1200,781,1,1199,emerald,11111,2019-10-21_17h14.14.122,SurveyExpMetaMem,3.2.3,Win32,60
,,,,,,,,,,,,,,,,,,,,3,2.680000067,7,0.970999956,1,0,1200,813,1,1199,walking,11111,2019-10-21_17h14.14.122,SurveyExpMetaMem,3.2.3,Win32,60
,,,,,,,,,,,,,,,,,,,,6,1.67200017,3,0.707999945,1,0,1200,1191,1,1199,evade,11111,2019-10-21_17h14.14.122,SurveyExpMetaMem,3.2.3,Win32,60
,,,,,,,,,,,,,,,,,,,,3,2.972000122,7,0.694000006,1,0,1200,76,1,1199,midnight,11111,2019-10-21_17h14.14.122,SurveyExpMetaMem,3.2.3,Win32,60
,,,,,,,,,,,,,,,,,,,,8,1.45600009,3,3.894000053,1,0,1200,1120,1,1199,gun,11111,2019-10-21_17h14.14.122,SurveyExpMetaMem,3.2.3,Win32,60
,,,,,,,,,,,,,,,,,,,,3,31.79900002,6,0.114000082,1,0,1200,186,1,1199,holiday,11111,2019-10-21_17h14.14.122,SurveyExpMetaMem,3.2.3,Win32,60
,,,,,,,,,,,,,,,,,,,,3,3.267999887,3,0.430999994,1,0,1200,1160,1,1199,enlist,11111,2019-10-21_17h14.14.122,SurveyExpMetaMem,3.2.3,Win32,60
,,,,,,,,,,,,,,,,,,,,4,1.680999994,6,0.881999969,1,0,1200,22,1,1199,doughnut,11111,2019-10-21_17h14.14.122,SurveyExpMetaMem,3.2.3,Win32,60
,,,,,,,,,,,,,,,,,,,,6,1.299000025,6,0.881999969,1,0,1200,211,1,1199,surfer,11111,2019-10-21_17h14.14.122,SurveyExpMetaMem,3.2.3,Win32,60
,,,,,,,,,,,,,,,,,,,,6,2.934999943,4,0.998999834,1,0,1200,5,1,1199,drunk,11111,2019-10-21_17h14.14.122,SurveyExpMetaMem,3.2.3,Win32,60
,,,,,,,,,,,,,,,,,,,,4,3.568000078,6,0.782999992,1,0,1200,6,1,1199,chest,11111,2019-10-21_17h14.14.122,SurveyExpMetaMem,3.2.3,Win32,60
,,,,,,,,,,,,,,,,,,,,5,2.697999954,5,0.047999859,1,0,1200,553,1,1199,corner,11111,2019-10-21_17h14.14.122,SurveyExpMetaMem,3.2.3,Win32,60
,,,,,,,,,,,,,,,,,,,,6,1.482000113,4,0.364999771,1,0,1200,1134,1,1199,obsessed,11111,2019-10-21_17h14.14.122,SurveyExpMetaMem,3.2.3,Win32,60
,,,,,,,,,,,,,,,,,,,,7,1.584000111,3,0.281000137,1,0,1200,378,1,1199,dislike,11111,2019-10-21_17h14.14.122,SurveyExpMetaMem,3.2.3,Win32,60
,,,,,,,,,,,,,,,,,,,,7,1.315999985,2,0.181999922,1,0,1200,1011,1,1199,robber,11111,2019-10-21_17h14.14.122,SurveyExpMetaMem,3.2.3,Win32,60
,,,,,,,,,,,,,,,,,,,,7,2.70299983,7,0.013000011,1,0,1200,97,1,1199,enthusiastic,11111,2019-10-21_17h14.14.122,SurveyExpMetaMem,3.2.3,Win32,60
,,,,,,,,,,,,,,,,,,,,6,2.282999992,3,0.657000065,1,0,1200,1013,1,1199,guilty,11111,2019-10-21_17h14.14.122,SurveyExpMetaMem,3.2.3,Win32,60
,,,,,,,,,,,,,,,,,,,,7,2.538000107,7,0.48300004,1,0,1200,637,1,1199,flock,11111,2019-10-21_17h14.14.122,SurveyExpMetaMem,3.2.3,Win32,60
,,,,,,,,,,,,,,,,,,,,6,4.03399992,4,0.515999794,1,0,1200,1177,1,1199,pang,11111,2019-10-21_17h14.14.122,SurveyExpMetaMem,3.2.3,Win32,60
,,,,,,,,,,,,,,,,,,,,4,1.798000097,2,0.315000057,1,0,1200,1006,1,1199,rash,11111,2019-10-21_17h14.14.122,SurveyExpMetaMem,3.2.3,Win32,60
,,,,,,,,,,,,,,,,,,,,4,1.391000032,2,0.192000151,1,0,1200,330,1,1199,sunburn,11111,2019-10-21_17h14.14.122,SurveyExpMetaMem,3.2.3,Win32,60
,,,,,,,,,,,,,,,,,,,,7,1.753999949,2,0.251999855,1,0,1200,1141,1,1199,shark,11111,2019-10-21_17h14.14.122,SurveyExpMetaMem,3.2.3,Win32,60
,,,,,,,,,,,,,,,,,,,,7,5.24000001,4,0.49000001,1,0,1200,533,1,1199,busy,11111,2019-10-21_17h14.14.122,SurveyExpMetaMem,3.2.3,Win32,60
,,,,,,,,,,,,,,,,,,,,7,3.917999983,6,0.996999979,1,0,1200,1150,1,1199,forceful,11111,2019-10-21_17h14.14.122,SurveyExpMetaMem,3.2.3,Win32,60
,,,,,,,,,,,,,,,,,,,,6,3.289000034,3,1.258999825,1,0,1200,479,1,1199,period,11111,2019-10-21_17h14.14.122,SurveyExpMetaMem,3.2.3,Win32,60
,,,,,,,,,,,,,,,,,,,,2,2.659000158,8,0.921999931,1,0,1200,889,1,1199,wise,11111,2019-10-21_17h14.14.122,SurveyExpMetaMem,3.2.3,Win32,60
,,,,,,,,,,,,,,,,,,,,7,3.151000023,2,0.68200016,1,0,1200,924,1,1199,terrible,11111,2019-10-21_17h14.14.122,SurveyExpMetaMem,3.2.3,Win32,60
,,,,,,,,,,,,,,,,,,,,8,1.796999931,2,0.694000006,1,0,1200,1069,1,1199,defeat,11111,2019-10-21_17h14.14.122,SurveyExpMetaMem,3.2.3,Win32,60
,,,,,,,,,,,,,,,,,,,,4,2.681999922,5,0.120000124,1,0,1200,694,1,1199,pecan,11111,2019-10-21_17h14.14.122,SurveyExpMetaMem,3.2.3,Win32,60
,,,,,,,,,,,,,,,,,,,,8,3.171999931,9,0.286999941,1,0,1200,74,1,1199,explore,11111,2019-10-21_17h14.14.122,SurveyExpMetaMem,3.2.3,Win32,60
,,,,,,,,,,,,,,,,,,,,4,2.47300005,7,0.223999977,1,0,1200,7,1,1199,duet,11111,2019-10-21_17h14.14.122,SurveyExpMetaMem,3.2.3,Win32,60
,,,,,,,,,,,,,,,,,,,,7,1.69900012,2,1.347000122,1,0,1200,1175,1,1199,prostitute,11111,2019-10-21_17h14.14.122,SurveyExpMetaMem,3.2.3,Win32,60
,,,,,,,,,,,,,,,,,,,,4,5.139999866,2,0.106999874,1,0,1200,938,1,1199,seasick,11111,2019-10-21_17h14.14.122,SurveyExpMetaMem,3.2.3,Win32,60
,,,,,,,,,,,,,,,,,,,,4,2.105000019,6,1.155999899,1,0,1200,609,1,1199,candlestick,11111,2019-10-21_17h14.14.122,SurveyExpMetaMem,3.2.3,Win32,60
,,,,,,,,,,,,,,,,,,,,7,2.226999998,2,0.542999983,1,0,1200,441,1,1199,prohibit,11111,2019-10-21_17h14.14.122,SurveyExpMetaMem,3.2.3,Win32,60
,,,,,,,,,,,,,,,,,,,,7,2.389999866,1,0.470999956,1,0,1200,930,1,1199,poison,11111,2019-10-21_17h14.14.122,SurveyExpMetaMem,3.2.3,Win32,60
,,,,,,,,,,,,,,,,,,,,7,3.082000017,2,0.09499979,1,0,1200,336,1,1199,wasteful,11111,2019-10-21_17h14.14.122,SurveyExpMetaMem,3.2.3,Win32,60
,,,,,,,,,,,,,,,,,,,,6,2.661999941,3,0.745000124,1,0,1200,307,1,1199,sick,11111,2019-10-21_17h14.14.122,SurveyExpMetaMem,3.2.3,Win32,60
,,,,,,,,,,,,,,,,,,,,4,23.8349998,6,0.769999981,1,0,1200,655,1,1199,name,11111,2019-10-21_17h14.14.122,SurveyExpMetaMem,3.2.3,Win32,60
,,,,,,,,,,,,,,,,,,,,4,3.236999989,2,0.287999868,1,0,1200,333,1,1199,weak,11111,2019-10-21_17h14.14.122,SurveyExpMetaMem,3.2.3,Win32,60
,,,,,,,,,,,,,,,,,,,,4,1.877000093,8,1.988000154,1,0,1200,784,1,1199,logical,11111,2019-10-21_17h14.14.122,SurveyExpMetaMem,3.2.3,Win32,60
,,,,,,,,,,,,,,,,,,,,6,2.351999998,7,0.359999895,1,0,1200,566,1,1199,obscure,11111,2019-10-21_17h14.14.122,SurveyExpMetaMem,3.2.3,Win32,60
,,,,,,,,,,,,,,,,,,,,3,1.70299983,5,0.819999933,1,0,1200,795,1,1199,soup,11111,2019-10-21_17h14.14.122,SurveyExpMetaMem,3.2.3,Win32,60
,,,,,,,,,,,,,,,,,,,,4,1.605000019,2,0.256999969,1,0,1200,463,1,1199,limp,11111,2019-10-21_17h14.14.122,SurveyExpMetaMem,3.2.3,Win32,60
,,,,,,,,,,,,,,,,,,,,3,1.924999952,8,0.305000067,1,0,1200,787,1,1199,dawn,11111,2019-10-21_17h14.14.122,SurveyExpMetaMem,3.2.3,Win32,60
,,,,,,,,,,,,,,,,,,,,4,3.196000099,2,0.04700017,1,0,1200,525,1,1199,stagnant,11111,2019-10-21_17h14.14.122,SurveyExpMetaMem,3.2.3,Win32,60
,,,,,,,,,,,,,,,,,,,,7,2.26699996,6,0.494999886,1,0,1200,154,1,1199,race,11111,2019-10-21_17h14.14.122,SurveyExpMetaMem,3.2.3,Win32,60
,,,,,,,,,,,,,,,,,,,,4,1.794999838,2,0.467000008,1,0,1200,570,1,1199,muddy,11111,2019-10-21_17h14.14.122,SurveyExpMetaMem,3.2.3,Win32,60
,,,,,,,,,,,,,,,,,,,,4,2.285000086,6,0.261000156,1,0,1200,552,1,1199,shadow,11111,2019-10-21_17h14.14.122,SurveyExpMetaMem,3.2.3,Win32,60
,,,,,,,,,,,,,,,,,,,,4,2.529000044,3,0.09100008,1,0,1200,355,1,1199,graveyard,11111,2019-10-21_17h14.14.122,SurveyExpMetaMem,3.2.3,Win32,60
,,,,,,,,,,,,,,,,,,,,4,2.65899992,3,0.337000132,1,0,1200,1189,1,1199,lava,11111,2019-10-21_17h14.14.122,SurveyExpMetaMem,3.2.3,Win32,60
,,,,,,,,,,,,,,,,,,,,6,1.56099987,7,0.937999964,1,0,1200,32,1,1199,festival,11111,2019-10-21_17h14.14.122,SurveyExpMetaMem,3.2.3,Win32,60
,,,,,,,,,,,,,,,,,,,,4,3.462999821,5,0.252999783,1,0,1200,642,1,1199,newspaper,11111,2019-10-21_17h14.14.122,SurveyExpMetaMem,3.2.3,Win32,60
,,,,,,,,,,,,,,,,,,,,4,3.145999908,2,0.273999929,1,0,1200,309,1,1199,homeless,11111,2019-10-21_17h14.14.122,SurveyExpMetaMem,3.2.3,Win32,60
,,,,,,,,,,,,,,,,,,,,7,2.724999905,7,0.223999977,1,0,1200,58,1,1199,boost,11111,2019-10-21_17h14.14.122,SurveyExpMetaMem,3.2.3,Win32,60
,,,,,,,,,,,,,,,,,,,,3,1.926000118,6,0.59800005,1,0,1200,700,1,1199,frog,11111,2019-10-21_17h14.14.122,SurveyExpMetaMem,3.2.3,Win32,60
,,,,,,,,,,,,,,,,,,,,3,2.866000175,4,0.927999973,1,0,1200,746,1,1199,proper,11111,2019-10-21_17h14.14.122,SurveyExpMetaMem,3.2.3,Win32,60
,,,,,,,,,,,,,,,,,,,,3,3.340000153,6,0.49000001,1,0,1200,1158,1,1199,dentist,11111,2019-10-21_17h14.14.122,SurveyExpMetaMem,3.2.3,Win32,60
,,,,,,,,,,,,,,,,,,,,6,2.525000095,7,0.941999912,1,0,1200,19,1,1199,firefighter,11111,2019-10-21_17h14.14.122,SurveyExpMetaMem,3.2.3,Win32,60
,,,,,,,,,,,,,,,,,,,,6,2.322000027,6,0.536999941,1,0,1200,14,1,1199,attain,11111,2019-10-21_17h14.14.122,SurveyExpMetaMem,3.2.3,Win32,60
,,,,,,,,,,,,,,,,,,,,4,2.763999939,3,0.388999939,1,0,1200,368,1,1199,dreary,11111,2019-10-21_17h14.14.122,SurveyExpMetaMem,3.2.3,Win32,60
,,,,,,,,,,,,,,,,,,,,6,3.84800005,5,0.770000219,1,0,1200,766,1,1199,flag,11111,2019-10-21_17h14.14.122,SurveyExpMetaMem,3.2.3,Win32,60
,,,,,,,,,,,,,,,,,,,,6,2.336000204,3,0.264999866,1,0,1200,483,1,1199,condescension,11111,2019-10-21_17h14.14.122,SurveyExpMetaMem,3.2.3,Win32,60
,,,,,,,,,,,,,,,,,,,,8,1.639000177,2,0.236000061,1,0,1200,1130,1,1199,slut,11111,2019-10-21_17h14.14.122,SurveyExpMetaMem,3.2.3,Win32,60
,,,,,,,,,,,,,,,,,,,,6,2.276000023,3,1.075999975,1,0,1200,1081,1,1199,damage,11111,2019-10-21_17h14.14.122,SurveyExpMetaMem,3.2.3,Win32,60
,,,,,,,,,,,,,,,,,,,,5,4.950000048,6,1.875,1,0,1200,60,1,1199,bikini,11111,2019-10-21_17h14.14.122,SurveyExpMetaMem,3.2.3,Win32,60
,,,,,,,,,,,,,,,,,,,,4,3.625999928,6,1.934000015,1,0,1200,780,1,1199,grass,11111,2019-10-21_17h14.14.122,SurveyExpMetaMem,3.2.3,Win32,60
,,,,,,,,,,,,,,,,,,,,3,5.64199996,6,0.351000071,1,0,1200,627,1,1199,introductory,11111,2019-10-21_17h14.14.122,SurveyExpMetaMem,3.2.3,Win32,60
,,,,,,,,,,,,,,,,,,,,3,2.309000015,2,0.177999973,1,0,1200,329,1,1199,worse,11111,2019-10-21_17h14.14.122,SurveyExpMetaMem,3.2.3,Win32,60
,,,,,,,,,,,,,,,,,,,,8,4.375999928,1,1.278000116,1,0,1200,926,1,1199,dead,11111,2019-10-21_17h14.14.122,SurveyExpMetaMem,3.2.3,Win32,60
,,,,,,,,,,,,,,,,,,,,8,2.727999926,8,0.182999849,1,0,1200,291,1,1199,fantastic,11111,2019-10-21_17h14.14.122,SurveyExpMetaMem,3.2.3,Win32,60
,,,,,,,,,,,,,,,,,,,,3,3.226999998,8,1.016000032,1,0,1200,636,1,1199,refine,11111,2019-10-21_17h14.14.122,SurveyExpMetaMem,3.2.3,Win32,60
,,,,,,,,,,,,,,,,,,,,4,3.360000134,6,0.25,1,0,1200,816,1,1199,hippotamus,11111,2019-10-21_17h14.14.122,SurveyExpMetaMem,3.2.3,Win32,60
,,,,,,,,,,,,,,,,,,,,4,2.686999798,2,0.963000059,1,0,1200,1136,1,1199,appall,11111,2019-10-21_17h14.14.122,SurveyExpMetaMem,3.2.3,Win32,60
,,,,,,,,,,,,,,,,,,,,6,2.220999956,3,1.204999924,1,0,1200,770,1,1199,buffalo,11111,2019-10-21_17h14.14.122,SurveyExpMetaMem,3.2.3,Win32,60
,,,,,,,,,,,,,,,,,,,,4,2.723999977,3,0.986999989,1,0,1200,339,1,1199,chore,11111,2019-10-21_17h14.14.122,SurveyExpMetaMem,3.2.3,Win32,60
,,,,,,,,,,,,,,,,,,,,7,2.072999954,2,0.889000177,1,0,1200,976,1,1199,tumor,11111,2019-10-21_17h14.14.122,SurveyExpMetaMem,3.2.3,Win32,60
,,,,,,,,,,,,,,,,,,,,7,107.3759999,6,0.643999815,1,0,1200,205,1,1199,outspoken,11111,2019-10-21_17h14.14.122,SurveyExpMetaMem,3.2.3,Win32,60
,,,,,,,,,,,,,,,,,,,,4,1.635999918,6,0.569999933,1,0,1200,87,1,1199,cookie,11111,2019-10-21_17h14.14.122,SurveyExpMetaMem,3.2.3,Win32,60
,,,,,,,,,,,,,,,,,,,,6,2.032000065,6,0.470000029,1,0,1200,132,1,1199,silly,11111,2019-10-21_17h14.14.122,SurveyExpMetaMem,3.2.3,Win32,60
,,,,,,,,,,,,,,,,,,,,4,3.423000097,6,0.463999987,1,0,1200,257,1,1199,cockpit,11111,2019-10-21_17h14.14.122,SurveyExpMetaMem,3.2.3,Win32,60
,,,,,,,,,,,,,,,,,,,,6,2.440000057,3,0.177000046,1,0,1200,947,1,1199,shame,11111,2019-10-21_17h14.14.122,SurveyExpMetaMem,3.2.3,Win32,60
,,,,,,,,,,,,,,,,,,,,4,22.05800009,6,0.061000109,1,0,1200,13,1,1199,mingle,11111,2019-10-21_17h14.14.122,SurveyExpMetaMem,3.2.3,Win32,60
,,,,,,,,,,,,,,,,,,,,3,2.062999964,7,0.874000072,1,0,1200,852,1,1199,caring,11111,2019-10-21_17h14.14.122,SurveyExpMetaMem,3.2.3,Win32,60
,,,,,,,,,,,,,,,,,,,,4,1.541000128,2,0.148000002,1,0,1200,392,1,1199,moody,11111,2019-10-21_17h14.14.122,SurveyExpMetaMem,3.2.3,Win32,60
,,,,,,,,,,,,,,,,,,,,3,5.546999931,3,1.192000151,1,0,1200,818,1,1199,priest,11111,2019-10-21_17h14.14.122,SurveyExpMetaMem,3.2.3,Win32,60
,,,,,,,,,,,,,,,,,,,,4,3.177000046,7,0.585999966,1,0,1200,647,1,1199,accord,11111,2019-10-21_17h14.14.122,SurveyExpMetaMem,3.2.3,Win32,60
,,,,,,,,,,,,,,,,,,,,3,2.720000029,3,0.502000093,1,0,1200,407,1,1199,handicap,11111,2019-10-21_17h14.14.122,SurveyExpMetaMem,3.2.3,Win32,60
,,,,,,,,,,,,,,,,,,,,3,2.569000006,6,1.143000126,1,0,1200,749,1,1199,glasses,11111,2019-10-21_17h14.14.122,SurveyExpMetaMem,3.2.3,Win32,60
,,,,,,,,,,,,,,,,,,,,7,3.493000031,3,0.375,1,0,1200,1156,1,1199,weapon,11111,2019-10-21_17h14.14.122,SurveyExpMetaMem,3.2.3,Win32,60
,,,,,,,,,,,,,,,,,,,,4,4.204999924,7,0.265000105,1,0,1200,62,1,1199,interested,11111,2019-10-21_17h14.14.122,SurveyExpMetaMem,3.2.3,Win32,60
,,,,,,,,,,,,,,,,,,,,8,5.791999817,8,0.402999878,1,0,1200,199,1,1199,laughter,11111,2019-10-21_17h14.14.122,SurveyExpMetaMem,3.2.3,Win32,60
,,,,,,,,,,,,,,,,,,,,8,1.355999947,8,0.640999794,1,0,1200,271,1,1199,applaud,11111,2019-10-21_17h14.14.122,SurveyExpMetaMem,3.2.3,Win32,60
,,,,,,,,,,,,,,,,,,,,8,2.638000011,3,0.671999931,1,0,1200,340,1,1199,coward,11111,2019-10-21_17h14.14.122,SurveyExpMetaMem,3.2.3,Win32,60
,,,,,,,,,,,,,,,,,,,,2,1.963999987,6,0.625999928,1,0,1200,774,1,1199,leaves,11111,2019-10-21_17h14.14.122,SurveyExpMetaMem,3.2.3,Win32,60
,,,,,,,,,,,,,,,,,,,,8,2.726999998,8,0.721999884,1,0,1200,214,1,1199,revive,11111,2019-10-21_17h14.14.122,SurveyExpMetaMem,3.2.3,Win32,60
,,,,,,,,,,,,,,,,,,,,6,3.575000048,6,0.789000034,1,0,1200,134,1,1199,dollar,11111,2019-10-21_17h14.14.122,SurveyExpMetaMem,3.2.3,Win32,60
,,,,,,,,,,,,,,,,,,,,6,4.72300005,2,0.22300005,1,0,1200,1106,1,1199,pushy,11111,2019-10-21_17h14.14.122,SurveyExpMetaMem,3.2.3,Win32,60
,,,,,,,,,,,,,,,,,,,,3,3.872999907,4,0.914999962,1,0,1200,731,1,1199,decency,11111,2019-10-21_17h14.14.122,SurveyExpMetaMem,3.2.3,Win32,60
,,,,,,,,,,,,,,,,,,,,4,2.710000038,2,0.294000149,1,0,1200,343,1,1199,fever,11111,2019-10-21_17h14.14.122,SurveyExpMetaMem,3.2.3,Win32,60
,,,,,,,,,,,,,,,,,,,,3,2.708999872,7,0.513999939,1,0,1200,220,1,1199,reef,11111,2019-10-21_17h14.14.122,SurveyExpMetaMem,3.2.3,Win32,60
,,,,,,,,,,,,,,,,,,,,8,2.309999943,8,0.174999952,1,0,1200,256,1,1199,galaxy,11111,2019-10-21_17h14.14.122,SurveyExpMetaMem,3.2.3,Win32,60
,,,,,,,,,,,,,,,,,,,,4,3.69299984,5,0.223999977,1,0,1200,677,1,1199,handwriting,11111,2019-10-21_17h14.14.122,SurveyExpMetaMem,3.2.3,Win32,60
,,,,,,,,,,,,,,,,,,,,4,2.345999956,6,0.562999964,1,0,1200,790,1,1199,binoculars,11111,2019-10-21_17h14.14.122,SurveyExpMetaMem,3.2.3,Win32,60
,,,,,,,,,,,,,,,,,,,,6,4.691999912,5,2.506000042,1,0,1200,676,1,1199,straighten,11111,2019-10-21_17h14.14.122,SurveyExpMetaMem,3.2.3,Win32,60
,,,,,,,,,,,,,,,,,,,,4,1.953999996,5,0.344000101,1,0,1200,575,1,1199,paragraph,11111,2019-10-21_17h14.14.122,SurveyExpMetaMem,3.2.3,Win32,60
,,,,,,,,,,,,,,,,,,,,7,3.651000023,3,0.974999905,1,0,1200,1079,1,1199,critic,11111,2019-10-21_17h14.14.122,SurveyExpMetaMem,3.2.3,Win32,60
,,,,,,,,,,,,,,,,,,,,7,3.356999874,8,0.266000032,1,0,1200,230,1,1199,eager,11111,2019-10-21_17h14.14.122,SurveyExpMetaMem,3.2.3,Win32,60
,,,,,,,,,,,,,,,,,,,,4,2.509000063,6,1.125,1,0,1200,843,1,1199,garden,11111,2019-10-21_17h14.14.122,SurveyExpMetaMem,3.2.3,Win32,60
,,,,,,,,,,,,,,,,,,,,6,1.361999989,3,0.404000044,1,0,1200,485,1,1199,pinch,11111,2019-10-21_17h14.14.122,SurveyExpMetaMem,3.2.3,Win32,60
,,,,,,,,,,,,,,,,,,,,4,2.448999882,7,0.252000093,1,0,1200,107,1,1199,sandwich,11111,2019-10-21_17h14.14.122,SurveyExpMetaMem,3.2.3,Win32,60
,,,,,,,,,,,,,,,,,,,,8,2.076999903,3,0.512000084,1,0,1200,1103,1,1199,mob,11111,2019-10-21_17h14.14.122,SurveyExpMetaMem,3.2.3,Win32,60
,,,,,,,,,,,,,,,,,,,,8,6041.308,3,1.684000015,1,0,1200,1026,1,1199,crisis,11111,2019-10-21_17h14.14.122,SurveyExpMetaMem,3.2.3,Win32,60
,,,,,,,,,,,,,,,,,,,,2,4.717999935,2,0.497999907,1,0,1200,517,1,1199,habit,11111,2019-10-21_17h14.14.122,SurveyExpMetaMem,3.2.3,Win32,60
,,,,,,,,,,,,,,,,,,,,7,5.968999863,6,0.582000017,1,0,1200,1017,1,1199,aggravated,11111,2019-10-21_17h14.14.122,SurveyExpMetaMem,3.2.3,Win32,60
,,,,,,,,,,,,,,,,,,,,3,3.483999968,5,0.86500001,1,0,1200,674,1,1199,fitting,11111,2019-10-21_17h14.14.122,SurveyExpMetaMem,3.2.3,Win32,60
,,,,,,,,,,,,,,,,,,,,2,8.539000034,2,4.653999805,1,0,1200,428,1,1199,end,11111,2019-10-21_17h14.14.122,SurveyExpMetaMem,3.2.3,Win32,60
,,,,,,,,,,,,,,,,,,,,8,2.015000105,4,1.415999889,1,0,1200,253,1,1199,soldier,11111,2019-10-21_17h14.14.122,SurveyExpMetaMem,3.2.3,Win32,60
,,,,,,,,,,,,,,,,,,,,7,2.302999973,8,0.553000212,1,0,1200,135,1,1199,applause,11111,2019-10-21_17h14.14.122,SurveyExpMetaMem,3.2.3,Win32,60
,,,,,,,,,,,,,,,,,,,,3,2.967000008,2,0.546999931,1,0,1200,1121,1,1199,ban,11111,2019-10-21_17h14.14.122,SurveyExpMetaMem,3.2.3,Win32,60
,,,,,,,,,,,,,,,,,,,,5,2.440999985,5,0.222999811,1,0,1200,625,1,1199,hat,11111,2019-10-21_17h14.14.122,SurveyExpMetaMem,3.2.3,Win32,60
,,,,,,,,,,,,,,,,,,,,7,7.133999825,6,3.370000124,1,0,1200,624,1,1199,tower,11111,2019-10-21_17h14.14.122,SurveyExpMetaMem,3.2.3,Win32,60
,,,,,,,,,,,,,,,,,,,,3,4.565999985,6,1.085999966,1,0,1200,662,1,1199,bib,11111,2019-10-21_17h14.14.122,SurveyExpMetaMem,3.2.3,Win32,60
,,,,,,,,,,,,,,,,,,,,2,2.246999979,6,0.814999819,1,0,1200,640,1,1199,cabin,11111,2019-10-21_17h14.14.122,SurveyExpMetaMem,3.2.3,Win32,60
,,,,,,,,,,,,,,,,,,,,6,2.065000057,4,1.257999897,1,0,1200,1092,1,1199,rattlesnake,11111,2019-10-21_17h14.14.122,SurveyExpMetaMem,3.2.3,Win32,60
,,,,,,,,,,,,,,,,,,,,2,4.794000149,6,1.553999901,1,0,1200,849,1,1199,blue,11111,2019-10-21_17h14.14.122,SurveyExpMetaMem,3.2.3,Win32,60
,,,,,,,,,,,,,,,,,,,,3,1.602999926,7,0.773999929,1,0,1200,871,1,1199,comfort,11111,2019-10-21_17h14.14.122,SurveyExpMetaMem,3.2.3,Win32,60
,,,,,,,,,,,,,,,,,,,,2,2.522000074,8,0.648000002,1,0,1200,189,1,1199,thoughtful,11111,2019-10-21_17h14.14.122,SurveyExpMetaMem,3.2.3,Win32,60
,,,,,,,,,,,,,,,,,,,,6,2.349999905,3,1.603999853,1,0,1200,1108,1,1199,spider,11111,2019-10-21_17h14.14.122,SurveyExpMetaMem,3.2.3,Win32,60
,,,,,,,,,,,,,,,,,,,,6,5.74000001,6,2.322000027,1,0,1200,45,1,1199,sex,11111,2019-10-21_17h14.14.122,SurveyExpMetaMem,3.2.3,Win32,60
,,,,,,,,,,,,,,,,,,,,7,5.025000095,6,0.357999802,1,0,1200,1098,1,1199,confused,11111,2019-10-21_17h14.14.122,SurveyExpMetaMem,3.2.3,Win32,60
,,,,,,,,,,,,,,,,,,,,2,2.521999836,1,2.393000126,1,0,1200,384,1,1199,idiot,11111,2019-10-21_17h14.14.122,SurveyExpMetaMem,3.2.3,Win32,60
,,,,,,,,,,,,,,,,,,,,3,10.25499988,7,0.474999905,1,0,1200,27,1,1199,gourmet,11111,2019-10-21_17h14.14.122,SurveyExpMetaMem,3.2.3,Win32,60
,,,,,,,,,,,,,,,,,,,,4,3.71600008,6,0.433000088,1,0,1200,758,1,1199,camera,11111,2019-10-21_17h14.14.122,SurveyExpMetaMem,3.2.3,Win32,60
,,,,,,,,,,,,,,,,,,,,7,2.690999985,2,0.244000196,1,0,1200,1096,1,1199,flood,11111,2019-10-21_17h14.14.122,SurveyExpMetaMem,3.2.3,Win32,60
,,,,,,,,,,,,,,,,,,,,4,2.861999989,5,0.477999926,1,0,1200,18,1,1199,mail,11111,2019-10-21_17h14.14.122,SurveyExpMetaMem,3.2.3,Win32,60
,,,,,,,,,,,,,,,,,,,,6,2.287999868,4,1.427000046,1,0,1200,523,1,1199,witch,11111,2019-10-21_17h14.14.122,SurveyExpMetaMem,3.2.3,Win32,60
,,,,,,,,,,,,,,,,,,,,4,3.354000092,6,0.607000113,1,0,1200,447,1,1199,dishes,11111,2019-10-21_17h14.14.122,SurveyExpMetaMem,3.2.3,Win32,60
,,,,,,,,,,,,,,,,,,,,6,5.14199996,4,0.726999998,1,0,1200,974,1,1199,roach,11111,2019-10-21_17h14.14.122,SurveyExpMetaMem,3.2.3,Win32,60
,,,,,,,,,,,,,,,,,,,,4,2.037999868,2,0.213000059,1,0,1200,353,1,1199,blister,11111,2019-10-21_17h14.14.122,SurveyExpMetaMem,3.2.3,Win32,60
,,,,,,,,,,,,,,,,,,,,7,2.25999999,1,0.404999971,1,0,1200,303,1,1199,death,11111,2019-10-21_17h14.14.122,SurveyExpMetaMem,3.2.3,Win32,60
,,,,,,,,,,,,,,,,,,,,8,2.055999994,2,1.812000036,1,0,1200,932,1,1199,bankrupt,11111,2019-10-21_17h14.14.122,SurveyExpMetaMem,3.2.3,Win32,60
,,,,,,,,,,,,,,,,,,,,7,2.772000074,2,0.378999949,1,0,1200,363,1,1199,dumb,11111,2019-10-21_17h14.14.122,SurveyExpMetaMem,3.2.3,Win32,60
,,,,,,,,,,,,,,,,,,,,3,3.558999777,2,0.226999998,1,0,1200,1022,1,1199,creepy,11111,2019-10-21_17h14.14.122,SurveyExpMetaMem,3.2.3,Win32,60
,,,,,,,,,,,,,,,,,,,,3,3.313999891,2,0.588999987,1,0,1200,337,1,1199,stinks,11111,2019-10-21_17h14.14.122,SurveyExpMetaMem,3.2.3,Win32,60
,,,,,,,,,,,,,,,,,,,,4,5.427999973,2,0.939999819,1,0,1200,474,1,1199,weary,11111,2019-10-21_17h14.14.122,SurveyExpMetaMem,3.2.3,Win32,60
,,,,,,,,,,,,,,,,,,,,3,2.388999939,7,0.421000004,1,0,1200,1027,1,1199,criticism,11111,2019-10-21_17h14.14.122,SurveyExpMetaMem,3.2.3,Win32,60
,,,,,,,,,,,,,,,,,,,,3,1340.137,3,0.100999832,1,0,1200,589,1,1199,coarse,11111,2019-10-21_17h14.14.122,SurveyExpMetaMem,3.2.3,Win32,60
,,,,,,,,,,,,,,,,,,,,8,2.244000196,2,1.031000137,1,0,1200,972,1,1199,homicide,11111,2019-10-21_17h14.14.122,SurveyExpMetaMem,3.2.3,Win32,60
,,,,,,,,,,,,,,,,,,,,3,1.963999987,1,0.465999842,1,0,1200,917,1,1199,slave,11111,2019-10-21_17h14.14.122,SurveyExpMetaMem,3.2.3,Win32,60
,,,,,,,,,,,,,,,,,,,,7,1.76699996,7,0.381999969,1,0,1200,275,1,1199,brilliant,11111,2019-10-21_17h14.14.122,SurveyExpMetaMem,3.2.3,Win32,60
,,,,,,,,,,,,,,,,,,,,3,1.865999937,6,0.430999994,1,0,1200,881,1,1199,protected,11111,2019-10-21_17h14.14.122,SurveyExpMetaMem,3.2.3,Win32,60
,,,,,,,,,,,,,,,,,,,,4,3.967000008,3,2.581999779,1,0,1200,965,1,1199,traffic,11111,2019-10-21_17h14.14.122,SurveyExpMetaMem,3.2.3,Win32,60
,,,,,,,,,,,,,,,,,,,,4,6.789000034,1,0.079999924,1,0,1200,1080,1,1199,broken,11111,2019-10-21_17h14.14.122,SurveyExpMetaMem,3.2.3,Win32,60
,,,,,,,,,,,,,,,,,,,,8,1.703000069,2,0.628999949,1,0,1200,1052,1,1199,angry,11111,2019-10-21_17h14.14.122,SurveyExpMetaMem,3.2.3,Win32,60
,,,,,,,,,,,,,,,,,,,,7,6.019999981,4,0.782999992,1,0,1200,1032,1,1199,exam,11111,2019-10-21_17h14.14.122,SurveyExpMetaMem,3.2.3,Win32,60
,,,,,,,,,,,,,,,,,,,,8,1.917999983,2,0.481999874,1,0,1200,918,1,1199,gunpoint,11111,2019-10-21_17h14.14.122,SurveyExpMetaMem,3.2.3,Win32,60
,,,,,,,,,,,,,,,,,,,,2,6.151000023,6,0.546000004,1,0,1200,534,1,1199,rules,11111,2019-10-21_17h14.14.122,SurveyExpMetaMem,3.2.3,Win32,60
,,,,,,,,,,,,,,,,,,,,4,1.550000191,7,0.492000103,1,0,1200,800,1,1199,authentic,11111,2019-10-21_17h14.14.122,SurveyExpMetaMem,3.2.3,Win32,60
,,,,,,,,,,,,,,,,,,,,3,1.634000063,8,0.627999783,1,0,1200,734,1,1199,piano,11111,2019-10-21_17h14.14.122,SurveyExpMetaMem,3.2.3,Win32,60
,,,,,,,,,,,,,,,,,,,,3,2.864000082,2,0.455000162,1,0,1200,478,1,1199,numb,11111,2019-10-21_17h14.14.122,SurveyExpMetaMem,3.2.3,Win32,60
,,,,,,,,,,,,,,,,,,,,3,3.152000189,8,0.753999949,1,0,1200,196,1,1199,smile,11111,2019-10-21_17h14.14.122,SurveyExpMetaMem,3.2.3,Win32,60
,,,,,,,,,,,,,,,,,,,,6,3.078999996,1,0.340000153,1,0,1200,900,1,1199,suicide,11111,2019-10-21_17h14.14.122,SurveyExpMetaMem,3.2.3,Win32,60
,,,,,,,,,,,,,,,,,,,,7,1.226000071,7,2.815999985,1,0,1200,811,1,1199,tenderness,11111,2019-10-21_17h14.14.122,SurveyExpMetaMem,3.2.3,Win32,60
,,,,,,,,,,,,,,,,,,,,4,1.650000095,7,0.358999968,1,0,1200,898,1,1199,kindness,11111,2019-10-21_17h14.14.122,SurveyExpMetaMem,3.2.3,Win32,60
,,,,,,,,,,,,,,,,,,,,3,4.952000141,7,0.481000185,1,0,1200,85,1,1199,like,11111,2019-10-21_17h14.14.122,SurveyExpMetaMem,3.2.3,Win32,60
,,,,,,,,,,,,,,,,,,,,7,2.528999805,3,0.588999987,1,0,1200,1127,1,1199,spank,11111,2019-10-21_17h14.14.122,SurveyExpMetaMem,3.2.3,Win32,60
,,,,,,,,,,,,,,,,,,,,4,8.911999941,2,0.130000114,1,0,1200,530,1,1199,erase,11111,2019-10-21_17h14.14.122,SurveyExpMetaMem,3.2.3,Win32,60
,,,,,,,,,,,,,,,,,,,,3,4.171999931,6,0.264999866,1,0,1200,888,1,1199,refreshment,11111,2019-10-21_17h14.14.122,SurveyExpMetaMem,3.2.3,Win32,60
,,,,,,,,,,,,,,,,,,,,3,2.506000042,7,0.069000006,1,0,1200,91,1,1199,pretty,11111,2019-10-21_17h14.14.122,SurveyExpMetaMem,3.2.3,Win32,60
,,,,,,,,,,,,,,,,,,,,3,41.06000018,3,0.691999912,1,0,1200,526,1,1199,dry,11111,2019-10-21_17h14.14.122,SurveyExpMetaMem,3.2.3,Win32,60
,,,,,,,,,,,,,,,,,,,,3,1.56400013,2,0.474000216,1,0,1200,423,1,1199,stain,11111,2019-10-21_17h14.14.122,SurveyExpMetaMem,3.2.3,Win32,60
,,,,,,,,,,,,,,,,,,,,4,4.207000017,7,0.556999922,1,0,1200,207,1,1199,erect,11111,2019-10-21_17h14.14.122,SurveyExpMetaMem,3.2.3,Win32,60
,,,,,,,,,,,,,,,,,,,,3,4.740999937,6,0.367000103,1,0,1200,615,1,1199,lad,11111,2019-10-21_17h14.14.122,SurveyExpMetaMem,3.2.3,Win32,60
,,,,,,,,,,,,,,,,,,,,4,1.68599987,4,0.613999844,1,0,1200,764,1,1199,coin,11111,2019-10-21_17h14.14.122,SurveyExpMetaMem,3.2.3,Win32,60
,,,,,,,,,,,,,,,,,,,,4,9.056999922,6,0.185000181,1,0,1200,684,1,1199,send,11111,2019-10-21_17h14.14.122,SurveyExpMetaMem,3.2.3,Win32,60
,,,,,,,,,,,,,,,,,,,,4,2.381000042,5,0.61500001,1,0,1200,782,1,1199,open,11111,2019-10-21_17h14.14.122,SurveyExpMetaMem,3.2.3,Win32,60
,,,,,,,,,,,,,,,,,,,,4,2.325999975,3,0.205999851,1,0,1200,425,1,1199,crutch,11111,2019-10-21_17h14.14.122,SurveyExpMetaMem,3.2.3,Win32,60
,,,,,,,,,,,,,,,,,,,,3,2.25,2,0.187999964,1,0,1200,349,1,1199,mope,11111,2019-10-21_17h14.14.122,SurveyExpMetaMem,3.2.3,Win32,60
,,,,,,,,,,,,,,,,,,,,3,3.10800004,8,1.075999975,1,0,1200,838,1,1199,nestle,11111,2019-10-21_17h14.14.122,SurveyExpMetaMem,3.2.3,Win32,60
,,,,,,,,,,,,,,,,,,,,7,3.492000103,8,1.099999905,1,0,1200,21,1,1199,game,11111,2019-10-21_17h14.14.122,SurveyExpMetaMem,3.2.3,Win32,60
,,,,,,,,,,,,,,,,,,,,7,1.704999924,6,0.575000048,1,0,1200,258,1,1199,children,11111,2019-10-21_17h14.14.122,SurveyExpMetaMem,3.2.3,Win32,60
,,,,,,,,,,,,,,,,,,,,3,1.634000063,3,1.280999899,1,0,1200,324,1,1199,inferiority,11111,2019-10-21_17h14.14.122,SurveyExpMetaMem,3.2.3,Win32,60
,,,,,,,,,,,,,,,,,,,,7,14.94900012,6,0.400000095,1,0,1200,1180,1,1199,heat,11111,2019-10-21_17h14.14.122,SurveyExpMetaMem,3.2.3,Win32,60
,,,,,,,,,,,,,,,,,,,,7,1.39199996,8,0.286999941,1,0,1200,293,1,1199,succeed,11111,2019-10-21_17h14.14.122,SurveyExpMetaMem,3.2.3,Win32,60
,,,,,,,,,,,,,,,,,,,,7,1.06400013,8,0.446000099,1,0,1200,156,1,1199,gym,11111,2019-10-21_17h14.14.122,SurveyExpMetaMem,3.2.3,Win32,60
,,,,,,,,,,,,,,,,,,,,3,1.009000063,2,0.825000048,1,0,1200,451,1,1199,lame,11111,2019-10-21_17h14.14.122,SurveyExpMetaMem,3.2.3,Win32,60
,,,,,,,,,,,,,,,,,,,,3,1.361999989,7,0.309000015,1,0,1200,870,1,1199,safe,11111,2019-10-21_17h14.14.122,SurveyExpMetaMem,3.2.3,Win32,60
,,,,,,,,,,,,,,,,,,,,4,1.881999969,7,0.538000107,1,0,1200,1133,1,1199,slip,11111,2019-10-21_17h14.14.122,SurveyExpMetaMem,3.2.3,Win32,60
,,,,,,,,,,,,,,,,,,,,7,3.872999907,3,0.104000092,1,0,1200,1097,1,1199,bees,11111,2019-10-21_17h14.14.122,SurveyExpMetaMem,3.2.3,Win32,60
,,,,,,,,,,,,,,,,,,,,6,2.476000071,6,0.246999979,1,0,1200,110,1,1199,animal,11111,2019-10-21_17h14.14.122,SurveyExpMetaMem,3.2.3,Win32,60
,,,,,,,,,,,,,,,,,,,,3,2.282999992,4,0.951999903,1,0,1200,664,1,1199,quiet,11111,2019-10-21_17h14.14.122,SurveyExpMetaMem,3.2.3,Win32,60
,,,,,,,,,,,,,,,,,,,,8,1.782999992,3,0.3349998,1,0,1200,1159,1,1199,rifle,11111,2019-10-21_17h14.14.122,SurveyExpMetaMem,3.2.3,Win32,60
,,,,,,,,,,,,,,,,,,,,3,4.115999937,4,0.747000217,1,0,1200,529,1,1199,small,11111,2019-10-21_17h14.14.122,SurveyExpMetaMem,3.2.3,Win32,60
,,,,,,,,,,,,,,,,,,,,8,3.947000027,2,0.338999987,1,0,1200,1029,1,1199,abduction,11111,2019-10-21_17h14.14.122,SurveyExpMetaMem,3.2.3,Win32,60
,,,,,,,,,,,,,,,,,,,,3,2.037000179,6,0.526000023,1,0,1200,689,1,1199,land,11111,2019-10-21_17h14.14.122,SurveyExpMetaMem,3.2.3,Win32,60
,,,,,,,,,,,,,,,,,,,,6,2.445999861,2,0.036999941,1,0,1200,1082,1,1199,hazard,11111,2019-10-21_17h14.14.122,SurveyExpMetaMem,3.2.3,Win32,60
,,,,,,,,,,,,,,,,,,,,6,4.40899992,3,0.135999918,1,0,1200,512,1,1199,insect,11111,2019-10-21_17h14.14.122,SurveyExpMetaMem,3.2.3,Win32,60
,,,,,,,,,,,,,,,,,,,,4,3.34800005,2,0.120000124,1,0,1200,999,1,1199,burdened,11111,2019-10-21_17h14.14.122,SurveyExpMetaMem,3.2.3,Win32,60
,,,,,,,,,,,,,,,,,,,,7,3.708999872,8,0.291000128,1,0,1200,216,1,1199,vigorous,11111,2019-10-21_17h14.14.122,SurveyExpMetaMem,3.2.3,Win32,60
,,,,,,,,,,,,,,,,,,,,7,4.391000032,7,0.243000031,1,0,1200,98,1,1199,affection,11111,2019-10-21_17h14.14.122,SurveyExpMetaMem,3.2.3,Win32,60
,,,,,,,,,,,,,,,,,,,,7,2.884000063,7,0.345000029,1,0,1200,771,1,1199,practical,11111,2019-10-21_17h14.14.122,SurveyExpMetaMem,3.2.3,Win32,60
,,,,,,,,,,,,,,,,,,,,3,1.121999979,3,0.572999954,1,0,1200,389,1,1199,gloomy,11111,2019-10-21_17h14.14.122,SurveyExpMetaMem,3.2.3,Win32,60
,,,,,,,,,,,,,,,,,,,,4,12.60100007,2,0.245000124,1,0,1200,1048,1,1199,paranoid,11111,2019-10-21_17h14.14.122,SurveyExpMetaMem,3.2.3,Win32,60
,,,,,,,,,,,,,,,,,,,,3,1.272000074,2,0.24000001,1,0,1200,165,1,1199,sizzle,11111,2019-10-21_17h14.14.122,SurveyExpMetaMem,3.2.3,Win32,60
,,,,,,,,,,,,,,,,,,,,7,3.332000017,3,0.255000114,1,0,1200,1093,1,1199,hive,11111,2019-10-21_17h14.14.122,SurveyExpMetaMem,3.2.3,Win32,60
,,,,,,,,,,,,,,,,,,,,6,1.67200017,3,0.236999989,1,0,1200,498,1,1199,alimony,11111,2019-10-21_17h14.14.122,SurveyExpMetaMem,3.2.3,Win32,60
,,,,,,,,,,,,,,,,,,,,6,1.695999861,6,0.287000179,1,0,1200,736,1,1199,hawk,11111,2019-10-21_17h14.14.122,SurveyExpMetaMem,3.2.3,Win32,60
,,,,,,,,,,,,,,,,,,,,8,1.588999987,3,0.229999781,1,0,1200,905,1,1199,suffocate,11111,2019-10-21_17h14.14.122,SurveyExpMetaMem,3.2.3,Win32,60
,,,,,,,,,,,,,,,,,,,,4,1.726999998,4,0.46600008,1,0,1200,681,1,1199,fig,11111,2019-10-21_17h14.14.122,SurveyExpMetaMem,3.2.3,Win32,60
,,,,,,,,,,,,,,,,,,,,4,4.127000093,7,0.113999844,1,0,1200,1195,1,1199,speech,11111,2019-10-21_17h14.14.122,SurveyExpMetaMem,3.2.3,Win32,60
,,,,,,,,,,,,,,,,,,,,3,1.708000183,7,0.239000082,1,0,1200,213,1,1199,fair,11111,2019-10-21_17h14.14.122,SurveyExpMetaMem,3.2.3,Win32,60
,,,,,,,,,,,,,,,,,,,,7,1.654999971,3,0.230000019,1,0,1200,316,1,1199,sorrow,11111,2019-10-21_17h14.14.122,SurveyExpMetaMem,3.2.3,Win32,60
,,,,,,,,,,,,,,,,,,,,4,1.618999958,3,0.153999805,1,0,1200,548,1,1199,vague,11111,2019-10-21_17h14.14.122,SurveyExpMetaMem,3.2.3,Win32,60
,,,,,,,,,,,,,,,,,,,,3,1.653000116,7,0.210999966,1,0,1200,874,1,1199,butterfly,11111,2019-10-21_17h14.14.122,SurveyExpMetaMem,3.2.3,Win32,60
,,,,,,,,,,,,,,,,,,,,4,1.638000011,6,0.210999966,1,0,1200,617,1,1199,tomato,11111,2019-10-21_17h14.14.122,SurveyExpMetaMem,3.2.3,Win32,60
,,,,,,,,,,,,,,,,,,,,4,1.905999899,3,0.460999966,1,0,1200,487,1,1199,junk,11111,2019-10-21_17h14.14.122,SurveyExpMetaMem,3.2.3,Win32,60
,,,,,,,,,,,,,,,,,,,,7,1.410000086,3,0.443000078,1,0,1200,943,1,1199,trauma,11111,2019-10-21_17h14.14.122,SurveyExpMetaMem,3.2.3,Win32,60
,,,,,,,,,,,,,,,,,,,,4,1.453999996,6,0.39199996,1,0,1200,772,1,1199,ornament,11111,2019-10-21_17h14.14.122,SurveyExpMetaMem,3.2.3,Win32,60
,,,,,,,,,,,,,,,,,,,,4,2.710999966,4,0.038999796,1,0,1200,690,1,1199,similar,11111,2019-10-21_17h14.14.122,SurveyExpMetaMem,3.2.3,Win32,60
,,,,,,,,,,,,,,,,,,,,4,2.058000088,2,0.41899991,1,0,1200,427,1,1199,doubt,11111,2019-10-21_17h14.14.122,SurveyExpMetaMem,3.2.3,Win32,60
,,,,,,,,,,,,,,,,,,,,8,2.521000147,3,0.689999819,1,0,1200,923,1,1199,punish,11111,2019-10-21_17h14.14.122,SurveyExpMetaMem,3.2.3,Win32,60
,,,,,,,,,,,,,,,,,,,,6,1.673000097,6,0.371999979,1,0,1200,645,1,1199,telescope,11111,2019-10-21_17h14.14.122,SurveyExpMetaMem,3.2.3,Win32,60
,,,,,,,,,,,,,,,,,,,,4,3.465999842,5,0.477999926,1,0,1200,600,1,1199,parlor,11111,2019-10-21_17h14.14.122,SurveyExpMetaMem,3.2.3,Win32,60
,,,,,,,,,,,,,,,,,,,,7,1.164999962,3,0.535000086,1,0,1200,1044,1,1199,lost,11111,2019-10-21_17h14.14.122,SurveyExpMetaMem,3.2.3,Win32,60
,,,,,,,,,,,,,,,,,,,,3,1.921000004,8,0.236000061,1,0,1200,773,1,1199,rational,11111,2019-10-21_17h14.14.122,SurveyExpMetaMem,3.2.3,Win32,60
,,,,,,,,,,,,,,,,,,,,4,2.254999876,6,0.437000036,1,0,1200,763,1,1199,vegetables,11111,2019-10-21_17h14.14.122,SurveyExpMetaMem,3.2.3,Win32,60
,,,,,,,,,,,,,,,,,,,,3,1.898000002,2,0.604000092,1,0,1200,332,1,1199,sewage,11111,2019-10-21_17h14.14.122,SurveyExpMetaMem,3.2.3,Win32,60
,,,,,,,,,,,,,,,,,,,,8,1.83100009,3,0.536999941,1,0,1200,986,1,1199,mad,11111,2019-10-21_17h14.14.122,SurveyExpMetaMem,3.2.3,Win32,60
,,,,,,,,,,,,,,,,,,,,6,2.338999987,6,0.874000072,1,0,1200,152,1,1199,hire,11111,2019-10-21_17h14.14.122,SurveyExpMetaMem,3.2.3,Win32,60
,,,,,,,,,,,,,,,,,,,,7,2.88499999,7,0.544999838,1,0,1200,125,1,1199,dancing,11111,2019-10-21_17h14.14.122,SurveyExpMetaMem,3.2.3,Win32,60
,,,,,,,,,,,,,,,,,,,,8,1.795000076,2,0.355000019,1,0,1200,1015,1,1199,frighten,11111,2019-10-21_17h14.14.122,SurveyExpMetaMem,3.2.3,Win32,60
,,,,,,,,,,,,,,,,,,,,7,1.919999838,8,0.346000195,1,0,1200,197,1,1199,happy,11111,2019-10-21_17h14.14.122,SurveyExpMetaMem,3.2.3,Win32,60
,,,,,,,,,,,,,,,,,,,,3,3.385999918,6,0.005000114,1,0,1200,169,1,1199,aid,11111,2019-10-21_17h14.14.122,SurveyExpMetaMem,3.2.3,Win32,60
,,,,,,,,,,,,,,,,,,,,8,3.805999994,7,0.736999989,1,0,1200,145,1,1199,me,11111,2019-10-21_17h14.14.122,SurveyExpMetaMem,3.2.3,Win32,60
,,,,,,,,,,,,,,,,,,,,7,6.501000166,3,0.477999926,1,0,1200,422,1,1199,doubtful,11111,2019-10-21_17h14.14.122,SurveyExpMetaMem,3.2.3,Win32,60
,,,,,,,,,,,,,,,,,,,,4,2.954999924,2,0.332000017,1,0,1200,417,1,1199,dummy,11111,2019-10-21_17h14.14.122,SurveyExpMetaMem,3.2.3,Win32,60
,,,,,,,,,,,,,,,,,,,,8,1.508999825,2,0.279999971,1,0,1200,1182,1,1199,pierce,11111,2019-10-21_17h14.14.122,SurveyExpMetaMem,3.2.3,Win32,60
,,,,,,,,,,,,,,,,,,,,6,2.72300005,6,0.095999956,1,0,1200,712,1,1199,harvest,11111,2019-10-21_17h14.14.122,SurveyExpMetaMem,3.2.3,Win32,60
,,,,,,,,,,,,,,,,,,,,3,6.627000093,6,0.847999811,1,0,1200,616,1,1199,coat,11111,2019-10-21_17h14.14.122,SurveyExpMetaMem,3.2.3,Win32,60
,,,,,,,,,,,,,,,,,,,,8,1.687000036,8,0.162999868,1,0,1200,721,1,1199,contemporary,11111,2019-10-21_17h14.14.122,SurveyExpMetaMem,3.2.3,Win32,60
,,,,,,,,,,,,,,,,,,,,7,1.773000002,3,0.798000097,1,0,1200,1184,1,1199,reckless,11111,2019-10-21_17h14.14.122,SurveyExpMetaMem,3.2.3,Win32,60
,,,,,,,,,,,,,,,,,,,,3,2.305000067,3,0.69299984,1,0,1200,687,1,1199,skinny,11111,2019-10-21_17h14.14.122,SurveyExpMetaMem,3.2.3,Win32,60
,,,,,,,,,,,,,,,,,,,,4,3.539999962,6,0.399999857,1,0,1200,683,1,1199,scarf,11111,2019-10-21_17h14.14.122,SurveyExpMetaMem,3.2.3,Win32,60
,,,,,,,,,,,,,,,,,,,,3,2.458999872,3,1.309000015,1,0,1200,321,1,1199,wart,11111,2019-10-21_17h14.14.122,SurveyExpMetaMem,3.2.3,Win32,60
,,,,,,,,,,,,,,,,,,,,2,0.373000145,1,4.550000191,1,0,1200,1057,1,1199,deceit,11111,2019-10-21_17h14.14.122,SurveyExpMetaMem,3.2.3,Win32,60
,,,,,,,,,,,,,,,,,,,,7,4.274000168,6,4.4599998,1,0,1200,102,1,1199,motorcycle,11111,2019-10-21_17h14.14.122,SurveyExpMetaMem,3.2.3,Win32,60
,,,,,,,,,,,,,,,,,,,,4,3.565000057,8,0.072000027,1,0,1200,67,1,1199,penthouse,11111,2019-10-21_17h14.14.122,SurveyExpMetaMem,3.2.3,Win32,60
,,,,,,,,,,,,,,,,,,,,3,4.511000156,6,0.440000057,1,0,1200,621,1,1199,chew,11111,2019-10-21_17h14.14.122,SurveyExpMetaMem,3.2.3,Win32,60
,,,,,,,,,,,,,,,,,,,,3,14.31100011,7,0.074999809,1,0,1200,282,1,1199,luck,11111,2019-10-21_17h14.14.122,SurveyExpMetaMem,3.2.3,Win32,60
,,,,,,,,,,,,,,,,,,,,4,1.453999996,2,0.18900013,1,0,1200,433,1,1199,uninteresting,11111,2019-10-21_17h14.14.122,SurveyExpMetaMem,3.2.3,Win32,60
,,,,,,,,,,,,,,,,,,,,3,1.674999952,1,0.328999996,1,0,1200,348,1,1199,impotent,11111,2019-10-21_17h14.14.122,SurveyExpMetaMem,3.2.3,Win32,60
,,,,,,,,,,,,,,,,,,,,3,1.621000051,2,0.204999924,1,0,1200,946,1,1199,amputate,11111,2019-10-21_17h14.14.122,SurveyExpMetaMem,3.2.3,Win32,60
,,,,,,,,,,,,,,,,,,,,7,2.498999834,2,0.163000107,1,0,1200,1116,1,1199,emergency,11111,2019-10-21_17h14.14.122,SurveyExpMetaMem,3.2.3,Win32,60
,,,,,,,,,,,,,,,,,,,,4,3.139000177,6,0.038999796,1,0,1200,10,1,1199,cheerleader,11111,2019-10-21_17h14.14.122,SurveyExpMetaMem,3.2.3,Win32,60
,,,,,,,,,,,,,,,,,,,,7,2.749000072,6,0.046999931,1,0,1200,115,1,1199,sexual,11111,2019-10-21_17h14.14.122,SurveyExpMetaMem,3.2.3,Win32,60
,,,,,,,,,,,,,,,,,,,,8,4.623000145,2,0.197999954,1,0,1200,925,1,1199,disloyal,11111,2019-10-21_17h14.14.122,SurveyExpMetaMem,3.2.3,Win32,60
,,,,,,,,,,,,,,,,,,,,7,1.592999935,7,0.21999979,1,0,1200,281,1,1199,summer,11111,2019-10-21_17h14.14.122,SurveyExpMetaMem,3.2.3,Win32,60
,,,,,,,,,,,,,,,,,,,,8,1.651000023,2,0.243999958,1,0,1200,1058,1,1199,bloody,11111,2019-10-21_17h14.14.122,SurveyExpMetaMem,3.2.3,Win32,60
,,,,,,,,,,,,,,,,,,,,4,2.796000004,6,0.635999918,1,0,1200,650,1,1199,native,11111,2019-10-21_17h14.14.122,SurveyExpMetaMem,3.2.3,Win32,60
,,,,,,,,,,,,,,,,,,,,4,3.171999931,6,0.375,1,0,1200,1146,1,1199,bug,11111,2019-10-21_17h14.14.122,SurveyExpMetaMem,3.2.3,Win32,60
,,,,,,,,,,,,,,,,,,,,8,2.95600009,8,0.194999933,1,0,1200,170,1,1199,entertainment,11111,2019-10-21_17h14.14.122,SurveyExpMetaMem,3.2.3,Win32,60
,,,,,,,,,,,,,,,,,,,,3,6.576999903,2,0.063999891,1,0,1200,393,1,1199,droop,11111,2019-10-21_17h14.14.122,SurveyExpMetaMem,3.2.3,Win32,60
,,,,,,,,,,,,,,,,,,,,7,1.638999939,2,0.236999989,1,0,1200,1067,1,1199,wicked,11111,2019-10-21_17h14.14.122,SurveyExpMetaMem,3.2.3,Win32,60
,,,,,,,,,,,,,,,,,,,,8,2.258999825,8,0.372999907,1,0,1200,272,1,1199,confidence,11111,2019-10-21_17h14.14.122,SurveyExpMetaMem,3.2.3,Win32,60
,,,,,,,,,,,,,,,,,,,,8,3.53399992,2,0.343000174,1,0,1200,948,1,1199,pain,11111,2019-10-21_17h14.14.122,SurveyExpMetaMem,3.2.3,Win32,60
,,,,,,,,,,,,,,,,,,,,4,1.904000044,4,0.258000135,1,0,1200,741,1,1199,wheat,11111,2019-10-21_17h14.14.122,SurveyExpMetaMem,3.2.3,Win32,60
,,,,,,,,,,,,,,,,,,,,4,1.904000044,2,1.086999893,1,0,1200,357,1,1199,whine,11111,2019-10-21_17h14.14.122,SurveyExpMetaMem,3.2.3,Win32,60
,,,,,,,,,,,,,,,,,,,,6,3.215999842,3,0.388000011,1,0,1200,457,1,1199,confuse,11111,2019-10-21_17h14.14.122,SurveyExpMetaMem,3.2.3,Win32,60
,,,,,,,,,,,,,,,,,,,,5,19.14999986,5,0.052999973,1,0,1200,613,1,1199,cup,11111,2019-10-21_17h14.14.122,SurveyExpMetaMem,3.2.3,Win32,60
,,,,,,,,,,,,,,,,,,,,8,1.424000025,2,0.371000051,1,0,1200,1055,1,1199,alarm,11111,2019-10-21_17h14.14.122,SurveyExpMetaMem,3.2.3,Win32,60
,,,,,,,,,,,,,,,,,,,,9,1.203000069,2,0.437000036,1,0,1200,954,1,1199,hostage,11111,2019-10-21_17h14.14.122,SurveyExpMetaMem,3.2.3,Win32,60
,,,,,,,,,,,,,,,,,,,,7,1.108999968,2,0.463000059,1,0,1200,939,1,1199,vomit,11111,2019-10-21_17h14.14.122,SurveyExpMetaMem,3.2.3,Win32,60
,,,,,,,,,,,,,,,,,,,,4,2.49000001,8,0.373999834,1,0,1200,847,1,1199,moon,11111,2019-10-21_17h14.14.122,SurveyExpMetaMem,3.2.3,Win32,60
,,,,,,,,,,,,,,,,,,,,3,2.592999935,6,0.289999962,1,0,1200,174,1,1199,snow,11111,2019-10-21_17h14.14.122,SurveyExpMetaMem,3.2.3,Win32,60
,,,,,,,,,,,,,,,,,,,,6,3.064999819,6,0.048000097,1,0,1200,244,1,1199,sexy,11111,2019-10-21_17h14.14.122,SurveyExpMetaMem,3.2.3,Win32,60
,,,,,,,,,,,,,,,,,,,,7,2.373999834,2,0.291000128,1,0,1200,962,1,1199,poisonous,11111,2019-10-21_17h14.14.122,SurveyExpMetaMem,3.2.3,Win32,60
,,,,,,,,,,,,,,,,,,,,3,1.697999954,7,0.538000107,1,0,1200,821,1,1199,cottage,11111,2019-10-21_17h14.14.122,SurveyExpMetaMem,3.2.3,Win32,60
,,,,,,,,,,,,,,,,,,,,4,3.713000059,6,1.103999853,1,0,1200,1145,1,1199,officer,11111,2019-10-21_17h14.14.122,SurveyExpMetaMem,3.2.3,Win32,60
,,,,,,,,,,,,,,,,,,,,7,9.988999844,3,0.343000174,1,0,1200,1188,1,1199,swear,11111,2019-10-21_17h14.14.122,SurveyExpMetaMem,3.2.3,Win32,60
,,,,,,,,,,,,,,,,,,,,2,5.379000187,7,0.297999859,1,0,1200,653,1,1199,detail,11111,2019-10-21_17h14.14.122,SurveyExpMetaMem,3.2.3,Win32,60
,,,,,,,,,,,,,,,,,,,,4,3.552000046,8,0.177000046,1,0,1200,123,1,1199,favorite,11111,2019-10-21_17h14.14.122,SurveyExpMetaMem,3.2.3,Win32,60
,,,,,,,,,,,,,,,,,,,,3,27.49399996,2,0.36500001,1,0,1200,599,1,1199,obstinate,11111,2019-10-21_17h14.14.122,SurveyExpMetaMem,3.2.3,Win32,60
,,,,,,,,,,,,,,,,,,,,3,2.881000042,8,0.164999962,1,0,1200,278,1,1199,king,11111,2019-10-21_17h14.14.122,SurveyExpMetaMem,3.2.3,Win32,60
,,,,,,,,,,,,,,,,,,,,6,5.588000059,3,0.015000105,1,0,1200,404,1,1199,nuisance,11111,2019-10-21_17h14.14.122,SurveyExpMetaMem,3.2.3,Win32,60
,,,,,,,,,,,,,,,,,,,,7,1.31799984,3,0.151000023,1,0,1200,354,1,1199,cowardice,11111,2019-10-21_17h14.14.122,SurveyExpMetaMem,3.2.3,Win32,60
,,,,,,,,,,,,,,,,,,,,6,2.019000053,2,0.132000208,1,0,1200,1161,1,1199,shock,11111,2019-10-21_17h14.14.122,SurveyExpMetaMem,3.2.3,Win32,60
,,,,,,,,,,,,,,,,,,,,4,2.948999882,2,0.097999811,1,0,1200,453,1,1199,prude,11111,2019-10-21_17h14.14.122,SurveyExpMetaMem,3.2.3,Win32,60
,,,,,,,,,,,,,,,,,,,,3,1.200000048,2,0.179999828,1,0,1200,466,1,1199,gnaw,11111,2019-10-21_17h14.14.122,SurveyExpMetaMem,3.2.3,Win32,60
,,,,,,,,,,,,,,,,,,,,3,2.066999912,7,0.198999882,1,0,1200,284,1,1199,delight,11111,2019-10-21_17h14.14.122,SurveyExpMetaMem,3.2.3,Win32,60
,,,,,,,,,,,,,,,,,,,,2,1.282000065,8,0.248000145,1,0,1200,882,1,1199,gentle,11111,2019-10-21_17h14.14.122,SurveyExpMetaMem,3.2.3,Win32,60
,,,,,,,,,,,,,,,,,,,,2,5.686000109,6,2.468000174,1,0,1200,850,1,1199,lake,11111,2019-10-21_17h14.14.122,SurveyExpMetaMem,3.2.3,Win32,60
,,,,,,,,,,,,,,,,,,,,3,1.381999969,6,0.28399992,1,0,1200,210,1,1199,elephant,11111,2019-10-21_17h14.14.122,SurveyExpMetaMem,3.2.3,Win32,60
