mouse_4.x,mouse_4.y,mouse_4.leftButton,mouse_4.midButton,mouse_4.rightButton,mouse.x,mouse.y,mouse.leftButton,mouse.midButton,mouse.rightButton,mouse_2.x,mouse_2.y,mouse_2.leftButton,mouse_2.midButton,mouse_2.rightButton,mouse_3.x,mouse_3.y,mouse_3.leftButton,mouse_3.midButton,mouse_3.rightButton,A_key_resp.keys,A_key_resp.rt,key_resp.keys,key_resp.rt,trials.thisRepN,trials.thisTrialN,trials.thisN,trials.thisIndex,trials.ran,trials.order,word,ParticipantID,date,expName,psychopyVersion,OS,frameRate
-0.096367188,-0.135334201,1,0,0,0.002881944,-0.186080729,1,0,0,-0.106241319,-0.131553819,1,0,0,-0.010494792,-0.253923611,1,0,0,5,15.63499999,5,2.05700016,1,0,1200,585,1,1199,tatter,11117,2019-10-22_13h55.55.458,SurveyExpMetaMem,3.2.3,MacIntel,60
,,,,,,,,,,,,,,,,,,,,3,3.171000004,6,5.840999842,1,0,1200,613,1,1199,cup,11117,2019-10-22_13h55.55.458,SurveyExpMetaMem,3.2.3,MacIntel,60
,,,,,,,,,,,,,,,,,,,,7,14.13700008,5,9.743000031,1,0,1200,1145,1,1199,officer,11117,2019-10-22_13h55.55.458,SurveyExpMetaMem,3.2.3,MacIntel,60
,,,,,,,,,,,,,,,,,,,,8,4.638000011,6,2.506000042,1,0,1200,208,1,1199,wild,11117,2019-10-22_13h55.55.458,SurveyExpMetaMem,3.2.3,MacIntel,60
,,,,,,,,,,,,,,,,,,,,5,4.671999931,5,0.322000027,1,0,1200,768,1,1199,trait,11117,2019-10-22_13h55.55.458,SurveyExpMetaMem,3.2.3,MacIntel,60
,,,,,,,,,,,,,,,,,,,,8,4.861999989,4,4.940999985,1,0,1200,1140,1,1199,blood,11117,2019-10-22_13h55.55.458,SurveyExpMetaMem,3.2.3,MacIntel,60
,,,,,,,,,,,,,,,,,,,,6,8.596000195,9,2.161999941,1,0,1200,632,1,1199,avenue,11117,2019-10-22_13h55.55.458,SurveyExpMetaMem,3.2.3,MacIntel,60
,,,,,,,,,,,,,,,,,,,,6,13.50199986,6,3.787999868,1,0,1200,420,1,1199,smoke,11117,2019-10-22_13h55.55.458,SurveyExpMetaMem,3.2.3,MacIntel,60
,,,,,,,,,,,,,,,,,,,,3,3.937000036,5,4.519000053,1,0,1200,496,1,1199,slow,11117,2019-10-22_13h55.55.458,SurveyExpMetaMem,3.2.3,MacIntel,60
,,,,,,,,,,,,,,,,,,,,5,1.95600009,8,2.311000109,1,0,1200,807,1,1199,person,11117,2019-10-22_13h55.55.458,SurveyExpMetaMem,3.2.3,MacIntel,60
,,,,,,,,,,,,,,,,,,,,7,2.90899992,7,6.357999802,1,0,1200,88,1,1199,ambitious,11117,2019-10-22_13h55.55.458,SurveyExpMetaMem,3.2.3,MacIntel,60
,,,,,,,,,,,,,,,,,,,,6,6.397000074,6,2.190999985,1,0,1200,672,1,1199,ketchup,11117,2019-10-22_13h55.55.458,SurveyExpMetaMem,3.2.3,MacIntel,60
,,,,,,,,,,,,,,,,,,,,5,3.171000004,5,0.371999979,1,0,1200,1020,1,1199,malice,11117,2019-10-22_13h55.55.458,SurveyExpMetaMem,3.2.3,MacIntel,60
,,,,,,,,,,,,,,,,,,,,7,2.950999975,4,2.423000097,1,0,1200,253,1,1199,soldier,11117,2019-10-22_13h55.55.458,SurveyExpMetaMem,3.2.3,MacIntel,60
,,,,,,,,,,,,,,,,,,,,5,1.885999918,5,0.376999855,1,0,1200,545,1,1199,tar,11117,2019-10-22_13h55.55.458,SurveyExpMetaMem,3.2.3,MacIntel,60
,,,,,,,,,,,,,,,,,,,,7,3.40899992,9,3.929999828,1,0,1200,125,1,1199,dancing,11117,2019-10-22_13h55.55.458,SurveyExpMetaMem,3.2.3,MacIntel,60
,,,,,,,,,,,,,,,,,,,,6,0.221999884,2,4.706999779,1,0,1200,329,1,1199,worse,11117,2019-10-22_13h55.55.458,SurveyExpMetaMem,3.2.3,MacIntel,60
,,,,,,,,,,,,,,,,,,,,9,3.105999947,4,3.07799983,1,0,1200,1176,1,1199,vampire,11117,2019-10-22_13h55.55.458,SurveyExpMetaMem,3.2.3,MacIntel,60
,,,,,,,,,,,,,,,,,,,,6,2.121000051,7,4.963999987,1,0,1200,174,1,1199,snow,11117,2019-10-22_13h55.55.458,SurveyExpMetaMem,3.2.3,MacIntel,60
,,,,,,,,,,,,,,,,,,,,7,2.819999933,7,1.640999794,1,0,1200,35,1,1199,bright,11117,2019-10-22_13h55.55.458,SurveyExpMetaMem,3.2.3,MacIntel,60
,,,,,,,,,,,,,,,,,,,,9,2.226000071,4,2.304000139,1,0,1200,1152,1,1199,scream,11117,2019-10-22_13h55.55.458,SurveyExpMetaMem,3.2.3,MacIntel,60
,,,,,,,,,,,,,,,,,,,,6,2.34100008,6,3.15899992,1,0,1200,104,1,1199,freeway,11117,2019-10-22_13h55.55.458,SurveyExpMetaMem,3.2.3,MacIntel,60
,,,,,,,,,,,,,,,,,,,,3,3.36500001,3,2.32400012,1,0,1200,773,1,1199,rational,11117,2019-10-22_13h55.55.458,SurveyExpMetaMem,3.2.3,MacIntel,60
,,,,,,,,,,,,,,,,,,,,5,1.539999962,5,0.297999859,1,0,1200,1114,1,1199,foe,11117,2019-10-22_13h55.55.458,SurveyExpMetaMem,3.2.3,MacIntel,60
,,,,,,,,,,,,,,,,,,,,5,3.055000067,5,0.523000002,1,0,1200,603,1,1199,mane,11117,2019-10-22_13h55.55.458,SurveyExpMetaMem,3.2.3,MacIntel,60
,,,,,,,,,,,,,,,,,,,,7,4.193000078,7,2.656000137,1,0,1200,110,1,1199,animal,11117,2019-10-22_13h55.55.458,SurveyExpMetaMem,3.2.3,MacIntel,60
,,,,,,,,,,,,,,,,,,,,8,1.961000204,7,1.999000072,1,0,1200,290,1,1199,enthusiasm,11117,2019-10-22_13h55.55.458,SurveyExpMetaMem,3.2.3,MacIntel,60
,,,,,,,,,,,,,,,,,,,,5,2.990999937,4,1.732000113,1,0,1200,957,1,1199,debt,11117,2019-10-22_13h55.55.458,SurveyExpMetaMem,3.2.3,MacIntel,60
,,,,,,,,,,,,,,,,,,,,7,4.726000071,7,2.027999878,1,0,1200,52,1,1199,dare,11117,2019-10-22_13h55.55.458,SurveyExpMetaMem,3.2.3,MacIntel,60
,,,,,,,,,,,,,,,,,,,,8,4.625,7,1.993999958,1,0,1200,1196,1,1199,breathless,11117,2019-10-22_13h55.55.458,SurveyExpMetaMem,3.2.3,MacIntel,60
,,,,,,,,,,,,,,,,,,,,8,11.04999995,2,2.092999935,1,0,1200,323,1,1199,ungrateful,11117,2019-10-22_13h55.55.458,SurveyExpMetaMem,3.2.3,MacIntel,60
,,,,,,,,,,,,,,,,,,,,4,2.739000082,4,0.659000158,1,0,1200,471,1,1199,chump,11117,2019-10-22_13h55.55.458,SurveyExpMetaMem,3.2.3,MacIntel,60
,,,,,,,,,,,,,,,,,,,,6,6.188999891,8,2.088999987,1,0,1200,833,1,1199,nice,11117,2019-10-22_13h55.55.458,SurveyExpMetaMem,3.2.3,MacIntel,60
,,,,,,,,,,,,,,,,,,,,3,3.730000019,5,3.0400002,1,0,1200,561,1,1199,plain,11117,2019-10-22_13h55.55.458,SurveyExpMetaMem,3.2.3,MacIntel,60
,,,,,,,,,,,,,,,,,,,,7,2.361000061,6,3.379999876,1,0,1200,821,1,1199,cottage,11117,2019-10-22_13h55.55.458,SurveyExpMetaMem,3.2.3,MacIntel,60
,,,,,,,,,,,,,,,,,,,,5,2.392999887,7,1.394000053,1,0,1200,84,1,1199,eat,11117,2019-10-22_13h55.55.458,SurveyExpMetaMem,3.2.3,MacIntel,60
,,,,,,,,,,,,,,,,,,,,8,2.387000084,4,4.5400002,1,0,1200,206,1,1199,comet,11117,2019-10-22_13h55.55.458,SurveyExpMetaMem,3.2.3,MacIntel,60
,,,,,,,,,,,,,,,,,,,,4,2.508000135,5,2.715000153,1,0,1200,845,1,1199,honey,11117,2019-10-22_13h55.55.458,SurveyExpMetaMem,3.2.3,MacIntel,60
,,,,,,,,,,,,,,,,,,,,5,1.503999949,5,0.296000004,1,0,1200,435,1,1199,grovel,11117,2019-10-22_13h55.55.458,SurveyExpMetaMem,3.2.3,MacIntel,60
,,,,,,,,,,,,,,,,,,,,7,3.194000006,7,1.779999971,1,0,1200,686,1,1199,phone,11117,2019-10-22_13h55.55.458,SurveyExpMetaMem,3.2.3,MacIntel,60
,,,,,,,,,,,,,,,,,,,,6,5.894999981,6,0.792999983,1,0,1200,335,1,1199,decay,11117,2019-10-22_13h55.55.458,SurveyExpMetaMem,3.2.3,MacIntel,60
,,,,,,,,,,,,,,,,,,,,8,1.904999971,6,3.738999844,1,0,1200,1161,1,1199,shock,11117,2019-10-22_13h55.55.458,SurveyExpMetaMem,3.2.3,MacIntel,60
,,,,,,,,,,,,,,,,,,,,7,2.053999901,8,3.180999994,1,0,1200,27,1,1199,gourmet,11117,2019-10-22_13h55.55.458,SurveyExpMetaMem,3.2.3,MacIntel,60
,,,,,,,,,,,,,,,,,,,,8,3.623000145,8,1.84100008,1,0,1200,71,1,1199,spirit,11117,2019-10-22_13h55.55.458,SurveyExpMetaMem,3.2.3,MacIntel,60
,,,,,,,,,,,,,,,,,,,,4,2.569000006,4,0.286000013,1,0,1200,772,1,1199,ornament,11117,2019-10-22_13h55.55.458,SurveyExpMetaMem,3.2.3,MacIntel,60
,,,,,,,,,,,,,,,,,,,,7,2.203999996,8,1.105000019,1,0,1200,504,1,1199,cane,11117,2019-10-22_13h55.55.458,SurveyExpMetaMem,3.2.3,MacIntel,60
,,,,,,,,,,,,,,,,,,,,6,2.512000084,7,1.794000149,1,0,1200,698,1,1199,oven,11117,2019-10-22_13h55.55.458,SurveyExpMetaMem,3.2.3,MacIntel,60
,,,,,,,,,,,,,,,,,,,,5,1.444999933,5,0.221999884,1,0,1200,507,1,1199,smudge,11117,2019-10-22_13h55.55.458,SurveyExpMetaMem,3.2.3,MacIntel,60
,,,,,,,,,,,,,,,,,,,,6,1.81099987,6,1.225000143,1,0,1200,58,1,1199,boost,11117,2019-10-22_13h55.55.458,SurveyExpMetaMem,3.2.3,MacIntel,60
,,,,,,,,,,,,,,,,,,,,3,2.101999998,5,1.712000132,1,0,1200,693,1,1199,key,11117,2019-10-22_13h55.55.458,SurveyExpMetaMem,3.2.3,MacIntel,60
,,,,,,,,,,,,,,,,,,,,6,8.904000044,2,2.523999929,1,0,1200,914,1,1199,fail,11117,2019-10-22_13h55.55.458,SurveyExpMetaMem,3.2.3,MacIntel,60
,,,,,,,,,,,,,,,,,,,,6,0.123999834,2,4.762000084,1,0,1200,397,1,1199,complaint,11117,2019-10-22_13h55.55.458,SurveyExpMetaMem,3.2.3,MacIntel,60
,,,,,,,,,,,,,,,,,,,,6,1.888000011,6,0.871999979,1,0,1200,514,1,1199,defer,11117,2019-10-22_13h55.55.458,SurveyExpMetaMem,3.2.3,MacIntel,60
,,,,,,,,,,,,,,,,,,,,8,1.662999868,2,1.519999981,1,0,1200,936,1,1199,assault,11117,2019-10-22_13h55.55.458,SurveyExpMetaMem,3.2.3,MacIntel,60
,,,,,,,,,,,,,,,,,,,,5,1.410000086,5,0.197000027,1,0,1200,626,1,1199,pan,11117,2019-10-22_13h55.55.458,SurveyExpMetaMem,3.2.3,MacIntel,60
,,,,,,,,,,,,,,,,,,,,7,4.91899991,7,1.447999954,1,0,1200,210,1,1199,elephant,11117,2019-10-22_13h55.55.458,SurveyExpMetaMem,3.2.3,MacIntel,60
,,,,,,,,,,,,,,,,,,,,4,1.940000057,3,0.911999941,1,0,1200,414,1,1199,pity,11117,2019-10-22_13h55.55.458,SurveyExpMetaMem,3.2.3,MacIntel,60
,,,,,,,,,,,,,,,,,,,,8,2.588999987,3,1.34800005,1,0,1200,1101,1,1199,scary,11117,2019-10-22_13h55.55.458,SurveyExpMetaMem,3.2.3,MacIntel,60
,,,,,,,,,,,,,,,,,,,,8,4.924999952,5,2.488999844,1,0,1200,584,1,1199,anus,11117,2019-10-22_13h55.55.458,SurveyExpMetaMem,3.2.3,MacIntel,60
,,,,,,,,,,,,,,,,,,,,8,2.14199996,2,4.910000086,1,0,1200,309,1,1199,homeless,11117,2019-10-22_13h55.55.458,SurveyExpMetaMem,3.2.3,MacIntel,60
,,,,,,,,,,,,,,,,,,,,4,1.937000036,5,1.677999973,1,0,1200,736,1,1199,hawk,11117,2019-10-22_13h55.55.458,SurveyExpMetaMem,3.2.3,MacIntel,60
,,,,,,,,,,,,,,,,,,,,8,8.937999964,2,1.680999994,1,0,1200,1149,1,1199,fight,11117,2019-10-22_13h55.55.458,SurveyExpMetaMem,3.2.3,MacIntel,60
,,,,,,,,,,,,,,,,,,,,4,1.608999968,4,0.224999905,1,0,1200,717,1,1199,modest,11117,2019-10-22_13h55.55.458,SurveyExpMetaMem,3.2.3,MacIntel,60
,,,,,,,,,,,,,,,,,,,,8,2.00999999,1,1.810000181,1,0,1200,926,1,1199,dead,11117,2019-10-22_13h55.55.458,SurveyExpMetaMem,3.2.3,MacIntel,60
,,,,,,,,,,,,,,,,,,,,5,1.961999893,5,0.292000055,1,0,1200,753,1,1199,patience,11117,2019-10-22_13h55.55.458,SurveyExpMetaMem,3.2.3,MacIntel,60
,,,,,,,,,,,,,,,,,,,,8,1.759000063,5,3.663000107,1,0,1200,190,1,1199,rescue,11117,2019-10-22_13h55.55.458,SurveyExpMetaMem,3.2.3,MacIntel,60
,,,,,,,,,,,,,,,,,,,,8,1.921000004,1,1.525999784,1,0,1200,976,1,1199,tumor,11117,2019-10-22_13h55.55.458,SurveyExpMetaMem,3.2.3,MacIntel,60
,,,,,,,,,,,,,,,,,,,,5,4.982000113,5,0.209000111,1,0,1200,974,1,1199,roach,11117,2019-10-22_13h55.55.458,SurveyExpMetaMem,3.2.3,MacIntel,60
,,,,,,,,,,,,,,,,,,,,8,2.760999918,1,0.92200017,1,0,1200,961,1,1199,crucify,11117,2019-10-22_13h55.55.458,SurveyExpMetaMem,3.2.3,MacIntel,60
,,,,,,,,,,,,,,,,,,,,9,3.861000061,5,1.562999964,1,0,1200,1049,1,1199,electrocute,11117,2019-10-22_13h55.55.458,SurveyExpMetaMem,3.2.3,MacIntel,60
,,,,,,,,,,,,,,,,,,,,5,3.942000151,2,2.049000025,1,0,1200,302,1,1199,loneliness,11117,2019-10-22_13h55.55.458,SurveyExpMetaMem,3.2.3,MacIntel,60
,,,,,,,,,,,,,,,,,,,,8,2.355000019,3,1.536999941,1,0,1200,1156,1,1199,weapon,11117,2019-10-22_13h55.55.458,SurveyExpMetaMem,3.2.3,MacIntel,60
,,,,,,,,,,,,,,,,,,,,6,7.993000031,4,4.302999973,1,0,1200,696,1,1199,rink,11117,2019-10-22_13h55.55.458,SurveyExpMetaMem,3.2.3,MacIntel,60
,,,,,,,,,,,,,,,,,,,,4,3.276000023,4,0.20299983,1,0,1200,478,1,1199,numb,11117,2019-10-22_13h55.55.458,SurveyExpMetaMem,3.2.3,MacIntel,60
,,,,,,,,,,,,,,,,,,,,7,2.789999962,3,0.773999929,1,0,1200,1015,1,1199,frighten,11117,2019-10-22_13h55.55.458,SurveyExpMetaMem,3.2.3,MacIntel,60
,,,,,,,,,,,,,,,,,,,,7,1.988000154,3,0.919999838,1,0,1200,980,1,1199,liar,11117,2019-10-22_13h55.55.458,SurveyExpMetaMem,3.2.3,MacIntel,60
,,,,,,,,,,,,,,,,,,,,5,2.622999907,5,0.611999989,1,0,1200,608,1,1199,carrot,11117,2019-10-22_13h55.55.458,SurveyExpMetaMem,3.2.3,MacIntel,60
,,,,,,,,,,,,,,,,,,,,7,2.355000019,6,4.406000137,1,0,1200,269,1,1199,extravagant,11117,2019-10-22_13h55.55.458,SurveyExpMetaMem,3.2.3,MacIntel,60
,,,,,,,,,,,,,,,,,,,,4,7.279999971,4,0.144999981,1,0,1200,645,1,1199,telescope,11117,2019-10-22_13h55.55.458,SurveyExpMetaMem,3.2.3,MacIntel,60
,,,,,,,,,,,,,,,,,,,,7,2.715000153,2,0.934000015,1,0,1200,1175,1,1199,prostitute,11117,2019-10-22_13h55.55.458,SurveyExpMetaMem,3.2.3,MacIntel,60
,,,,,,,,,,,,,,,,,,,,6,3.09100008,7,2.60800004,1,0,1200,72,1,1199,attract,11117,2019-10-22_13h55.55.458,SurveyExpMetaMem,3.2.3,MacIntel,60
,,,,,,,,,,,,,,,,,,,,6,2.366999865,8,1.38499999,1,0,1200,871,1,1199,comfort,11117,2019-10-22_13h55.55.458,SurveyExpMetaMem,3.2.3,MacIntel,60
,,,,,,,,,,,,,,,,,,,,8,3.089000225,8,0.60800004,1,0,1200,238,1,1199,sunshine,11117,2019-10-22_13h55.55.458,SurveyExpMetaMem,3.2.3,MacIntel,60
,,,,,,,,,,,,,,,,,,,,6,7.239000082,5,2.228999853,1,0,1200,324,1,1199,inferiority,11117,2019-10-22_13h55.55.458,SurveyExpMetaMem,3.2.3,MacIntel,60
,,,,,,,,,,,,,,,,,,,,8,2.486999989,2,0.731999874,1,0,1200,319,1,1199,malaria,11117,2019-10-22_13h55.55.458,SurveyExpMetaMem,3.2.3,MacIntel,60
,,,,,,,,,,,,,,,,,,,,6,4.176000118,9,5.605000019,1,0,1200,874,1,1199,butterfly,11117,2019-10-22_13h55.55.458,SurveyExpMetaMem,3.2.3,MacIntel,60
,,,,,,,,,,,,,,,,,,,,7,17.24300003,6,1.52699995,1,0,1200,101,1,1199,alien,11117,2019-10-22_13h55.55.458,SurveyExpMetaMem,3.2.3,MacIntel,60
,,,,,,,,,,,,,,,,,,,,6,2.987999916,4,0.641000032,1,0,1200,1147,1,1199,demand,11117,2019-10-22_13h55.55.458,SurveyExpMetaMem,3.2.3,MacIntel,60
,,,,,,,,,,,,,,,,,,,,6,3.460999966,3,2.157999992,1,0,1200,1055,1,1199,alarm,11117,2019-10-22_13h55.55.458,SurveyExpMetaMem,3.2.3,MacIntel,60
,,,,,,,,,,,,,,,,,,,,7,1.638000011,2,1.39199996,1,0,1200,977,1,1199,choke,11117,2019-10-22_13h55.55.458,SurveyExpMetaMem,3.2.3,MacIntel,60
,,,,,,,,,,,,,,,,,,,,7,10.671,3,1.914999962,1,0,1200,1039,1,1199,stalk,11117,2019-10-22_13h55.55.458,SurveyExpMetaMem,3.2.3,MacIntel,60
,,,,,,,,,,,,,,,,,,,,3,0.503999949,3,0.072000027,1,0,1200,18,1,1199,mail,11117,2019-10-22_13h55.55.458,SurveyExpMetaMem,3.2.3,MacIntel,60
,,,,,,,,,,,,,,,,,,,,7,7.255999804,6,2.210000038,1,0,1200,830,1,1199,pear,11117,2019-10-22_13h55.55.458,SurveyExpMetaMem,3.2.3,MacIntel,60
,,,,,,,,,,,,,,,,,,,,8,1.955000162,8,2.006999969,1,0,1200,264,1,1199,thong,11117,2019-10-22_13h55.55.458,SurveyExpMetaMem,3.2.3,MacIntel,60
,,,,,,,,,,,,,,,,,,,,7,2.357999802,6,0.844000101,1,0,1200,705,1,1199,tolerant,11117,2019-10-22_13h55.55.458,SurveyExpMetaMem,3.2.3,MacIntel,60
,,,,,,,,,,,,,,,,,,,,6,14.69099998,7,0.561000109,1,0,1200,12,1,1199,mountain,11117,2019-10-22_13h55.55.458,SurveyExpMetaMem,3.2.3,MacIntel,60
,,,,,,,,,,,,,,,,,,,,7,2.108999968,7,0.457000017,1,0,1200,633,1,1199,cattle,11117,2019-10-22_13h55.55.458,SurveyExpMetaMem,3.2.3,MacIntel,60
,,,,,,,,,,,,,,,,,,,,8,1.554999828,8,2.194000006,1,0,1200,11,1,1199,astonished,11117,2019-10-22_13h55.55.458,SurveyExpMetaMem,3.2.3,MacIntel,60
,,,,,,,,,,,,,,,,,,,,6,1.820000172,6,0.503999949,1,0,1200,47,1,1199,enjoy,11117,2019-10-22_13h55.55.458,SurveyExpMetaMem,3.2.3,MacIntel,60
,,,,,,,,,,,,,,,,,,,,6,6.789999962,5,2.174000025,1,0,1200,262,1,1199,athletics,11117,2019-10-22_13h55.55.458,SurveyExpMetaMem,3.2.3,MacIntel,60
,,,,,,,,,,,,,,,,,,,,6,3.437000036,5,0.464999914,1,0,1200,483,1,1199,condescension,11117,2019-10-22_13h55.55.458,SurveyExpMetaMem,3.2.3,MacIntel,60
,,,,,,,,,,,,,,,,,,,,5,0.279000044,7,8.825000048,1,0,1200,261,1,1199,windsurfers,11117,2019-10-22_13h55.55.458,SurveyExpMetaMem,3.2.3,MacIntel,60
,,,,,,,,,,,,,,,,,,,,8,3.777000189,1,11.42799997,1,0,1200,902,1,1199,rejected,11117,2019-10-22_13h55.55.458,SurveyExpMetaMem,3.2.3,MacIntel,60
,,,,,,,,,,,,,,,,,,,,4,6.144999981,2,0.820000172,1,0,1200,311,1,1199,discomfort,11117,2019-10-22_13h55.55.458,SurveyExpMetaMem,3.2.3,MacIntel,60
,,,,,,,,,,,,,,,,,,,,7,2.821999788,7,1.419000149,1,0,1200,204,1,1199,crazy,11117,2019-10-22_13h55.55.458,SurveyExpMetaMem,3.2.3,MacIntel,60
,,,,,,,,,,,,,,,,,,,,5,3.92200017,5,0.276000023,1,0,1200,1050,1,1199,scorn,11117,2019-10-22_13h55.55.458,SurveyExpMetaMem,3.2.3,MacIntel,60
,,,,,,,,,,,,,,,,,,,,5,6.621999979,5,1.190999985,1,0,1200,840,1,1199,cuisine,11117,2019-10-22_13h55.55.458,SurveyExpMetaMem,3.2.3,MacIntel,60
,,,,,,,,,,,,,,,,,,,,5,2.556999922,4,0.388000011,1,0,1200,459,1,1199,heavy,11117,2019-10-22_13h55.55.458,SurveyExpMetaMem,3.2.3,MacIntel,60
,,,,,,,,,,,,,,,,,,,,6,3.470000029,7,2.090000153,1,0,1200,887,1,1199,elegant,11117,2019-10-22_13h55.55.458,SurveyExpMetaMem,3.2.3,MacIntel,60
,,,,,,,,,,,,,,,,,,,,2,4.239000082,6,5.404999971,1,0,1200,378,1,1199,dislike,11117,2019-10-22_13h55.55.458,SurveyExpMetaMem,3.2.3,MacIntel,60
,,,,,,,,,,,,,,,,,,,,2,6.044000149,2,1.730000019,1,0,1200,422,1,1199,doubtful,11117,2019-10-22_13h55.55.458,SurveyExpMetaMem,3.2.3,MacIntel,60
,,,,,,,,,,,,,,,,,,,,5,2.680000067,5,0.253000021,1,0,1200,629,1,1199,barn,11117,2019-10-22_13h55.55.458,SurveyExpMetaMem,3.2.3,MacIntel,60
,,,,,,,,,,,,,,,,,,,,6,13.921,7,1.381000042,1,0,1200,245,1,1199,beach,11117,2019-10-22_13h55.55.458,SurveyExpMetaMem,3.2.3,MacIntel,60
,,,,,,,,,,,,,,,,,,,,7,1.688000202,5,2.839999914,1,0,1200,134,1,1199,dollar,11117,2019-10-22_13h55.55.458,SurveyExpMetaMem,3.2.3,MacIntel,60
,,,,,,,,,,,,,,,,,,,,7,1.990999937,1,1.538000107,1,0,1200,1087,1,1199,affair,11117,2019-10-22_13h55.55.458,SurveyExpMetaMem,3.2.3,MacIntel,60
,,,,,,,,,,,,,,,,,,,,6,3.671999931,8,1.34100008,1,0,1200,196,1,1199,smile,11117,2019-10-22_13h55.55.458,SurveyExpMetaMem,3.2.3,MacIntel,60
,,,,,,,,,,,,,,,,,,,,8,2.024999857,2,1.223999977,1,0,1200,908,1,1199,suffer,11117,2019-10-22_13h55.55.458,SurveyExpMetaMem,3.2.3,MacIntel,60
,,,,,,,,,,,,,,,,,,,,5,1.406000137,5,0.17599988,1,0,1200,785,1,1199,pond,11117,2019-10-22_13h55.55.458,SurveyExpMetaMem,3.2.3,MacIntel,60
,,,,,,,,,,,,,,,,,,,,7,2.124000072,7,19.85599995,1,0,1200,60,1,1199,bikini,11117,2019-10-22_13h55.55.458,SurveyExpMetaMem,3.2.3,MacIntel,60
,,,,,,,,,,,,,,,,,,,,5,2.471000195,5,0.77699995,1,0,1200,172,1,1199,potential,11117,2019-10-22_13h55.55.458,SurveyExpMetaMem,3.2.3,MacIntel,60
,,,,,,,,,,,,,,,,,,,,4,2.996000051,3,0.592000008,1,0,1200,528,1,1199,dirt,11117,2019-10-22_13h55.55.458,SurveyExpMetaMem,3.2.3,MacIntel,60
,,,,,,,,,,,,,,,,,,,,4,2.845000029,4,0.559000015,1,0,1200,1124,1,1199,seize,11117,2019-10-22_13h55.55.458,SurveyExpMetaMem,3.2.3,MacIntel,60
,,,,,,,,,,,,,,,,,,,,5,1.604000092,5,0.423000097,1,0,1200,769,1,1199,relate,11117,2019-10-22_13h55.55.458,SurveyExpMetaMem,3.2.3,MacIntel,60
,,,,,,,,,,,,,,,,,,,,5,1.869999886,5,0.176000118,1,0,1200,418,1,1199,cheapskate,11117,2019-10-22_13h55.55.458,SurveyExpMetaMem,3.2.3,MacIntel,60
,,,,,,,,,,,,,,,,,,,,5,1.197999954,5,0.211999893,1,0,1200,480,1,1199,hinder,11117,2019-10-22_13h55.55.458,SurveyExpMetaMem,3.2.3,MacIntel,60
,,,,,,,,,,,,,,,,,,,,5,1.657999992,5,0.42599988,1,0,1200,531,1,1199,omit,11117,2019-10-22_13h55.55.458,SurveyExpMetaMem,3.2.3,MacIntel,60
,,,,,,,,,,,,,,,,,,,,5,13.77699995,5,0.439999819,1,0,1200,266,1,1199,juice,11117,2019-10-22_13h55.55.458,SurveyExpMetaMem,3.2.3,MacIntel,60
,,,,,,,,,,,,,,,,,,,,2,4.585999966,3,1.856999874,1,0,1200,408,1,1199,bore,11117,2019-10-22_13h55.55.458,SurveyExpMetaMem,3.2.3,MacIntel,60
,,,,,,,,,,,,,,,,,,,,5,3.759000063,5,1.587000132,1,0,1200,654,1,1199,brief,11117,2019-10-22_13h55.55.458,SurveyExpMetaMem,3.2.3,MacIntel,60
,,,,,,,,,,,,,,,,,,,,6,6.504999876,2,2.191999912,1,0,1200,544,1,1199,snail,11117,2019-10-22_13h55.55.458,SurveyExpMetaMem,3.2.3,MacIntel,60
,,,,,,,,,,,,,,,,,,,,7,4.890000105,8,1.02699995,1,0,1200,142,1,1199,christmas,11117,2019-10-22_13h55.55.458,SurveyExpMetaMem,3.2.3,MacIntel,60
,,,,,,,,,,,,,,,,,,,,7,3.845999956,2,3.019000053,1,0,1200,317,1,1199,cry,11117,2019-10-22_13h55.55.458,SurveyExpMetaMem,3.2.3,MacIntel,60
,,,,,,,,,,,,,,,,,,,,5,16.88900018,5,0.246999979,1,0,1200,356,1,1199,mucous,11117,2019-10-22_13h55.55.458,SurveyExpMetaMem,3.2.3,MacIntel,60
,,,,,,,,,,,,,,,,,,,,8,2.743999958,4,6.374000072,1,0,1200,918,1,1199,gunpoint,11117,2019-10-22_13h55.55.458,SurveyExpMetaMem,3.2.3,MacIntel,60
,,,,,,,,,,,,,,,,,,,,7,37.80800009,7,2.973999977,1,0,1200,789,1,1199,green,11117,2019-10-22_13h55.55.458,SurveyExpMetaMem,3.2.3,MacIntel,60
,,,,,,,,,,,,,,,,,,,,5,1.363000154,5,0.153000116,1,0,1200,434,1,1199,frail,11117,2019-10-22_13h55.55.458,SurveyExpMetaMem,3.2.3,MacIntel,60
,,,,,,,,,,,,,,,,,,,,5,1.770999908,5,0.203999996,1,0,1200,722,1,1199,consoled,11117,2019-10-22_13h55.55.458,SurveyExpMetaMem,3.2.3,MacIntel,60
,,,,,,,,,,,,,,,,,,,,4,2.048000097,7,0.772000074,1,0,1200,777,1,1199,casual,11117,2019-10-22_13h55.55.458,SurveyExpMetaMem,3.2.3,MacIntel,60
,,,,,,,,,,,,,,,,,,,,7,1.722000122,7,1.371999979,1,0,1200,28,1,1199,energy,11117,2019-10-22_13h55.55.458,SurveyExpMetaMem,3.2.3,MacIntel,60
,,,,,,,,,,,,,,,,,,,,5,1.327000141,5,0.243999958,1,0,1200,415,1,1199,grime,11117,2019-10-22_13h55.55.458,SurveyExpMetaMem,3.2.3,MacIntel,60
,,,,,,,,,,,,,,,,,,,,6,3.571999788,6,0.838999987,1,0,1200,868,1,1199,grace,11117,2019-10-22_13h55.55.458,SurveyExpMetaMem,3.2.3,MacIntel,60
,,,,,,,,,,,,,,,,,,,,6,6.552999973,5,3.385999918,1,0,1200,152,1,1199,hire,11117,2019-10-22_13h55.55.458,SurveyExpMetaMem,3.2.3,MacIntel,60
,,,,,,,,,,,,,,,,,,,,6,3.292999983,8,1.488999844,1,0,1200,99,1,1199,funny,11117,2019-10-22_13h55.55.458,SurveyExpMetaMem,3.2.3,MacIntel,60
,,,,,,,,,,,,,,,,,,,,5,2.054000139,5,0.430999994,1,0,1200,761,1,1199,corn,11117,2019-10-22_13h55.55.458,SurveyExpMetaMem,3.2.3,MacIntel,60
,,,,,,,,,,,,,,,,,,,,6,18.25800014,7,0.208999872,1,0,1200,227,1,1199,musician,11117,2019-10-22_13h55.55.458,SurveyExpMetaMem,3.2.3,MacIntel,60
,,,,,,,,,,,,,,,,,,,,5,3.011000156,5,0.157999992,1,0,1200,539,1,1199,novice,11117,2019-10-22_13h55.55.458,SurveyExpMetaMem,3.2.3,MacIntel,60
,,,,,,,,,,,,,,,,,,,,6,1.971999884,2,0.808000088,1,0,1200,1081,1,1199,damage,11117,2019-10-22_13h55.55.458,SurveyExpMetaMem,3.2.3,MacIntel,60
,,,,,,,,,,,,,,,,,,,,5,1.612000227,5,0.210999966,1,0,1200,1018,1,1199,distress,11117,2019-10-22_13h55.55.458,SurveyExpMetaMem,3.2.3,MacIntel,60
,,,,,,,,,,,,,,,,,,,,5,1.187999964,5,0.188999891,1,0,1200,749,1,1199,glasses,11117,2019-10-22_13h55.55.458,SurveyExpMetaMem,3.2.3,MacIntel,60
,,,,,,,,,,,,,,,,,,,,5,1.230999947,5,0.507999897,1,0,1200,666,1,1199,verify,11117,2019-10-22_13h55.55.458,SurveyExpMetaMem,3.2.3,MacIntel,60
,,,,,,,,,,,,,,,,,,,,6,2.539999962,2,0.645999908,1,0,1200,1001,1,1199,rude,11117,2019-10-22_13h55.55.458,SurveyExpMetaMem,3.2.3,MacIntel,60
,,,,,,,,,,,,,,,,,,,,5,2.256000042,5,0.194000006,1,0,1200,580,1,1199,fur,11117,2019-10-22_13h55.55.458,SurveyExpMetaMem,3.2.3,MacIntel,60
,,,,,,,,,,,,,,,,,,,,5,1.17599988,5,0.286000013,1,0,1200,609,1,1199,candlestick,11117,2019-10-22_13h55.55.458,SurveyExpMetaMem,3.2.3,MacIntel,60
,,,,,,,,,,,,,,,,,,,,5,0.940999985,5,1.252000093,1,0,1200,581,1,1199,dork,11117,2019-10-22_13h55.55.458,SurveyExpMetaMem,3.2.3,MacIntel,60
,,,,,,,,,,,,,,,,,,,,6,4.156000137,6,0.86500001,1,0,1200,719,1,1199,western,11117,2019-10-22_13h55.55.458,SurveyExpMetaMem,3.2.3,MacIntel,60
,,,,,,,,,,,,,,,,,,,,7,2.857000113,8,6.906999826,1,0,1200,16,1,1199,sing,11117,2019-10-22_13h55.55.458,SurveyExpMetaMem,3.2.3,MacIntel,60
,,,,,,,,,,,,,,,,,,,,5,1.069000006,5,0.153000116,1,0,1200,1074,1,1199,detain,11117,2019-10-22_13h55.55.458,SurveyExpMetaMem,3.2.3,MacIntel,60
,,,,,,,,,,,,,,,,,,,,4,2.954999924,5,1.090000153,1,0,1200,538,1,1199,crumbs,11117,2019-10-22_13h55.55.458,SurveyExpMetaMem,3.2.3,MacIntel,60
,,,,,,,,,,,,,,,,,,,,5,1.621000051,5,0.514000177,1,0,1200,374,1,1199,sluggish,11117,2019-10-22_13h55.55.458,SurveyExpMetaMem,3.2.3,MacIntel,60
,,,,,,,,,,,,,,,,,,,,5,1.878999949,5,0.241999865,1,0,1200,600,1,1199,parlor,11117,2019-10-22_13h55.55.458,SurveyExpMetaMem,3.2.3,MacIntel,60
,,,,,,,,,,,,,,,,,,,,7,6.585000038,6,1.258000135,1,0,1200,1183,1,1199,emotional,11117,2019-10-22_13h55.55.458,SurveyExpMetaMem,3.2.3,MacIntel,60
,,,,,,,,,,,,,,,,,,,,6,14.86399984,6,0.292999983,1,0,1200,375,1,1199,manure,11117,2019-10-22_13h55.55.458,SurveyExpMetaMem,3.2.3,MacIntel,60
,,,,,,,,,,,,,,,,,,,,6,1.608999968,3,1.144999981,1,0,1200,938,1,1199,seasick,11117,2019-10-22_13h55.55.458,SurveyExpMetaMem,3.2.3,MacIntel,60
,,,,,,,,,,,,,,,,,,,,5,1.375999928,5,0.186000109,1,0,1200,436,1,1199,mediocre,11117,2019-10-22_13h55.55.458,SurveyExpMetaMem,3.2.3,MacIntel,60
,,,,,,,,,,,,,,,,,,,,7,22.36299992,1,0.802999973,1,0,1200,911,1,1199,rejection,11117,2019-10-22_13h55.55.458,SurveyExpMetaMem,3.2.3,MacIntel,60
,,,,,,,,,,,,,,,,,,,,4,1.876999855,4,1.088999987,1,0,1200,617,1,1199,tomato,11117,2019-10-22_13h55.55.458,SurveyExpMetaMem,3.2.3,MacIntel,60
,,,,,,,,,,,,,,,,,,,,5,2.037000179,5,0.345000029,1,0,1200,150,1,1199,vodka,11117,2019-10-22_13h55.55.458,SurveyExpMetaMem,3.2.3,MacIntel,60
,,,,,,,,,,,,,,,,,,,,5,9.855000019,5,0.129000187,1,0,1200,728,1,1199,patio,11117,2019-10-22_13h55.55.458,SurveyExpMetaMem,3.2.3,MacIntel,60
,,,,,,,,,,,,,,,,,,,,6,1.890000105,3,0.894000053,1,0,1200,1108,1,1199,spider,11117,2019-10-22_13h55.55.458,SurveyExpMetaMem,3.2.3,MacIntel,60
,,,,,,,,,,,,,,,,,,,,7,2.019000053,7,2.197000027,1,0,1200,90,1,1199,satisfaction,11117,2019-10-22_13h55.55.458,SurveyExpMetaMem,3.2.3,MacIntel,60
,,,,,,,,,,,,,,,,,,,,5,1.204999924,5,0.138999939,1,0,1200,598,1,1199,feet,11117,2019-10-22_13h55.55.458,SurveyExpMetaMem,3.2.3,MacIntel,60
,,,,,,,,,,,,,,,,,,,,7,1.505000114,3,0.907999992,1,0,1200,1037,1,1199,scared,11117,2019-10-22_13h55.55.458,SurveyExpMetaMem,3.2.3,MacIntel,60
,,,,,,,,,,,,,,,,,,,,8,2.641000032,1,0.907999992,1,0,1200,303,1,1199,death,11117,2019-10-22_13h55.55.458,SurveyExpMetaMem,3.2.3,MacIntel,60
,,,,,,,,,,,,,,,,,,,,5,2.0849998,5,0.213000059,1,0,1200,872,1,1199,dignified,11117,2019-10-22_13h55.55.458,SurveyExpMetaMem,3.2.3,MacIntel,60
,,,,,,,,,,,,,,,,,,,,6,3.756000042,4,0.664000034,1,0,1200,550,1,1199,fart,11117,2019-10-22_13h55.55.458,SurveyExpMetaMem,3.2.3,MacIntel,60
,,,,,,,,,,,,,,,,,,,,5,1.772000074,4,2.615999937,1,0,1200,829,1,1199,innocent,11117,2019-10-22_13h55.55.458,SurveyExpMetaMem,3.2.3,MacIntel,60
,,,,,,,,,,,,,,,,,,,,6,6.571000099,5,2.003999949,1,0,1200,188,1,1199,profit,11117,2019-10-22_13h55.55.458,SurveyExpMetaMem,3.2.3,MacIntel,60
,,,,,,,,,,,,,,,,,,,,5,1.796000004,5,1.039000034,1,0,1200,784,1,1199,logical,11117,2019-10-22_13h55.55.458,SurveyExpMetaMem,3.2.3,MacIntel,60
,,,,,,,,,,,,,,,,,,,,7,2.546999931,7,2.154000044,1,0,1200,844,1,1199,soul,11117,2019-10-22_13h55.55.458,SurveyExpMetaMem,3.2.3,MacIntel,60
,,,,,,,,,,,,,,,,,,,,6,1.835000038,6,0.355000019,1,0,1200,169,1,1199,aid,11117,2019-10-22_13h55.55.458,SurveyExpMetaMem,3.2.3,MacIntel,60
,,,,,,,,,,,,,,,,,,,,5,1.506000042,5,0.194999933,1,0,1200,611,1,1199,herring,11117,2019-10-22_13h55.55.458,SurveyExpMetaMem,3.2.3,MacIntel,60
,,,,,,,,,,,,,,,,,,,,7,14.45700002,3,1.805000067,1,0,1200,1142,1,1199,disturb,11117,2019-10-22_13h55.55.458,SurveyExpMetaMem,3.2.3,MacIntel,60
,,,,,,,,,,,,,,,,,,,,7,2.088000059,2,0.464000225,1,0,1200,1092,1,1199,rattlesnake,11117,2019-10-22_13h55.55.458,SurveyExpMetaMem,3.2.3,MacIntel,60
,,,,,,,,,,,,,,,,,,,,7,2.546000004,2,0.525000095,1,0,1200,962,1,1199,poisonous,11117,2019-10-22_13h55.55.458,SurveyExpMetaMem,3.2.3,MacIntel,60
,,,,,,,,,,,,,,,,,,,,5,2.585999966,7,0.738000154,1,0,1200,847,1,1199,moon,11117,2019-10-22_13h55.55.458,SurveyExpMetaMem,3.2.3,MacIntel,60
,,,,,,,,,,,,,,,,,,,,5,1.737999916,5,0.256999969,1,0,1200,770,1,1199,buffalo,11117,2019-10-22_13h55.55.458,SurveyExpMetaMem,3.2.3,MacIntel,60
,,,,,,,,,,,,,,,,,,,,6,2.79399991,7,2.131000042,1,0,1200,291,1,1199,fantastic,11117,2019-10-22_13h55.55.458,SurveyExpMetaMem,3.2.3,MacIntel,60
,,,,,,,,,,,,,,,,,,,,7,10.19200015,7,0.894999981,1,0,1200,299,1,1199,champion,11117,2019-10-22_13h55.55.458,SurveyExpMetaMem,3.2.3,MacIntel,60
,,,,,,,,,,,,,,,,,,,,6,4.228999853,7,4.154000044,1,0,1200,242,1,1199,triumph,11117,2019-10-22_13h55.55.458,SurveyExpMetaMem,3.2.3,MacIntel,60
,,,,,,,,,,,,,,,,,,,,7,2.573999882,3,0.690999985,1,0,1200,916,1,1199,starvation,11117,2019-10-22_13h55.55.458,SurveyExpMetaMem,3.2.3,MacIntel,60
,,,,,,,,,,,,,,,,,,,,6,1.420999765,5,0.637000084,1,0,1200,765,1,1199,candid,11117,2019-10-22_13h55.55.458,SurveyExpMetaMem,3.2.3,MacIntel,60
,,,,,,,,,,,,,,,,,,,,7,2.621000051,3,0.523999929,1,0,1200,1000,1,1199,threat,11117,2019-10-22_13h55.55.458,SurveyExpMetaMem,3.2.3,MacIntel,60
,,,,,,,,,,,,,,,,,,,,5,1.620999813,5,0.447000027,1,0,1200,4,1,1199,night,11117,2019-10-22_13h55.55.458,SurveyExpMetaMem,3.2.3,MacIntel,60
,,,,,,,,,,,,,,,,,,,,7,40.17700005,6,6.463000059,1,0,1200,864,1,1199,blanket,11117,2019-10-22_13h55.55.458,SurveyExpMetaMem,3.2.3,MacIntel,60
,,,,,,,,,,,,,,,,,,,,5,1.286000013,5,0.148000002,1,0,1200,621,1,1199,chew,11117,2019-10-22_13h55.55.458,SurveyExpMetaMem,3.2.3,MacIntel,60
,,,,,,,,,,,,,,,,,,,,5,1.092999935,5,0.187999964,1,0,1200,691,1,1199,circle,11117,2019-10-22_13h55.55.458,SurveyExpMetaMem,3.2.3,MacIntel,60
,,,,,,,,,,,,,,,,,,,,5,1.604000092,4,0.373000145,1,0,1200,735,1,1199,tea,11117,2019-10-22_13h55.55.458,SurveyExpMetaMem,3.2.3,MacIntel,60
,,,,,,,,,,,,,,,,,,,,5,1.976000071,7,1.865999937,1,0,1200,835,1,1199,helpful,11117,2019-10-22_13h55.55.458,SurveyExpMetaMem,3.2.3,MacIntel,60
,,,,,,,,,,,,,,,,,,,,5,1.093000174,5,0.190999985,1,0,1200,700,1,1199,frog,11117,2019-10-22_13h55.55.458,SurveyExpMetaMem,3.2.3,MacIntel,60
,,,,,,,,,,,,,,,,,,,,3,2.95600009,6,1.690000057,1,0,1200,899,1,1199,relax,11117,2019-10-22_13h55.55.458,SurveyExpMetaMem,3.2.3,MacIntel,60
,,,,,,,,,,,,,,,,,,,,7,1.854000092,7,1.083999872,1,0,1200,74,1,1199,explore,11117,2019-10-22_13h55.55.458,SurveyExpMetaMem,3.2.3,MacIntel,60
,,,,,,,,,,,,,,,,,,,,6,7.565000057,6,1.608999968,1,0,1200,1169,1,1199,enforcement,11117,2019-10-22_13h55.55.458,SurveyExpMetaMem,3.2.3,MacIntel,60
,,,,,,,,,,,,,,,,,,,,5,2.188999891,5,0.212999821,1,0,1200,2,1,1199,zealous,11117,2019-10-22_13h55.55.458,SurveyExpMetaMem,3.2.3,MacIntel,60
,,,,,,,,,,,,,,,,,,,,7,73.63800001,3,1.60800004,1,0,1200,987,1,1199,disgusted,11117,2019-10-22_13h55.55.458,SurveyExpMetaMem,3.2.3,MacIntel,60
,,,,,,,,,,,,,,,,,,,,6,2.555999994,5,1.723999977,1,0,1200,419,1,1199,immature,11117,2019-10-22_13h55.55.458,SurveyExpMetaMem,3.2.3,MacIntel,60
,,,,,,,,,,,,,,,,,,,,5,1.243999958,5,0.194000006,1,0,1200,649,1,1199,donkey,11117,2019-10-22_13h55.55.458,SurveyExpMetaMem,3.2.3,MacIntel,60
,,,,,,,,,,,,,,,,,,,,7,3.243000031,8,0.802999973,1,0,1200,81,1,1199,best,11117,2019-10-22_13h55.55.458,SurveyExpMetaMem,3.2.3,MacIntel,60
,,,,,,,,,,,,,,,,,,,,5,1.138000011,5,0.204999924,1,0,1200,740,1,1199,groceries,11117,2019-10-22_13h55.55.458,SurveyExpMetaMem,3.2.3,MacIntel,60
,,,,,,,,,,,,,,,,,,,,5,0.708000183,4,3.815000057,1,0,1200,406,1,1199,tired,11117,2019-10-22_13h55.55.458,SurveyExpMetaMem,3.2.3,MacIntel,60
,,,,,,,,,,,,,,,,,,,,7,205.3210001,3,2.069000006,1,0,1200,952,1,1199,troubled,11117,2019-10-22_13h55.55.458,SurveyExpMetaMem,3.2.3,MacIntel,60
,,,,,,,,,,,,,,,,,,,,5,1.220000029,5,0.189999819,1,0,1200,445,1,1199,bleak,11117,2019-10-22_13h55.55.458,SurveyExpMetaMem,3.2.3,MacIntel,60
,,,,,,,,,,,,,,,,,,,,5,8.368999958,5,16.34899998,1,0,1200,924,1,1199,terrible,11117,2019-10-22_13h55.55.458,SurveyExpMetaMem,3.2.3,MacIntel,60
,,,,,,,,,,,,,,,,,,,,2,2.154000044,5,126.1530001,1,0,1200,105,1,1199,curious,11117,2019-10-22_13h55.55.458,SurveyExpMetaMem,3.2.3,MacIntel,60
,,,,,,,,,,,,,,,,,,,,6,0.243000031,7,2.398000002,1,0,1200,968,1,1199,insult,11117,2019-10-22_13h55.55.458,SurveyExpMetaMem,3.2.3,MacIntel,60
,,,,,,,,,,,,,,,,,,,,6,3.190999985,6,0.526000023,1,0,1200,1035,1,1199,expel,11117,2019-10-22_13h55.55.458,SurveyExpMetaMem,3.2.3,MacIntel,60
,,,,,,,,,,,,,,,,,,,,6,1.706999779,4,1.77699995,1,0,1200,350,1,1199,inadequate,11117,2019-10-22_13h55.55.458,SurveyExpMetaMem,3.2.3,MacIntel,60
,,,,,,,,,,,,,,,,,,,,5,1.105000019,5,0.143000126,1,0,1200,1144,1,1199,yelp,11117,2019-10-22_13h55.55.458,SurveyExpMetaMem,3.2.3,MacIntel,60
,,,,,,,,,,,,,,,,,,,,5,3.144999981,5,0.563000202,1,0,1200,517,1,1199,habit,11117,2019-10-22_13h55.55.458,SurveyExpMetaMem,3.2.3,MacIntel,60
,,,,,,,,,,,,,,,,,,,,5,43.61399984,2,1.953000069,1,0,1200,301,1,1199,sad,11117,2019-10-22_13h55.55.458,SurveyExpMetaMem,3.2.3,MacIntel,60
,,,,,,,,,,,,,,,,,,,,5,4.491999865,6,0.289000034,1,0,1200,292,1,1199,birthday,11117,2019-10-22_13h55.55.458,SurveyExpMetaMem,3.2.3,MacIntel,60
,,,,,,,,,,,,,,,,,,,,5,1.562000036,4,0.991999865,1,0,1200,357,1,1199,whine,11117,2019-10-22_13h55.55.458,SurveyExpMetaMem,3.2.3,MacIntel,60
,,,,,,,,,,,,,,,,,,,,5,1.847999811,4,0.355000019,1,0,1200,732,1,1199,humble,11117,2019-10-22_13h55.55.458,SurveyExpMetaMem,3.2.3,MacIntel,60
,,,,,,,,,,,,,,,,,,,,4,2.605000019,4,0.404999971,1,0,1200,815,1,1199,apple,11117,2019-10-22_13h55.55.458,SurveyExpMetaMem,3.2.3,MacIntel,60
,,,,,,,,,,,,,,,,,,,,5,3.406000137,5,0.200999975,1,0,1200,230,1,1199,eager,11117,2019-10-22_13h55.55.458,SurveyExpMetaMem,3.2.3,MacIntel,60
,,,,,,,,,,,,,,,,,,,,6,69.19700003,7,1.290999889,1,0,1200,275,1,1199,brilliant,11117,2019-10-22_13h55.55.458,SurveyExpMetaMem,3.2.3,MacIntel,60
,,,,,,,,,,,,,,,,,,,,5,27.46399999,5,0.138999939,1,0,1200,748,1,1199,town,11117,2019-10-22_13h55.55.458,SurveyExpMetaMem,3.2.3,MacIntel,60
,,,,,,,,,,,,,,,,,,,,5,1.011999846,5,0.190999985,1,0,1200,634,1,1199,glacier,11117,2019-10-22_13h55.55.458,SurveyExpMetaMem,3.2.3,MacIntel,60
,,,,,,,,,,,,,,,,,,,,5,1.621000051,6,0.322000027,1,0,1200,1097,1,1199,bees,11117,2019-10-22_13h55.55.458,SurveyExpMetaMem,3.2.3,MacIntel,60
,,,,,,,,,,,,,,,,,,,,5,1.405999899,5,0.302999973,1,0,1200,519,1,1199,listless,11117,2019-10-22_13h55.55.458,SurveyExpMetaMem,3.2.3,MacIntel,60
,,,,,,,,,,,,,,,,,,,,4,3.992999792,5,1.006999969,1,0,1200,795,1,1199,soup,11117,2019-10-22_13h55.55.458,SurveyExpMetaMem,3.2.3,MacIntel,60
,,,,,,,,,,,,,,,,,,,,5,1.524000168,5,0.161000013,1,0,1200,562,1,1199,average,11117,2019-10-22_13h55.55.458,SurveyExpMetaMem,3.2.3,MacIntel,60
,,,,,,,,,,,,,,,,,,,,4,125.599,4,0.140000105,1,0,1200,601,1,1199,roof,11117,2019-10-22_13h55.55.458,SurveyExpMetaMem,3.2.3,MacIntel,60
,,,,,,,,,,,,,,,,,,,,5,1.059999943,5,0.174000025,1,0,1200,165,1,1199,sizzle,11117,2019-10-22_13h55.55.458,SurveyExpMetaMem,3.2.3,MacIntel,60
,,,,,,,,,,,,,,,,,,,,6,25.63800001,3,0.743000031,1,0,1200,1126,1,1199,offensive,11117,2019-10-22_13h55.55.458,SurveyExpMetaMem,3.2.3,MacIntel,60
,,,,,,,,,,,,,,,,,,,,5,1.246999979,5,0.221999884,1,0,1200,946,1,1199,amputate,11117,2019-10-22_13h55.55.458,SurveyExpMetaMem,3.2.3,MacIntel,60
,,,,,,,,,,,,,,,,,,,,5,1.220999956,5,0.174000025,1,0,1200,417,1,1199,dummy,11117,2019-10-22_13h55.55.458,SurveyExpMetaMem,3.2.3,MacIntel,60
,,,,,,,,,,,,,,,,,,,,5,3.138000011,6,0.245000124,1,0,1200,853,1,1199,breeze,11117,2019-10-22_13h55.55.458,SurveyExpMetaMem,3.2.3,MacIntel,60
,,,,,,,,,,,,,,,,,,,,4,2.038000107,4,0.190000057,1,0,1200,623,1,1199,suburban,11117,2019-10-22_13h55.55.458,SurveyExpMetaMem,3.2.3,MacIntel,60
,,,,,,,,,,,,,,,,,,,,6,3.25999999,2,0.480000019,1,0,1200,467,1,1199,FALSE,11117,2019-10-22_13h55.55.458,SurveyExpMetaMem,3.2.3,MacIntel,60
,,,,,,,,,,,,,,,,,,,,5,1.046999931,5,0.157999992,1,0,1200,665,1,1199,read,11117,2019-10-22_13h55.55.458,SurveyExpMetaMem,3.2.3,MacIntel,60
,,,,,,,,,,,,,,,,,,,,5,0.998000145,5,0.818000078,1,0,1200,1109,1,1199,germ,11117,2019-10-22_13h55.55.458,SurveyExpMetaMem,3.2.3,MacIntel,60
,,,,,,,,,,,,,,,,,,,,5,1.779000044,4,1.371999979,1,0,1200,1072,1,1199,bothered,11117,2019-10-22_13h55.55.458,SurveyExpMetaMem,3.2.3,MacIntel,60
,,,,,,,,,,,,,,,,,,,,5,1.555000067,5,1.940000057,1,0,1200,543,1,1199,gloat,11117,2019-10-22_13h55.55.458,SurveyExpMetaMem,3.2.3,MacIntel,60
,,,,,,,,,,,,,,,,,,,,5,1.978000164,4,0.68599987,1,0,1200,325,1,1199,disability,11117,2019-10-22_13h55.55.458,SurveyExpMetaMem,3.2.3,MacIntel,60
,,,,,,,,,,,,,,,,,,,,5,1.512999773,5,0.407999992,1,0,1200,866,1,1199,haven,11117,2019-10-22_13h55.55.458,SurveyExpMetaMem,3.2.3,MacIntel,60
,,,,,,,,,,,,,,,,,,,,6,2.555999994,7,0.822999954,1,0,1200,894,1,1199,sunset,11117,2019-10-22_13h55.55.458,SurveyExpMetaMem,3.2.3,MacIntel,60
,,,,,,,,,,,,,,,,,,,,4,4.354000092,6,0.965999842,1,0,1200,614,1,1199,crossword,11117,2019-10-22_13h55.55.458,SurveyExpMetaMem,3.2.3,MacIntel,60
,,,,,,,,,,,,,,,,,,,,5,1.107000113,5,0.414000034,1,0,1200,825,1,1199,swan,11117,2019-10-22_13h55.55.458,SurveyExpMetaMem,3.2.3,MacIntel,60
,,,,,,,,,,,,,,,,,,,,5,1.537999868,5,0.71999979,1,0,1200,214,1,1199,revive,11117,2019-10-22_13h55.55.458,SurveyExpMetaMem,3.2.3,MacIntel,60
,,,,,,,,,,,,,,,,,,,,5,0.974999905,5,0.293000221,1,0,1200,1160,1,1199,enlist,11117,2019-10-22_13h55.55.458,SurveyExpMetaMem,3.2.3,MacIntel,60
,,,,,,,,,,,,,,,,,,,,5,1.161000013,5,0.628000021,1,0,1200,684,1,1199,send,11117,2019-10-22_13h55.55.458,SurveyExpMetaMem,3.2.3,MacIntel,60
,,,,,,,,,,,,,,,,,,,,5,3.815000057,4,1.039999962,1,0,1200,1017,1,1199,aggravated,11117,2019-10-22_13h55.55.458,SurveyExpMetaMem,3.2.3,MacIntel,60
,,,,,,,,,,,,,,,,,,,,6,3.738000154,5,1.963000059,1,0,1200,202,1,1199,mercy,11117,2019-10-22_13h55.55.458,SurveyExpMetaMem,3.2.3,MacIntel,60
,,,,,,,,,,,,,,,,,,,,6,66.42499995,2,0.84800005,1,0,1200,917,1,1199,slave,11117,2019-10-22_13h55.55.458,SurveyExpMetaMem,3.2.3,MacIntel,60
,,,,,,,,,,,,,,,,,,,,5,1.174000025,5,0.147000074,1,0,1200,743,1,1199,herbal,11117,2019-10-22_13h55.55.458,SurveyExpMetaMem,3.2.3,MacIntel,60
,,,,,,,,,,,,,,,,,,,,5,1.437999964,5,0.605999947,1,0,1200,367,1,1199,pathetic,11117,2019-10-22_13h55.55.458,SurveyExpMetaMem,3.2.3,MacIntel,60
,,,,,,,,,,,,,,,,,,,,4,1.338000059,4,0.174000025,1,0,1200,702,1,1199,den,11117,2019-10-22_13h55.55.458,SurveyExpMetaMem,3.2.3,MacIntel,60
,,,,,,,,,,,,,,,,,,,,5,2.02699995,6,0.319000006,1,0,1200,246,1,1199,complete,11117,2019-10-22_13h55.55.458,SurveyExpMetaMem,3.2.3,MacIntel,60
,,,,,,,,,,,,,,,,,,,,6,1.690000057,7,0.6650002,1,0,1200,226,1,1199,prize,11117,2019-10-22_13h55.55.458,SurveyExpMetaMem,3.2.3,MacIntel,60
,,,,,,,,,,,,,,,,,,,,5,1.359000206,3,1.095999956,1,0,1200,351,1,1199,germs,11117,2019-10-22_13h55.55.458,SurveyExpMetaMem,3.2.3,MacIntel,60
,,,,,,,,,,,,,,,,,,,,5,1.345000029,3,0.420000076,1,0,1200,1064,1,1199,sinful,11117,2019-10-22_13h55.55.458,SurveyExpMetaMem,3.2.3,MacIntel,60
,,,,,,,,,,,,,,,,,,,,5,2.30700016,6,0.357999802,1,0,1200,775,1,1199,pancakes,11117,2019-10-22_13h55.55.458,SurveyExpMetaMem,3.2.3,MacIntel,60
,,,,,,,,,,,,,,,,,,,,5,1.201999903,6,0.40500021,1,0,1200,398,1,1199,handicapped,11117,2019-10-22_13h55.55.458,SurveyExpMetaMem,3.2.3,MacIntel,60
,,,,,,,,,,,,,,,,,,,,5,2.423000097,6,0.472000122,1,0,1200,800,1,1199,authentic,11117,2019-10-22_13h55.55.458,SurveyExpMetaMem,3.2.3,MacIntel,60
,,,,,,,,,,,,,,,,,,,,5,2.588999987,4,1.230000019,1,0,1200,1033,1,1199,horror,11117,2019-10-22_13h55.55.458,SurveyExpMetaMem,3.2.3,MacIntel,60
,,,,,,,,,,,,,,,,,,,,7,3.141000032,3,1.210000038,1,0,1200,1046,1,1199,unsafe,11117,2019-10-22_13h55.55.458,SurveyExpMetaMem,3.2.3,MacIntel,60
,,,,,,,,,,,,,,,,,,,,7,8.895999908,6,1.026000023,1,0,1200,1032,1,1199,exam,11117,2019-10-22_13h55.55.458,SurveyExpMetaMem,3.2.3,MacIntel,60
,,,,,,,,,,,,,,,,,,,,5,1.609999895,5,0.165999889,1,0,1200,151,1,1199,react,11117,2019-10-22_13h55.55.458,SurveyExpMetaMem,3.2.3,MacIntel,60
,,,,,,,,,,,,,,,,,,,,6,1.47300005,7,0.157999992,1,0,1200,286,1,1199,superstar,11117,2019-10-22_13h55.55.458,SurveyExpMetaMem,3.2.3,MacIntel,60
,,,,,,,,,,,,,,,,,,,,5,4.046000004,6,1.25999999,1,0,1200,212,1,1199,belief,11117,2019-10-22_13h55.55.458,SurveyExpMetaMem,3.2.3,MacIntel,60
,,,,,,,,,,,,,,,,,,,,6,13.97300005,5,18.87100005,1,0,1200,1088,1,1199,forbid,11117,2019-10-22_13h55.55.458,SurveyExpMetaMem,3.2.3,MacIntel,60
,,,,,,,,,,,,,,,,,,,,6,1.384000063,6,0.355999947,1,0,1200,354,1,1199,cowardice,11117,2019-10-22_13h55.55.458,SurveyExpMetaMem,3.2.3,MacIntel,60
,,,,,,,,,,,,,,,,,,,,5,1.075999975,5,0.224999905,1,0,1200,843,1,1199,garden,11117,2019-10-22_13h55.55.458,SurveyExpMetaMem,3.2.3,MacIntel,60
,,,,,,,,,,,,,,,,,,,,6,6.773000002,5,1.325999975,1,0,1200,363,1,1199,dumb,11117,2019-10-22_13h55.55.458,SurveyExpMetaMem,3.2.3,MacIntel,60
,,,,,,,,,,,,,,,,,,,,7,2.424000025,3,3.555999994,1,0,1200,1154,1,1199,politics,11117,2019-10-22_13h55.55.458,SurveyExpMetaMem,3.2.3,MacIntel,60
,,,,,,,,,,,,,,,,,,,,5,1.94299984,5,0.157000065,1,0,1200,879,1,1199,bird,11117,2019-10-22_13h55.55.458,SurveyExpMetaMem,3.2.3,MacIntel,60
,,,,,,,,,,,,,,,,,,,,5,1.069999933,5,0.326999903,1,0,1200,461,1,1199,ail,11117,2019-10-22_13h55.55.458,SurveyExpMetaMem,3.2.3,MacIntel,60
,,,,,,,,,,,,,,,,,,,,6,2.687999964,6,3.107000113,1,0,1200,284,1,1199,delight,11117,2019-10-22_13h55.55.458,SurveyExpMetaMem,3.2.3,MacIntel,60
,,,,,,,,,,,,,,,,,,,,5,1.489000082,5,0.228999853,1,0,1200,653,1,1199,detail,11117,2019-10-22_13h55.55.458,SurveyExpMetaMem,3.2.3,MacIntel,60
,,,,,,,,,,,,,,,,,,,,5,3.144000053,4,2.85800004,1,0,1200,523,1,1199,witch,11117,2019-10-22_13h55.55.458,SurveyExpMetaMem,3.2.3,MacIntel,60
,,,,,,,,,,,,,,,,,,,,6,1.194000006,6,0.538999796,1,0,1200,511,1,1199,slouch,11117,2019-10-22_13h55.55.458,SurveyExpMetaMem,3.2.3,MacIntel,60
,,,,,,,,,,,,,,,,,,,,5,1.99000001,5,1.18599987,1,0,1200,179,1,1199,star,11117,2019-10-22_13h55.55.458,SurveyExpMetaMem,3.2.3,MacIntel,60
,,,,,,,,,,,,,,,,,,,,8,1.808000088,7,1.438000202,1,0,1200,20,1,1199,climax,11117,2019-10-22_13h55.55.458,SurveyExpMetaMem,3.2.3,MacIntel,60
,,,,,,,,,,,,,,,,,,,,8,2.679000139,3,0.892000198,1,0,1200,1073,1,1199,bitch,11117,2019-10-22_13h55.55.458,SurveyExpMetaMem,3.2.3,MacIntel,60
,,,,,,,,,,,,,,,,,,,,5,1.335000038,5,0.180000067,1,0,1200,466,1,1199,gnaw,11117,2019-10-22_13h55.55.458,SurveyExpMetaMem,3.2.3,MacIntel,60
,,,,,,,,,,,,,,,,,,,,5,2.355999947,7,2.074999809,1,0,1200,809,1,1199,boy,11117,2019-10-22_13h55.55.458,SurveyExpMetaMem,3.2.3,MacIntel,60
,,,,,,,,,,,,,,,,,,,,5,1.038000107,5,0.212000132,1,0,1200,690,1,1199,similar,11117,2019-10-22_13h55.55.458,SurveyExpMetaMem,3.2.3,MacIntel,60
,,,,,,,,,,,,,,,,,,,,5,0.857000113,5,1.181999922,1,0,1200,1103,1,1199,mob,11117,2019-10-22_13h55.55.458,SurveyExpMetaMem,3.2.3,MacIntel,60
,,,,,,,,,,,,,,,,,,,,5,16.27900004,5,0.187999964,1,0,1200,29,1,1199,life,11117,2019-10-22_13h55.55.458,SurveyExpMetaMem,3.2.3,MacIntel,60
,,,,,,,,,,,,,,,,,,,,5,3.713000059,5,1.174000025,1,0,1200,694,1,1199,pecan,11117,2019-10-22_13h55.55.458,SurveyExpMetaMem,3.2.3,MacIntel,60
,,,,,,,,,,,,,,,,,,,,5,0.927999973,5,0.179999828,1,0,1200,739,1,1199,seagull,11117,2019-10-22_13h55.55.458,SurveyExpMetaMem,3.2.3,MacIntel,60
,,,,,,,,,,,,,,,,,,,,5,2.205000162,6,0.227999926,1,0,1200,884,1,1199,grateful,11117,2019-10-22_13h55.55.458,SurveyExpMetaMem,3.2.3,MacIntel,60
,,,,,,,,,,,,,,,,,,,,6,2.038000107,2,0.523000002,1,0,1200,978,1,1199,starving,11117,2019-10-22_13h55.55.458,SurveyExpMetaMem,3.2.3,MacIntel,60
,,,,,,,,,,,,,,,,,,,,5,21.79699993,5,0.146999836,1,0,1200,1060,1,1199,dent,11117,2019-10-22_13h55.55.458,SurveyExpMetaMem,3.2.3,MacIntel,60
,,,,,,,,,,,,,,,,,,,,5,1.345000029,5,0.22300005,1,0,1200,349,1,1199,mope,11117,2019-10-22_13h55.55.458,SurveyExpMetaMem,3.2.3,MacIntel,60
,,,,,,,,,,,,,,,,,,,,7,2.109999895,2,0.674999952,1,0,1200,954,1,1199,hostage,11117,2019-10-22_13h55.55.458,SurveyExpMetaMem,3.2.3,MacIntel,60
,,,,,,,,,,,,,,,,,,,,6,2.037999868,2,0.439999819,1,0,1200,318,1,1199,disappointment,11117,2019-10-22_13h55.55.458,SurveyExpMetaMem,3.2.3,MacIntel,60
,,,,,,,,,,,,,,,,,,,,8,2.241999865,2,0.536000013,1,0,1200,1171,1,1199,chaos,11117,2019-10-22_13h55.55.458,SurveyExpMetaMem,3.2.3,MacIntel,60
,,,,,,,,,,,,,,,,,,,,8,2.721999884,7,0.372999907,1,0,1200,49,1,1199,ecstatic,11117,2019-10-22_13h55.55.458,SurveyExpMetaMem,3.2.3,MacIntel,60
,,,,,,,,,,,,,,,,,,,,5,1.254999876,5,0.174999952,1,0,1200,525,1,1199,stagnant,11117,2019-10-22_13h55.55.458,SurveyExpMetaMem,3.2.3,MacIntel,60
,,,,,,,,,,,,,,,,,,,,7,1.851999998,3,0.323000193,1,0,1200,1005,1,1199,pissed,11117,2019-10-22_13h55.55.458,SurveyExpMetaMem,3.2.3,MacIntel,60
,,,,,,,,,,,,,,,,,,,,6,0.904999971,6,0.769000053,1,0,1200,955,1,1199,drown,11117,2019-10-22_13h55.55.458,SurveyExpMetaMem,3.2.3,MacIntel,60
,,,,,,,,,,,,,,,,,,,,6,2.289999962,5,1.190000057,1,0,1200,535,1,1199,ramble,11117,2019-10-22_13h55.55.458,SurveyExpMetaMem,3.2.3,MacIntel,60
,,,,,,,,,,,,,,,,,,,,5,1.123000145,5,0.180000067,1,0,1200,699,1,1199,leg,11117,2019-10-22_13h55.55.458,SurveyExpMetaMem,3.2.3,MacIntel,60
,,,,,,,,,,,,,,,,,,,,5,0.805999994,5,0.136999846,1,0,1200,61,1,1199,zoom,11117,2019-10-22_13h55.55.458,SurveyExpMetaMem,3.2.3,MacIntel,60
,,,,,,,,,,,,,,,,,,,,5,0.705000162,5,0.440999985,1,0,1200,745,1,1199,inform,11117,2019-10-22_13h55.55.458,SurveyExpMetaMem,3.2.3,MacIntel,60
,,,,,,,,,,,,,,,,,,,,5,1.187999964,5,0.242000103,1,0,1200,1096,1,1199,flood,11117,2019-10-22_13h55.55.458,SurveyExpMetaMem,3.2.3,MacIntel,60
,,,,,,,,,,,,,,,,,,,,6,1.627000093,3,0.444000006,1,0,1200,997,1,1199,injury,11117,2019-10-22_13h55.55.458,SurveyExpMetaMem,3.2.3,MacIntel,60
,,,,,,,,,,,,,,,,,,,,6,1.273999929,3,0.924999952,1,0,1200,1181,1,1199,blade,11117,2019-10-22_13h55.55.458,SurveyExpMetaMem,3.2.3,MacIntel,60
,,,,,,,,,,,,,,,,,,,,5,1.773999929,6,0.179000139,1,0,1200,70,1,1199,cartoon,11117,2019-10-22_13h55.55.458,SurveyExpMetaMem,3.2.3,MacIntel,60
,,,,,,,,,,,,,,,,,,,,5,1.190999985,5,0.229000092,1,0,1200,638,1,1199,quench,11117,2019-10-22_13h55.55.458,SurveyExpMetaMem,3.2.3,MacIntel,60
,,,,,,,,,,,,,,,,,,,,6,1.809999943,3,0.980999947,1,0,1200,384,1,1199,idiot,11117,2019-10-22_13h55.55.458,SurveyExpMetaMem,3.2.3,MacIntel,60
,,,,,,,,,,,,,,,,,,,,6,3.004999876,3,0.730000019,1,0,1200,1082,1,1199,hazard,11117,2019-10-22_13h55.55.458,SurveyExpMetaMem,3.2.3,MacIntel,60
,,,,,,,,,,,,,,,,,,,,5,42.52199984,6,0.211999893,1,0,1200,189,1,1199,thoughtful,11117,2019-10-22_13h55.55.458,SurveyExpMetaMem,3.2.3,MacIntel,60
,,,,,,,,,,,,,,,,,,,,5,2.773000002,5,0.177999973,1,0,1200,837,1,1199,responsible,11117,2019-10-22_13h55.55.458,SurveyExpMetaMem,3.2.3,MacIntel,60
,,,,,,,,,,,,,,,,,,,,5,1.174000025,6,0.756999969,1,0,1200,30,1,1199,impressed,11117,2019-10-22_13h55.55.458,SurveyExpMetaMem,3.2.3,MacIntel,60
,,,,,,,,,,,,,,,,,,,,5,2.095000029,5,0.208000183,1,0,1200,688,1,1199,jelly,11117,2019-10-22_13h55.55.458,SurveyExpMetaMem,3.2.3,MacIntel,60
,,,,,,,,,,,,,,,,,,,,5,0.613000154,7,1.131000042,1,0,1200,805,1,1199,autumn,11117,2019-10-22_13h55.55.458,SurveyExpMetaMem,3.2.3,MacIntel,60
,,,,,,,,,,,,,,,,,,,,7,1.561000109,4,0.579999924,1,0,1200,1068,1,1199,riot,11117,2019-10-22_13h55.55.458,SurveyExpMetaMem,3.2.3,MacIntel,60
,,,,,,,,,,,,,,,,,,,,5,1.423000097,5,0.678999901,1,0,1200,343,1,1199,fever,11117,2019-10-22_13h55.55.458,SurveyExpMetaMem,3.2.3,MacIntel,60
,,,,,,,,,,,,,,,,,,,,5,1.504999876,4,1.312000036,1,0,1200,405,1,1199,fatigued,11117,2019-10-22_13h55.55.458,SurveyExpMetaMem,3.2.3,MacIntel,60
,,,,,,,,,,,,,,,,,,,,4,1.346999884,3,0.476999998,1,0,1200,1178,1,1199,weight,11117,2019-10-22_13h55.55.458,SurveyExpMetaMem,3.2.3,MacIntel,60
,,,,,,,,,,,,,,,,,,,,4,1.962000132,3,0.523000002,1,0,1200,1163,1,1199,python,11117,2019-10-22_13h55.55.458,SurveyExpMetaMem,3.2.3,MacIntel,60
,,,,,,,,,,,,,,,,,,,,5,2.0849998,6,0.202000141,1,0,1200,156,1,1199,gym,11117,2019-10-22_13h55.55.458,SurveyExpMetaMem,3.2.3,MacIntel,60
,,,,,,,,,,,,,,,,,,,,4,2.24000001,3,0.820999861,1,0,1200,931,1,1199,overweight,11117,2019-10-22_13h55.55.458,SurveyExpMetaMem,3.2.3,MacIntel,60
,,,,,,,,,,,,,,,,,,,,4,1.621000051,3,0.144000053,1,0,1200,364,1,1199,stink,11117,2019-10-22_13h55.55.458,SurveyExpMetaMem,3.2.3,MacIntel,60
,,,,,,,,,,,,,,,,,,,,5,1.221999884,5,0.148999929,1,0,1200,1153,1,1199,mangle,11117,2019-10-22_13h55.55.458,SurveyExpMetaMem,3.2.3,MacIntel,60
,,,,,,,,,,,,,,,,,,,,5,0.968999863,5,0.161000013,1,0,1200,288,1,1199,tasty,11117,2019-10-22_13h55.55.458,SurveyExpMetaMem,3.2.3,MacIntel,60
,,,,,,,,,,,,,,,,,,,,5,0.960999966,5,0.207000017,1,0,1200,219,1,1199,know,11117,2019-10-22_13h55.55.458,SurveyExpMetaMem,3.2.3,MacIntel,60
,,,,,,,,,,,,,,,,,,,,6,1.743000031,7,0.023999929,1,0,1200,87,1,1199,cookie,11117,2019-10-22_13h55.55.458,SurveyExpMetaMem,3.2.3,MacIntel,60
,,,,,,,,,,,,,,,,,,,,5,2.14199996,5,0.256000042,1,0,1200,757,1,1199,sentiment,11117,2019-10-22_13h55.55.458,SurveyExpMetaMem,3.2.3,MacIntel,60
,,,,,,,,,,,,,,,,,,,,6,21.67000008,6,0.15500021,1,0,1200,1112,1,1199,pressure,11117,2019-10-22_13h55.55.458,SurveyExpMetaMem,3.2.3,MacIntel,60
,,,,,,,,,,,,,,,,,,,,6,1.555000067,3,0.138999939,1,0,1200,565,1,1199,frozen,11117,2019-10-22_13h55.55.458,SurveyExpMetaMem,3.2.3,MacIntel,60
,,,,,,,,,,,,,,,,,,,,5,1.388000011,6,0.361000061,1,0,1200,862,1,1199,ease,11117,2019-10-22_13h55.55.458,SurveyExpMetaMem,3.2.3,MacIntel,60
,,,,,,,,,,,,,,,,,,,,5,1.177000046,5,0.224999905,1,0,1200,331,1,1199,casket,11117,2019-10-22_13h55.55.458,SurveyExpMetaMem,3.2.3,MacIntel,60
,,,,,,,,,,,,,,,,,,,,5,1.029000044,5,0.176000118,1,0,1200,619,1,1199,pulpit,11117,2019-10-22_13h55.55.458,SurveyExpMetaMem,3.2.3,MacIntel,60
,,,,,,,,,,,,,,,,,,,,5,1.907999992,7,0.423999786,1,0,1200,31,1,1199,brownie,11117,2019-10-22_13h55.55.458,SurveyExpMetaMem,3.2.3,MacIntel,60
,,,,,,,,,,,,,,,,,,,,5,5.151000023,5,0.171999931,1,0,1200,1098,1,1199,confused,11117,2019-10-22_13h55.55.458,SurveyExpMetaMem,3.2.3,MacIntel,60
,,,,,,,,,,,,,,,,,,,,5,1.746999979,3,0.097000122,1,0,1200,930,1,1199,poison,11117,2019-10-22_13h55.55.458,SurveyExpMetaMem,3.2.3,MacIntel,60
,,,,,,,,,,,,,,,,,,,,5,1.496999979,3,0.621999979,1,0,1200,339,1,1199,chore,11117,2019-10-22_13h55.55.458,SurveyExpMetaMem,3.2.3,MacIntel,60
,,,,,,,,,,,,,,,,,,,,5,1.029999971,3,0.090999842,1,0,1200,232,1,1199,prosper,11117,2019-10-22_13h55.55.458,SurveyExpMetaMem,3.2.3,MacIntel,60
,,,,,,,,,,,,,,,,,,,,5,0.747000217,5,1.256999969,1,0,1200,701,1,1199,telephone,11117,2019-10-22_13h55.55.458,SurveyExpMetaMem,3.2.3,MacIntel,60
,,,,,,,,,,,,,,,,,,,,5,1.889999866,7,0.088000059,1,0,1200,51,1,1199,body,11117,2019-10-22_13h55.55.458,SurveyExpMetaMem,3.2.3,MacIntel,60
,,,,,,,,,,,,,,,,,,,,5,1.97300005,6,0.07400012,1,0,1200,537,1,1199,absurd,11117,2019-10-22_13h55.55.458,SurveyExpMetaMem,3.2.3,MacIntel,60
,,,,,,,,,,,,,,,,,,,,6,1.788000107,6,0.97300005,1,0,1200,236,1,1199,amaze,11117,2019-10-22_13h55.55.458,SurveyExpMetaMem,3.2.3,MacIntel,60
,,,,,,,,,,,,,,,,,,,,6,1.435000181,6,0.207000017,1,0,1200,94,1,1199,engaged,11117,2019-10-22_13h55.55.458,SurveyExpMetaMem,3.2.3,MacIntel,60
,,,,,,,,,,,,,,,,,,,,4,3.421000004,6,0.694000006,1,0,1200,790,1,1199,binoculars,11117,2019-10-22_13h55.55.458,SurveyExpMetaMem,3.2.3,MacIntel,60
,,,,,,,,,,,,,,,,,,,,4,3.701999903,5,0.812999964,1,0,1200,643,1,1199,library,11117,2019-10-22_13h55.55.458,SurveyExpMetaMem,3.2.3,MacIntel,60
,,,,,,,,,,,,,,,,,,,,4,1.760999918,5,0.378999949,1,0,1200,820,1,1199,oxygen,11117,2019-10-22_13h55.55.458,SurveyExpMetaMem,3.2.3,MacIntel,60
,,,,,,,,,,,,,,,,,,,,5,1.023000002,5,0.180000067,1,0,1200,321,1,1199,wart,11117,2019-10-22_13h55.55.458,SurveyExpMetaMem,3.2.3,MacIntel,60
,,,,,,,,,,,,,,,,,,,,5,2.240999937,5,0.196000099,1,0,1200,681,1,1199,fig,11117,2019-10-22_13h55.55.458,SurveyExpMetaMem,3.2.3,MacIntel,60
,,,,,,,,,,,,,,,,,,,,5,1.237999916,5,0.207000017,1,0,1200,475,1,1199,nameless,11117,2019-10-22_13h55.55.458,SurveyExpMetaMem,3.2.3,MacIntel,60
,,,,,,,,,,,,,,,,,,,,6,2.005999804,2,0.72300005,1,0,1200,920,1,1199,hurt,11117,2019-10-22_13h55.55.458,SurveyExpMetaMem,3.2.3,MacIntel,60
,,,,,,,,,,,,,,,,,,,,5,1.971999884,3,0.608999968,1,0,1200,1080,1,1199,broken,11117,2019-10-22_13h55.55.458,SurveyExpMetaMem,3.2.3,MacIntel,60
,,,,,,,,,,,,,,,,,,,,5,1.207000017,5,0.211999893,1,0,1200,21,1,1199,game,11117,2019-10-22_13h55.55.458,SurveyExpMetaMem,3.2.3,MacIntel,60
,,,,,,,,,,,,,,,,,,,,5,1.079999924,5,0.188999891,1,0,1200,282,1,1199,luck,11117,2019-10-22_13h55.55.458,SurveyExpMetaMem,3.2.3,MacIntel,60
,,,,,,,,,,,,,,,,,,,,5,1.828999996,5,0.673000097,1,0,1200,1084,1,1199,uneasy,11117,2019-10-22_13h55.55.458,SurveyExpMetaMem,3.2.3,MacIntel,60
,,,,,,,,,,,,,,,,,,,,4,22.49499989,3,0.876999855,1,0,1200,433,1,1199,uninteresting,11117,2019-10-22_13h55.55.458,SurveyExpMetaMem,3.2.3,MacIntel,60
,,,,,,,,,,,,,,,,,,,,4,1.253000021,5,0.453000069,1,0,1200,631,1,1199,delicate,11117,2019-10-22_13h55.55.458,SurveyExpMetaMem,3.2.3,MacIntel,60
,,,,,,,,,,,,,,,,,,,,5,1.443000078,6,0.131999969,1,0,1200,36,1,1199,puppy,11117,2019-10-22_13h55.55.458,SurveyExpMetaMem,3.2.3,MacIntel,60
,,,,,,,,,,,,,,,,,,,,4,1.327000141,3,0.34100008,1,0,1200,559,1,1199,lazy,11117,2019-10-22_13h55.55.458,SurveyExpMetaMem,3.2.3,MacIntel,60
,,,,,,,,,,,,,,,,,,,,5,1.486999989,5,0.173000097,1,0,1200,764,1,1199,coin,11117,2019-10-22_13h55.55.458,SurveyExpMetaMem,3.2.3,MacIntel,60
,,,,,,,,,,,,,,,,,,,,5,0.861999989,5,0.24000001,1,0,1200,1173,1,1199,lurk,11117,2019-10-22_13h55.55.458,SurveyExpMetaMem,3.2.3,MacIntel,60
,,,,,,,,,,,,,,,,,,,,5,1.644000053,5,0.489000082,1,0,1200,474,1,1199,weary,11117,2019-10-22_13h55.55.458,SurveyExpMetaMem,3.2.3,MacIntel,60
,,,,,,,,,,,,,,,,,,,,5,0.908000231,5,0.264000177,1,0,1200,994,1,1199,repulsed,11117,2019-10-22_13h55.55.458,SurveyExpMetaMem,3.2.3,MacIntel,60
,,,,,,,,,,,,,,,,,,,,5,1.328999996,4,0.171000004,1,0,1200,108,1,1199,naked,11117,2019-10-22_13h55.55.458,SurveyExpMetaMem,3.2.3,MacIntel,60
,,,,,,,,,,,,,,,,,,,,5,5.073999882,4,0.06400013,1,0,1200,473,1,1199,senseless,11117,2019-10-22_13h55.55.458,SurveyExpMetaMem,3.2.3,MacIntel,60
,,,,,,,,,,,,,,,,,,,,4,2.187999964,4,0.222000122,1,0,1200,590,1,1199,stool,11117,2019-10-22_13h55.55.458,SurveyExpMetaMem,3.2.3,MacIntel,60
,,,,,,,,,,,,,,,,,,,,4,1.815999985,5,0.090000153,1,0,1200,540,1,1199,derelict,11117,2019-10-22_13h55.55.458,SurveyExpMetaMem,3.2.3,MacIntel,60
,,,,,,,,,,,,,,,,,,,,4,1.058000088,5,0.090999842,1,0,1200,575,1,1199,paragraph,11117,2019-10-22_13h55.55.458,SurveyExpMetaMem,3.2.3,MacIntel,60
,,,,,,,,,,,,,,,,,,,,5,1.513999939,6,0.094000101,1,0,1200,96,1,1199,joke,11117,2019-10-22_13h55.55.458,SurveyExpMetaMem,3.2.3,MacIntel,60
,,,,,,,,,,,,,,,,,,,,8,1.809999943,2,0.54399991,1,0,1200,950,1,1199,murder,11117,2019-10-22_13h55.55.458,SurveyExpMetaMem,3.2.3,MacIntel,60
,,,,,,,,,,,,,,,,,,,,7,1.883999825,2,0.35800004,1,0,1200,326,1,1199,scam,11117,2019-10-22_13h55.55.458,SurveyExpMetaMem,3.2.3,MacIntel,60
,,,,,,,,,,,,,,,,,,,,7,1.822000027,2,0.437999964,1,0,1200,1059,1,1199,harsh,11117,2019-10-22_13h55.55.458,SurveyExpMetaMem,3.2.3,MacIntel,60
,,,,,,,,,,,,,,,,,,,,7,1.171000004,2,0.355999947,1,0,1200,1002,1,1199,wounds,11117,2019-10-22_13h55.55.458,SurveyExpMetaMem,3.2.3,MacIntel,60
,,,,,,,,,,,,,,,,,,,,5,1.808000088,5,0.148999929,1,0,1200,271,1,1199,applaud,11117,2019-10-22_13h55.55.458,SurveyExpMetaMem,3.2.3,MacIntel,60
,,,,,,,,,,,,,,,,,,,,6,1.371999979,2,0.304999828,1,0,1200,919,1,1199,loss,11117,2019-10-22_13h55.55.458,SurveyExpMetaMem,3.2.3,MacIntel,60
,,,,,,,,,,,,,,,,,,,,6,1.855000019,3,0.280999899,1,0,1200,1062,1,1199,shoplifter,11117,2019-10-22_13h55.55.458,SurveyExpMetaMem,3.2.3,MacIntel,60
,,,,,,,,,,,,,,,,,,,,5,3.409000158,3,0.143999815,1,0,1200,345,1,1199,unfortunate,11117,2019-10-22_13h55.55.458,SurveyExpMetaMem,3.2.3,MacIntel,60
,,,,,,,,,,,,,,,,,,,,4,1.430000067,5,0.124000072,1,0,1200,730,1,1199,slogan,11117,2019-10-22_13h55.55.458,SurveyExpMetaMem,3.2.3,MacIntel,60
,,,,,,,,,,,,,,,,,,,,8,2.938999891,2,0.361000061,1,0,1200,943,1,1199,trauma,11117,2019-10-22_13h55.55.458,SurveyExpMetaMem,3.2.3,MacIntel,60
,,,,,,,,,,,,,,,,,,,,5,1.711999893,5,0.188999891,1,0,1200,154,1,1199,race,11117,2019-10-22_13h55.55.458,SurveyExpMetaMem,3.2.3,MacIntel,60
,,,,,,,,,,,,,,,,,,,,5,21.523,5,0.144000053,1,0,1200,727,1,1199,author,11117,2019-10-22_13h55.55.458,SurveyExpMetaMem,3.2.3,MacIntel,60
,,,,,,,,,,,,,,,,,,,,5,9.689999819,5,0.164000034,1,0,1200,577,1,1199,retreat,11117,2019-10-22_13h55.55.458,SurveyExpMetaMem,3.2.3,MacIntel,60
,,,,,,,,,,,,,,,,,,,,5,1.220999956,6,0.241999865,1,0,1200,247,1,1199,graduate,11117,2019-10-22_13h55.55.458,SurveyExpMetaMem,3.2.3,MacIntel,60
,,,,,,,,,,,,,,,,,,,,4,21.09399986,5,0.402999878,1,0,1200,416,1,1199,boring,11117,2019-10-22_13h55.55.458,SurveyExpMetaMem,3.2.3,MacIntel,60
,,,,,,,,,,,,,,,,,,,,6,1.672999859,3,0.273999929,1,0,1200,113,1,1199,bridesmaid,11117,2019-10-22_13h55.55.458,SurveyExpMetaMem,3.2.3,MacIntel,60
,,,,,,,,,,,,,,,,,,,,6,1.747999907,6,0.194000006,1,0,1200,996,1,1199,sting,11117,2019-10-22_13h55.55.458,SurveyExpMetaMem,3.2.3,MacIntel,60
,,,,,,,,,,,,,,,,,,,,5,1.521999836,5,0.155999899,1,0,1200,627,1,1199,introductory,11117,2019-10-22_13h55.55.458,SurveyExpMetaMem,3.2.3,MacIntel,60
,,,,,,,,,,,,,,,,,,,,7,2.587999821,5,0.34100008,1,0,1200,1172,1,1199,overwhelmed,11117,2019-10-22_13h55.55.458,SurveyExpMetaMem,3.2.3,MacIntel,60
,,,,,,,,,,,,,,,,,,,,5,1.641000032,5,0.173000097,1,0,1200,808,1,1199,violinist,11117,2019-10-22_13h55.55.458,SurveyExpMetaMem,3.2.3,MacIntel,60
,,,,,,,,,,,,,,,,,,,,5,48.17200017,4,0.390999794,1,0,1200,333,1,1199,weak,11117,2019-10-22_13h55.55.458,SurveyExpMetaMem,3.2.3,MacIntel,60
,,,,,,,,,,,,,,,,,,,,5,1.144999981,5,0.156000137,1,0,1200,618,1,1199,ceiling,11117,2019-10-22_13h55.55.458,SurveyExpMetaMem,3.2.3,MacIntel,60
,,,,,,,,,,,,,,,,,,,,5,11.69199991,4,0.037000179,1,0,1200,1193,1,1199,damn,11117,2019-10-22_13h55.55.458,SurveyExpMetaMem,3.2.3,MacIntel,60
,,,,,,,,,,,,,,,,,,,,5,0.894000053,5,0.222000122,1,0,1200,860,1,1199,silk,11117,2019-10-22_13h55.55.458,SurveyExpMetaMem,3.2.3,MacIntel,60
,,,,,,,,,,,,,,,,,,,,5,1.377000093,5,0.157999992,1,0,1200,429,1,1199,cough,11117,2019-10-22_13h55.55.458,SurveyExpMetaMem,3.2.3,MacIntel,60
,,,,,,,,,,,,,,,,,,,,5,1.871999979,6,0.257999897,1,0,1200,640,1,1199,cabin,11117,2019-10-22_13h55.55.458,SurveyExpMetaMem,3.2.3,MacIntel,60
,,,,,,,,,,,,,,,,,,,,7,1.738999844,7,1.059999943,1,0,1200,141,1,1199,surprise,11117,2019-10-22_13h55.55.458,SurveyExpMetaMem,3.2.3,MacIntel,60
,,,,,,,,,,,,,,,,,,,,5,1.621000051,6,0.286000013,1,0,1200,209,1,1199,husband,11117,2019-10-22_13h55.55.458,SurveyExpMetaMem,3.2.3,MacIntel,60
,,,,,,,,,,,,,,,,,,,,7,7.379999876,2,1.208999872,1,0,1200,1031,1,1199,fear,11117,2019-10-22_13h55.55.458,SurveyExpMetaMem,3.2.3,MacIntel,60
,,,,,,,,,,,,,,,,,,,,5,1.703999996,3,0.071000099,1,0,1200,1132,1,1199,anarchy,11117,2019-10-22_13h55.55.458,SurveyExpMetaMem,3.2.3,MacIntel,60
,,,,,,,,,,,,,,,,,,,,5,1.157999992,5,0.1650002,1,0,1200,431,1,1199,itch,11117,2019-10-22_13h55.55.458,SurveyExpMetaMem,3.2.3,MacIntel,60
,,,,,,,,,,,,,,,,,,,,5,3.362999916,5,0.142999887,1,0,1200,526,1,1199,dry,11117,2019-10-22_13h55.55.458,SurveyExpMetaMem,3.2.3,MacIntel,60
,,,,,,,,,,,,,,,,,,,,5,0.721999884,5,0.160000086,1,0,1200,265,1,1199,invent,11117,2019-10-22_13h55.55.458,SurveyExpMetaMem,3.2.3,MacIntel,60
,,,,,,,,,,,,,,,,,,,,5,1.013000011,5,0.167999983,1,0,1200,905,1,1199,suffocate,11117,2019-10-22_13h55.55.458,SurveyExpMetaMem,3.2.3,MacIntel,60
,,,,,,,,,,,,,,,,,,,,5,1.821000099,4,0.10800004,1,0,1200,56,1,1199,spice,11117,2019-10-22_13h55.55.458,SurveyExpMetaMem,3.2.3,MacIntel,60
,,,,,,,,,,,,,,,,,,,,5,0.537999868,5,0.226000071,1,0,1200,731,1,1199,decency,11117,2019-10-22_13h55.55.458,SurveyExpMetaMem,3.2.3,MacIntel,60
,,,,,,,,,,,,,,,,,,,,5,2.940999985,4,0.674000025,1,0,1200,135,1,1199,applause,11117,2019-10-22_13h55.55.458,SurveyExpMetaMem,3.2.3,MacIntel,60
,,,,,,,,,,,,,,,,,,,,5,2.304999828,5,0.190000057,1,0,1200,651,1,1199,bathroom,11117,2019-10-22_13h55.55.458,SurveyExpMetaMem,3.2.3,MacIntel,60
,,,,,,,,,,,,,,,,,,,,6,1.807999849,7,0.191999912,1,0,1200,124,1,1199,honeymoon,11117,2019-10-22_13h55.55.458,SurveyExpMetaMem,3.2.3,MacIntel,60
,,,,,,,,,,,,,,,,,,,,5,1.654000044,5,0.228999853,1,0,1200,472,1,1199,bald,11117,2019-10-22_13h55.55.458,SurveyExpMetaMem,3.2.3,MacIntel,60
,,,,,,,,,,,,,,,,,,,,5,1.505000114,6,0.24000001,1,0,1200,59,1,1199,sports,11117,2019-10-22_13h55.55.458,SurveyExpMetaMem,3.2.3,MacIntel,60
,,,,,,,,,,,,,,,,,,,,6,2.18900013,7,0.22300005,1,0,1200,120,1,1199,imaginative,11117,2019-10-22_13h55.55.458,SurveyExpMetaMem,3.2.3,MacIntel,60
,,,,,,,,,,,,,,,,,,,,5,2.786999941,3,0.417000055,1,0,1200,305,1,1199,frown,11117,2019-10-22_13h55.55.458,SurveyExpMetaMem,3.2.3,MacIntel,60
,,,,,,,,,,,,,,,,,,,,6,1.957000017,7,1.585000038,1,0,1200,198,1,1199,comedy,11117,2019-10-22_13h55.55.458,SurveyExpMetaMem,3.2.3,MacIntel,60
,,,,,,,,,,,,,,,,,,,,6,4.5849998,6,0.242000103,1,0,1200,553,1,1199,corner,11117,2019-10-22_13h55.55.458,SurveyExpMetaMem,3.2.3,MacIntel,60
,,,,,,,,,,,,,,,,,,,,5,6.424000025,5,0.16899991,1,0,1200,667,1,1199,dew,11117,2019-10-22_13h55.55.458,SurveyExpMetaMem,3.2.3,MacIntel,60
,,,,,,,,,,,,,,,,,,,,7,2.137000084,3,0.214999914,1,0,1200,1065,1,1199,slap,11117,2019-10-22_13h55.55.458,SurveyExpMetaMem,3.2.3,MacIntel,60
,,,,,,,,,,,,,,,,,,,,5,1.237999916,5,0.164000034,1,0,1200,574,1,1199,distracted,11117,2019-10-22_13h55.55.458,SurveyExpMetaMem,3.2.3,MacIntel,60
,,,,,,,,,,,,,,,,,,,,5,0.885999918,5,0.171999931,1,0,1200,460,1,1199,rag,11117,2019-10-22_13h55.55.458,SurveyExpMetaMem,3.2.3,MacIntel,60
,,,,,,,,,,,,,,,,,,,,8,49.78799987,2,0.381000042,1,0,1200,900,1,1199,suicide,11117,2019-10-22_13h55.55.458,SurveyExpMetaMem,3.2.3,MacIntel,60
,,,,,,,,,,,,,,,,,,,,6,6.444000006,6,0.520999908,1,0,1200,567,1,1199,folly,11117,2019-10-22_13h55.55.458,SurveyExpMetaMem,3.2.3,MacIntel,60
,,,,,,,,,,,,,,,,,,,,5,0.122999907,5,1.042999983,1,0,1200,440,1,1199,forgot,11117,2019-10-22_13h55.55.458,SurveyExpMetaMem,3.2.3,MacIntel,60
,,,,,,,,,,,,,,,,,,,,5,1.366000175,5,0.153999805,1,0,1200,680,1,1199,candle,11117,2019-10-22_13h55.55.458,SurveyExpMetaMem,3.2.3,MacIntel,60
,,,,,,,,,,,,,,,,,,,,5,1.023000002,5,0.138999939,1,0,1200,260,1,1199,control,11117,2019-10-22_13h55.55.458,SurveyExpMetaMem,3.2.3,MacIntel,60
,,,,,,,,,,,,,,,,,,,,5,0.710999966,5,0.796000004,1,0,1200,13,1,1199,mingle,11117,2019-10-22_13h55.55.458,SurveyExpMetaMem,3.2.3,MacIntel,60
,,,,,,,,,,,,,,,,,,,,5,2.761000156,3,0.273000002,1,0,1200,670,1,1199,urinate,11117,2019-10-22_13h55.55.458,SurveyExpMetaMem,3.2.3,MacIntel,60
,,,,,,,,,,,,,,,,,,,,4,1.604000092,4,0.607000113,1,0,1200,513,1,1199,bland,11117,2019-10-22_13h55.55.458,SurveyExpMetaMem,3.2.3,MacIntel,60
,,,,,,,,,,,,,,,,,,,,5,25.46399999,5,0.171000004,1,0,1200,942,1,1199,aggravation,11117,2019-10-22_13h55.55.458,SurveyExpMetaMem,3.2.3,MacIntel,60
,,,,,,,,,,,,,,,,,,,,4,1.417999983,6,2.924999952,1,0,1200,192,1,1199,pleased,11117,2019-10-22_13h55.55.458,SurveyExpMetaMem,3.2.3,MacIntel,60
,,,,,,,,,,,,,,,,,,,,6,0.835999966,5,0.471000195,1,0,1200,674,1,1199,fitting,11117,2019-10-22_13h55.55.458,SurveyExpMetaMem,3.2.3,MacIntel,60
,,,,,,,,,,,,,,,,,,,,4,1.621999979,5,0.5849998,1,0,1200,385,1,1199,tiresome,11117,2019-10-22_13h55.55.458,SurveyExpMetaMem,3.2.3,MacIntel,60
,,,,,,,,,,,,,,,,,,,,5,1.74000001,2,0.33100009,1,0,1200,346,1,1199,alcoholism,11117,2019-10-22_13h55.55.458,SurveyExpMetaMem,3.2.3,MacIntel,60
,,,,,,,,,,,,,,,,,,,,5,3.855000019,5,0.292000055,1,0,1200,57,1,1199,important,11117,2019-10-22_13h55.55.458,SurveyExpMetaMem,3.2.3,MacIntel,60
,,,,,,,,,,,,,,,,,,,,5,1.187000036,5,1.325000048,1,0,1200,610,1,1199,miniature,11117,2019-10-22_13h55.55.458,SurveyExpMetaMem,3.2.3,MacIntel,60
,,,,,,,,,,,,,,,,,,,,5,1.676000118,6,0.197999954,1,0,1200,159,1,1199,teenager,11117,2019-10-22_13h55.55.458,SurveyExpMetaMem,3.2.3,MacIntel,60
,,,,,,,,,,,,,,,,,,,,5,1.325000048,5,1.107000113,1,0,1200,1122,1,1199,gossip,11117,2019-10-22_13h55.55.458,SurveyExpMetaMem,3.2.3,MacIntel,60
,,,,,,,,,,,,,,,,,,,,5,1.302999973,5,0.230000019,1,0,1200,715,1,1199,sheltered,11117,2019-10-22_13h55.55.458,SurveyExpMetaMem,3.2.3,MacIntel,60
,,,,,,,,,,,,,,,,,,,,6,3.220999956,7,1.164999962,1,0,1200,877,1,1199,bless,11117,2019-10-22_13h55.55.458,SurveyExpMetaMem,3.2.3,MacIntel,60
,,,,,,,,,,,,,,,,,,,,8,1.404000044,3,2.775000095,1,0,1200,1120,1,1199,gun,11117,2019-10-22_13h55.55.458,SurveyExpMetaMem,3.2.3,MacIntel,60
,,,,,,,,,,,,,,,,,,,,5,32.42700005,5,0.437999964,1,0,1200,716,1,1199,blouse,11117,2019-10-22_13h55.55.458,SurveyExpMetaMem,3.2.3,MacIntel,60
,,,,,,,,,,,,,,,,,,,,5,1.355000019,2,1.072000027,1,0,1200,612,1,1199,propeller,11117,2019-10-22_13h55.55.458,SurveyExpMetaMem,3.2.3,MacIntel,60
,,,,,,,,,,,,,,,,,,,,5,2.437999964,5,0.180999994,1,0,1200,1146,1,1199,bug,11117,2019-10-22_13h55.55.458,SurveyExpMetaMem,3.2.3,MacIntel,60
,,,,,,,,,,,,,,,,,,,,5,1.943000078,4,0.089999914,1,0,1200,1086,1,1199,irritate,11117,2019-10-22_13h55.55.458,SurveyExpMetaMem,3.2.3,MacIntel,60
,,,,,,,,,,,,,,,,,,,,5,1.451999903,5,0.471000195,1,0,1200,831,1,1199,sofa,11117,2019-10-22_13h55.55.458,SurveyExpMetaMem,3.2.3,MacIntel,60
,,,,,,,,,,,,,,,,,,,,5,2.587000132,4,0.638000011,1,0,1200,452,1,1199,scapegoat,11117,2019-10-22_13h55.55.458,SurveyExpMetaMem,3.2.3,MacIntel,60
,,,,,,,,,,,,,,,,,,,,6,1.846999884,7,0.045000076,1,0,1200,650,1,1199,native,11117,2019-10-22_13h55.55.458,SurveyExpMetaMem,3.2.3,MacIntel,60
,,,,,,,,,,,,,,,,,,,,5,1.562000036,5,0.167000055,1,0,1200,668,1,1199,unit,11117,2019-10-22_13h55.55.458,SurveyExpMetaMem,3.2.3,MacIntel,60
,,,,,,,,,,,,,,,,,,,,5,1.255000114,5,0.155999899,1,0,1200,530,1,1199,erase,11117,2019-10-22_13h55.55.458,SurveyExpMetaMem,3.2.3,MacIntel,60
,,,,,,,,,,,,,,,,,,,,7,2.144999981,3,0.624000072,1,0,1200,1184,1,1199,reckless,11117,2019-10-22_13h55.55.458,SurveyExpMetaMem,3.2.3,MacIntel,60
,,,,,,,,,,,,,,,,,,,,6,1.292999983,6,0.683000088,1,0,1200,432,1,1199,resign,11117,2019-10-22_13h55.55.458,SurveyExpMetaMem,3.2.3,MacIntel,60
,,,,,,,,,,,,,,,,,,,,6,2.024999857,3,0.559000015,1,0,1200,167,1,1199,casino,11117,2019-10-22_13h55.55.458,SurveyExpMetaMem,3.2.3,MacIntel,60
,,,,,,,,,,,,,,,,,,,,5,2.082000017,7,0.223999977,1,0,1200,870,1,1199,safe,11117,2019-10-22_13h55.55.458,SurveyExpMetaMem,3.2.3,MacIntel,60
,,,,,,,,,,,,,,,,,,,,7,77.81900001,7,1.243000031,1,0,1200,184,1,1199,surprised,11117,2019-10-22_13h55.55.458,SurveyExpMetaMem,3.2.3,MacIntel,60
,,,,,,,,,,,,,,,,,,,,5,1.806999922,5,0.147000074,1,0,1200,787,1,1199,dawn,11117,2019-10-22_13h55.55.458,SurveyExpMetaMem,3.2.3,MacIntel,60
,,,,,,,,,,,,,,,,,,,,6,2.029000044,3,0.306999922,1,0,1200,903,1,1199,cancer,11117,2019-10-22_13h55.55.458,SurveyExpMetaMem,3.2.3,MacIntel,60
,,,,,,,,,,,,,,,,,,,,7,11.20499992,3,0.370000124,1,0,1200,244,1,1199,sexy,11117,2019-10-22_13h55.55.458,SurveyExpMetaMem,3.2.3,MacIntel,60
,,,,,,,,,,,,,,,,,,,,5,7.322000027,5,1.329999924,1,0,1200,967,1,1199,horrible,11117,2019-10-22_13h55.55.458,SurveyExpMetaMem,3.2.3,MacIntel,60
,,,,,,,,,,,,,,,,,,,,5,1.321000099,5,0.155999899,1,0,1200,882,1,1199,gentle,11117,2019-10-22_13h55.55.458,SurveyExpMetaMem,3.2.3,MacIntel,60
,,,,,,,,,,,,,,,,,,,,5,0.786999941,5,0.143999815,1,0,1200,476,1,1199,warden,11117,2019-10-22_13h55.55.458,SurveyExpMetaMem,3.2.3,MacIntel,60
,,,,,,,,,,,,,,,,,,,,5,1.088999987,5,0.661999941,1,0,1200,234,1,1199,redeem,11117,2019-10-22_13h55.55.458,SurveyExpMetaMem,3.2.3,MacIntel,60
,,,,,,,,,,,,,,,,,,,,5,1.054000139,4,0.178999901,1,0,1200,75,1,1199,actor,11117,2019-10-22_13h55.55.458,SurveyExpMetaMem,3.2.3,MacIntel,60
,,,,,,,,,,,,,,,,,,,,5,0.855999947,5,0.691000223,1,0,1200,964,1,1199,grieve,11117,2019-10-22_13h55.55.458,SurveyExpMetaMem,3.2.3,MacIntel,60
,,,,,,,,,,,,,,,,,,,,6,4.078999996,4,1.359999895,1,0,1200,162,1,1199,royalty,11117,2019-10-22_13h55.55.458,SurveyExpMetaMem,3.2.3,MacIntel,60
,,,,,,,,,,,,,,,,,,,,6,1.839999914,7,0.097000122,1,0,1200,893,1,1199,nature,11117,2019-10-22_13h55.55.458,SurveyExpMetaMem,3.2.3,MacIntel,60
,,,,,,,,,,,,,,,,,,,,8,3.81799984,8,1.345000029,1,0,1200,827,1,1199,saint,11117,2019-10-22_13h55.55.458,SurveyExpMetaMem,3.2.3,MacIntel,60
,,,,,,,,,,,,,,,,,,,,5,1.621000051,5,0.174000025,1,0,1200,203,1,1199,seal,11117,2019-10-22_13h55.55.458,SurveyExpMetaMem,3.2.3,MacIntel,60
,,,,,,,,,,,,,,,,,,,,6,15.46199989,6,0.458000183,1,0,1200,1192,1,1199,startled,11117,2019-10-22_13h55.55.458,SurveyExpMetaMem,3.2.3,MacIntel,60
,,,,,,,,,,,,,,,,,,,,5,1.257000208,5,0.157999992,1,0,1200,774,1,1199,leaves,11117,2019-10-22_13h55.55.458,SurveyExpMetaMem,3.2.3,MacIntel,60
,,,,,,,,,,,,,,,,,,,,4,2.460999966,5,0.759000063,1,0,1200,457,1,1199,confuse,11117,2019-10-22_13h55.55.458,SurveyExpMetaMem,3.2.3,MacIntel,60
,,,,,,,,,,,,,,,,,,,,6,1.526000023,7,0.196000099,1,0,1200,794,1,1199,pray,11117,2019-10-22_13h55.55.458,SurveyExpMetaMem,3.2.3,MacIntel,60
,,,,,,,,,,,,,,,,,,,,5,1.880000114,5,0.163000107,1,0,1200,1187,1,1199,drill,11117,2019-10-22_13h55.55.458,SurveyExpMetaMem,3.2.3,MacIntel,60
,,,,,,,,,,,,,,,,,,,,9,1.525000095,1,0.521000147,1,0,1200,944,1,1199,kill,11117,2019-10-22_13h55.55.458,SurveyExpMetaMem,3.2.3,MacIntel,60
,,,,,,,,,,,,,,,,,,,,7,1.822999954,4,1.086000204,1,0,1200,1165,1,1199,revolt,11117,2019-10-22_13h55.55.458,SurveyExpMetaMem,3.2.3,MacIntel,60
,,,,,,,,,,,,,,,,,,,,5,1.441000223,5,0.171000004,1,0,1200,556,1,1199,allege,11117,2019-10-22_13h55.55.458,SurveyExpMetaMem,3.2.3,MacIntel,60
,,,,,,,,,,,,,,,,,,,,6,125.6270001,3,0.24000001,1,0,1200,1008,1,1199,gang,11117,2019-10-22_13h55.55.458,SurveyExpMetaMem,3.2.3,MacIntel,60
,,,,,,,,,,,,,,,,,,,,5,1.942000151,5,0.180999994,1,0,1200,859,1,1199,serene,11117,2019-10-22_13h55.55.458,SurveyExpMetaMem,3.2.3,MacIntel,60
,,,,,,,,,,,,,,,,,,,,6,1.623000145,6,0.680999994,1,0,1200,180,1,1199,embrace,11117,2019-10-22_13h55.55.458,SurveyExpMetaMem,3.2.3,MacIntel,60
,,,,,,,,,,,,,,,,,,,,4,4.976999998,4,0.344000101,1,0,1200,659,1,1199,hair,11117,2019-10-22_13h55.55.458,SurveyExpMetaMem,3.2.3,MacIntel,60
,,,,,,,,,,,,,,,,,,,,6,3.005000114,4,0.160000086,1,0,1200,82,1,1199,stunning,11117,2019-10-22_13h55.55.458,SurveyExpMetaMem,3.2.3,MacIntel,60
,,,,,,,,,,,,,,,,,,,,5,8.670000076,6,0.085999966,1,0,1200,639,1,1199,outlet,11117,2019-10-22_13h55.55.458,SurveyExpMetaMem,3.2.3,MacIntel,60
,,,,,,,,,,,,,,,,,,,,5,5.008000135,5,0.113999844,1,0,1200,1141,1,1199,shark,11117,2019-10-22_13h55.55.458,SurveyExpMetaMem,3.2.3,MacIntel,60
,,,,,,,,,,,,,,,,,,,,5,2.871999979,5,0.155999899,1,0,1200,756,1,1199,plant,11117,2019-10-22_13h55.55.458,SurveyExpMetaMem,3.2.3,MacIntel,60
,,,,,,,,,,,,,,,,,,,,5,0.967000008,5,0.131000042,1,0,1200,1143,1,1199,arrogant,11117,2019-10-22_13h55.55.458,SurveyExpMetaMem,3.2.3,MacIntel,60
,,,,,,,,,,,,,,,,,,,,5,4.072000027,5,0.361000061,1,0,1200,873,1,1199,useful,11117,2019-10-22_13h55.55.458,SurveyExpMetaMem,3.2.3,MacIntel,60
,,,,,,,,,,,,,,,,,,,,5,1.221000195,5,0.164999962,1,0,1200,793,1,1199,virtue,11117,2019-10-22_13h55.55.458,SurveyExpMetaMem,3.2.3,MacIntel,60
,,,,,,,,,,,,,,,,,,,,5,1.161000013,6,0.046000004,1,0,1200,1104,1,1199,avalanche,11117,2019-10-22_13h55.55.458,SurveyExpMetaMem,3.2.3,MacIntel,60
,,,,,,,,,,,,,,,,,,,,6,1.184999943,7,0.194000006,1,0,1200,1075,1,1199,apprehension,11117,2019-10-22_13h55.55.458,SurveyExpMetaMem,3.2.3,MacIntel,60
,,,,,,,,,,,,,,,,,,,,6,11.63100004,7,0.171999931,1,0,1200,1057,1,1199,deceit,11117,2019-10-22_13h55.55.458,SurveyExpMetaMem,3.2.3,MacIntel,60
,,,,,,,,,,,,,,,,,,,,5,47.06999993,5,0.13499999,1,0,1200,747,1,1199,furniture,11117,2019-10-22_13h55.55.458,SurveyExpMetaMem,3.2.3,MacIntel,60
,,,,,,,,,,,,,,,,,,,,5,1.440000057,6,0.092999935,1,0,1200,599,1,1199,obstinate,11117,2019-10-22_13h55.55.458,SurveyExpMetaMem,3.2.3,MacIntel,60
,,,,,,,,,,,,,,,,,,,,6,2.423000097,6,0.173000097,1,0,1200,86,1,1199,talent,11117,2019-10-22_13h55.55.458,SurveyExpMetaMem,3.2.3,MacIntel,60
,,,,,,,,,,,,,,,,,,,,5,1.039999962,5,0.176000118,1,0,1200,488,1,1199,rusty,11117,2019-10-22_13h55.55.458,SurveyExpMetaMem,3.2.3,MacIntel,60
,,,,,,,,,,,,,,,,,,,,9,1.821000099,2,0.247999907,1,0,1200,1,1,1199,fuck,11117,2019-10-22_13h55.55.458,SurveyExpMetaMem,3.2.3,MacIntel,60
,,,,,,,,,,,,,,,,,,,,6,2.468000174,7,0.305999994,1,0,1200,233,1,1199,exhilaration,11117,2019-10-22_13h55.55.458,SurveyExpMetaMem,3.2.3,MacIntel,60
,,,,,,,,,,,,,,,,,,,,5,4.305999994,5,0.144000053,1,0,1200,107,1,1199,sandwich,11117,2019-10-22_13h55.55.458,SurveyExpMetaMem,3.2.3,MacIntel,60
,,,,,,,,,,,,,,,,,,,,5,1.021999836,5,0.289000034,1,0,1200,489,1,1199,timid,11117,2019-10-22_13h55.55.458,SurveyExpMetaMem,3.2.3,MacIntel,60
,,,,,,,,,,,,,,,,,,,,5,125.529,5,0.106999874,1,0,1200,676,1,1199,straighten,11117,2019-10-22_13h55.55.458,SurveyExpMetaMem,3.2.3,MacIntel,60
,,,,,,,,,,,,,,,,,,,,6,1.773999929,2,0.67200017,1,0,1200,959,1,1199,divorce,11117,2019-10-22_13h55.55.458,SurveyExpMetaMem,3.2.3,MacIntel,60
,,,,,,,,,,,,,,,,,,,,5,1.191999912,5,0.165999889,1,0,1200,596,1,1199,factory,11117,2019-10-22_13h55.55.458,SurveyExpMetaMem,3.2.3,MacIntel,60
,,,,,,,,,,,,,,,,,,,,6,1.328999996,7,0.180000067,1,0,1200,896,1,1199,cuddle,11117,2019-10-22_13h55.55.458,SurveyExpMetaMem,3.2.3,MacIntel,60
,,,,,,,,,,,,,,,,,,,,6,30.51300001,7,0.447000027,1,0,1200,211,1,1199,surfer,11117,2019-10-22_13h55.55.458,SurveyExpMetaMem,3.2.3,MacIntel,60
,,,,,,,,,,,,,,,,,,,,5,49.00600004,5,0.572999954,1,0,1200,941,1,1199,leprosy,11117,2019-10-22_13h55.55.458,SurveyExpMetaMem,3.2.3,MacIntel,60
,,,,,,,,,,,,,,,,,,,,5,0.244999886,5,1.837000132,1,0,1200,752,1,1199,milk,11117,2019-10-22_13h55.55.458,SurveyExpMetaMem,3.2.3,MacIntel,60
,,,,,,,,,,,,,,,,,,,,6,1.845000029,3,0.090999842,1,0,1200,307,1,1199,sick,11117,2019-10-22_13h55.55.458,SurveyExpMetaMem,3.2.3,MacIntel,60
,,,,,,,,,,,,,,,,,,,,5,1.225999832,5,0.145999908,1,0,1200,724,1,1199,owl,11117,2019-10-22_13h55.55.458,SurveyExpMetaMem,3.2.3,MacIntel,60
,,,,,,,,,,,,,,,,,,,,5,0.871999979,5,0.170000076,1,0,1200,362,1,1199,despair,11117,2019-10-22_13h55.55.458,SurveyExpMetaMem,3.2.3,MacIntel,60
,,,,,,,,,,,,,,,,,,,,5,33.69499993,5,0.107000113,1,0,1200,733,1,1199,poetry,11117,2019-10-22_13h55.55.458,SurveyExpMetaMem,3.2.3,MacIntel,60
,,,,,,,,,,,,,,,,,,,,5,1.102999926,5,0.429999828,1,0,1200,228,1,1199,suite,11117,2019-10-22_13h55.55.458,SurveyExpMetaMem,3.2.3,MacIntel,60
,,,,,,,,,,,,,,,,,,,,6,2.893000126,6,0.321000099,1,0,1200,799,1,1199,precise,11117,2019-10-22_13h55.55.458,SurveyExpMetaMem,3.2.3,MacIntel,60
,,,,,,,,,,,,,,,,,,,,5,1.20600009,5,0.228999853,1,0,1200,241,1,1199,car,11117,2019-10-22_13h55.55.458,SurveyExpMetaMem,3.2.3,MacIntel,60
,,,,,,,,,,,,,,,,,,,,7,1.751000166,2,0.672999859,1,0,1200,910,1,1199,abusive,11117,2019-10-22_13h55.55.458,SurveyExpMetaMem,3.2.3,MacIntel,60
,,,,,,,,,,,,,,,,,,,,6,2.745000124,2,0.429999828,1,0,1200,314,1,1199,hopeless,11117,2019-10-22_13h55.55.458,SurveyExpMetaMem,3.2.3,MacIntel,60
,,,,,,,,,,,,,,,,,,,,6,62.67999983,7,1.890000105,1,0,1200,231,1,1199,cherish,11117,2019-10-22_13h55.55.458,SurveyExpMetaMem,3.2.3,MacIntel,60
,,,,,,,,,,,,,,,,,,,,6,2.25999999,4,1.131999969,1,0,1200,413,1,1199,deficient,11117,2019-10-22_13h55.55.458,SurveyExpMetaMem,3.2.3,MacIntel,60
,,,,,,,,,,,,,,,,,,,,8,1.771000147,2,0.34100008,1,0,1200,979,1,1199,harassment,11117,2019-10-22_13h55.55.458,SurveyExpMetaMem,3.2.3,MacIntel,60
,,,,,,,,,,,,,,,,,,,,7,2.008000135,8,0.209000111,1,0,1200,828,1,1199,cooperative,11117,2019-10-22_13h55.55.458,SurveyExpMetaMem,3.2.3,MacIntel,60
,,,,,,,,,,,,,,,,,,,,7,1.193000078,8,0.19900012,1,0,1200,83,1,1199,appreciative,11117,2019-10-22_13h55.55.458,SurveyExpMetaMem,3.2.3,MacIntel,60
,,,,,,,,,,,,,,,,,,,,8,1.162999868,3,0.454999924,1,0,1200,1137,1,1199,knife,11117,2019-10-22_13h55.55.458,SurveyExpMetaMem,3.2.3,MacIntel,60
,,,,,,,,,,,,,,,,,,,,8,10.4289999,3,0.324999809,1,0,1200,1115,1,1199,invade,11117,2019-10-22_13h55.55.458,SurveyExpMetaMem,3.2.3,MacIntel,60
,,,,,,,,,,,,,,,,,,,,5,1.213000059,5,0.157000065,1,0,1200,838,1,1199,nestle,11117,2019-10-22_13h55.55.458,SurveyExpMetaMem,3.2.3,MacIntel,60
,,,,,,,,,,,,,,,,,,,,6,1.356999874,3,0.372999907,1,0,1200,975,1,1199,insecure,11117,2019-10-22_13h55.55.458,SurveyExpMetaMem,3.2.3,MacIntel,60
,,,,,,,,,,,,,,,,,,,,6,2.289999962,6,0.708000183,1,0,1200,279,1,1199,bargain,11117,2019-10-22_13h55.55.458,SurveyExpMetaMem,3.2.3,MacIntel,60
,,,,,,,,,,,,,,,,,,,,5,1.322999954,5,0.155999899,1,0,1200,605,1,1199,year,11117,2019-10-22_13h55.55.458,SurveyExpMetaMem,3.2.3,MacIntel,60
,,,,,,,,,,,,,,,,,,,,4,1.055999994,5,0.07400012,1,0,1200,636,1,1199,refine,11117,2019-10-22_13h55.55.458,SurveyExpMetaMem,3.2.3,MacIntel,60
,,,,,,,,,,,,,,,,,,,,4,1.006999969,5,0.111999989,1,0,1200,277,1,1199,cupcake,11117,2019-10-22_13h55.55.458,SurveyExpMetaMem,3.2.3,MacIntel,60
,,,,,,,,,,,,,,,,,,,,4,1.228000164,5,0.102999926,1,0,1200,273,1,1199,worthwhile,11117,2019-10-22_13h55.55.458,SurveyExpMetaMem,3.2.3,MacIntel,60
,,,,,,,,,,,,,,,,,,,,9,1.721999884,1,1.355999947,1,0,1200,1130,1,1199,slut,11117,2019-10-22_13h55.55.458,SurveyExpMetaMem,3.2.3,MacIntel,60
,,,,,,,,,,,,,,,,,,,,8,2.319999933,3,0.139999866,1,0,1200,1167,1,1199,bribe,11117,2019-10-22_13h55.55.458,SurveyExpMetaMem,3.2.3,MacIntel,60
,,,,,,,,,,,,,,,,,,,,7,1.621000051,6,1.207000017,1,0,1200,91,1,1199,pretty,11117,2019-10-22_13h55.55.458,SurveyExpMetaMem,3.2.3,MacIntel,60
,,,,,,,,,,,,,,,,,,,,8,4.161000013,3,0.561000109,1,0,1200,995,1,1199,cult,11117,2019-10-22_13h55.55.458,SurveyExpMetaMem,3.2.3,MacIntel,60
,,,,,,,,,,,,,,,,,,,,7,1.308000088,3,0.278999805,1,0,1200,1024,1,1199,burn,11117,2019-10-22_13h55.55.458,SurveyExpMetaMem,3.2.3,MacIntel,60
,,,,,,,,,,,,,,,,,,,,7,1.842999935,4,0.151000023,1,0,1200,1107,1,1199,snake,11117,2019-10-22_13h55.55.458,SurveyExpMetaMem,3.2.3,MacIntel,60
,,,,,,,,,,,,,,,,,,,,7,3.423000097,8,0.17200017,1,0,1200,39,1,1199,birth,11117,2019-10-22_13h55.55.458,SurveyExpMetaMem,3.2.3,MacIntel,60
,,,,,,,,,,,,,,,,,,,,8,1.292000055,4,0.289999962,1,0,1200,971,1,1199,crash,11117,2019-10-22_13h55.55.458,SurveyExpMetaMem,3.2.3,MacIntel,60
,,,,,,,,,,,,,,,,,,,,6,2.07799983,4,0.141000032,1,0,1200,395,1,1199,lack,11117,2019-10-22_13h55.55.458,SurveyExpMetaMem,3.2.3,MacIntel,60
,,,,,,,,,,,,,,,,,,,,5,2.155999899,4,0.122999907,1,0,1200,200,1,1199,preach,11117,2019-10-22_13h55.55.458,SurveyExpMetaMem,3.2.3,MacIntel,60
,,,,,,,,,,,,,,,,,,,,4,2.072000027,4,0.171999931,1,0,1200,791,1,1199,shoes,11117,2019-10-22_13h55.55.458,SurveyExpMetaMem,3.2.3,MacIntel,60
,,,,,,,,,,,,,,,,,,,,4,1.629000187,4,0.144999981,1,0,1200,593,1,1199,errand,11117,2019-10-22_13h55.55.458,SurveyExpMetaMem,3.2.3,MacIntel,60
,,,,,,,,,,,,,,,,,,,,5,0.916000128,5,0.197000027,1,0,1200,803,1,1199,tidy,11117,2019-10-22_13h55.55.458,SurveyExpMetaMem,3.2.3,MacIntel,60
,,,,,,,,,,,,,,,,,,,,5,1.140000105,5,0.529999971,1,0,1200,655,1,1199,name,11117,2019-10-22_13h55.55.458,SurveyExpMetaMem,3.2.3,MacIntel,60
,,,,,,,,,,,,,,,,,,,,5,2.479999781,4,0.74000001,1,0,1200,383,1,1199,messy,11117,2019-10-22_13h55.55.458,SurveyExpMetaMem,3.2.3,MacIntel,60
,,,,,,,,,,,,,,,,,,,,5,1.394000053,6,0.087999821,1,0,1200,78,1,1199,energetic,11117,2019-10-22_13h55.55.458,SurveyExpMetaMem,3.2.3,MacIntel,60
,,,,,,,,,,,,,,,,,,,,5,1.313000202,6,0.113000154,1,0,1200,854,1,1199,river,11117,2019-10-22_13h55.55.458,SurveyExpMetaMem,3.2.3,MacIntel,60
,,,,,,,,,,,,,,,,,,,,5,0.986999989,6,0.073999882,1,0,1200,771,1,1199,practical,11117,2019-10-22_13h55.55.458,SurveyExpMetaMem,3.2.3,MacIntel,60
,,,,,,,,,,,,,,,,,,,,5,1.020999908,5,0.18900013,1,0,1200,857,1,1199,thankful,11117,2019-10-22_13h55.55.458,SurveyExpMetaMem,3.2.3,MacIntel,60
,,,,,,,,,,,,,,,,,,,,5,2.130000114,5,0.210999966,1,0,1200,289,1,1199,concert,11117,2019-10-22_13h55.55.458,SurveyExpMetaMem,3.2.3,MacIntel,60
,,,,,,,,,,,,,,,,,,,,5,2.80700016,4,1.212000132,1,0,1200,569,1,1199,onion,11117,2019-10-22_13h55.55.458,SurveyExpMetaMem,3.2.3,MacIntel,60
,,,,,,,,,,,,,,,,,,,,6,1.603999853,7,0.536000013,1,0,1200,19,1,1199,firefighter,11117,2019-10-22_13h55.55.458,SurveyExpMetaMem,3.2.3,MacIntel,60
,,,,,,,,,,,,,,,,,,,,5,3.539000034,4,0.155999899,1,0,1200,595,1,1199,vacuum,11117,2019-10-22_13h55.55.458,SurveyExpMetaMem,3.2.3,MacIntel,60
,,,,,,,,,,,,,,,,,,,,6,1.388000011,5,0.123000145,1,0,1200,55,1,1199,rare,11117,2019-10-22_13h55.55.458,SurveyExpMetaMem,3.2.3,MacIntel,60
,,,,,,,,,,,,,,,,,,,,5,1.558000088,5,0.180999994,1,0,1200,682,1,1199,camel,11117,2019-10-22_13h55.55.458,SurveyExpMetaMem,3.2.3,MacIntel,60
,,,,,,,,,,,,,,,,,,,,5,4.226000071,5,0.156000137,1,0,1200,822,1,1199,clearer,11117,2019-10-22_13h55.55.458,SurveyExpMetaMem,3.2.3,MacIntel,60
,,,,,,,,,,,,,,,,,,,,6,4.605999947,1,2.042999983,1,0,1200,907,1,1199,terrorist,11117,2019-10-22_13h55.55.458,SurveyExpMetaMem,3.2.3,MacIntel,60
,,,,,,,,,,,,,,,,,,,,5,2.286000013,5,0.159000158,1,0,1200,117,1,1199,powerful,11117,2019-10-22_13h55.55.458,SurveyExpMetaMem,3.2.3,MacIntel,60
,,,,,,,,,,,,,,,,,,,,5,6.721999884,6,0.092999935,1,0,1200,546,1,1199,solemn,11117,2019-10-22_13h55.55.458,SurveyExpMetaMem,3.2.3,MacIntel,60
,,,,,,,,,,,,,,,,,,,,5,1.786000013,4,3.052999973,1,0,1200,664,1,1199,quiet,11117,2019-10-22_13h55.55.458,SurveyExpMetaMem,3.2.3,MacIntel,60
,,,,,,,,,,,,,,,,,,,,4,1.489000082,6,0.457000017,1,0,1200,215,1,1199,salary,11117,2019-10-22_13h55.55.458,SurveyExpMetaMem,3.2.3,MacIntel,60
,,,,,,,,,,,,,,,,,,,,5,1.476000071,5,0.227999926,1,0,1200,801,1,1199,noon,11117,2019-10-22_13h55.55.458,SurveyExpMetaMem,3.2.3,MacIntel,60
,,,,,,,,,,,,,,,,,,,,6,2.207999945,6,0.15899992,1,0,1200,796,1,1199,rose,11117,2019-10-22_13h55.55.458,SurveyExpMetaMem,3.2.3,MacIntel,60
,,,,,,,,,,,,,,,,,,,,7,3.273000002,6,0.105000019,1,0,1200,0,1,1199,dragon,11117,2019-10-22_13h55.55.458,SurveyExpMetaMem,3.2.3,MacIntel,60
,,,,,,,,,,,,,,,,,,,,6,51.22399998,6,0.15199995,1,0,1200,119,1,1199,stereo,11117,2019-10-22_13h55.55.458,SurveyExpMetaMem,3.2.3,MacIntel,60
,,,,,,,,,,,,,,,,,,,,7,1.390999794,3,0.306999922,1,0,1200,1019,1,1199,fraud,11117,2019-10-22_13h55.55.458,SurveyExpMetaMem,3.2.3,MacIntel,60
,,,,,,,,,,,,,,,,,,,,5,566.8539999,5,0.123999834,1,0,1200,929,1,1199,mutilation,11117,2019-10-22_13h55.55.458,SurveyExpMetaMem,3.2.3,MacIntel,60
,,,,,,,,,,,,,,,,,,,,5,0.988999844,3,1.106999874,1,0,1200,313,1,1199,rotten,11117,2019-10-22_13h55.55.458,SurveyExpMetaMem,3.2.3,MacIntel,60
,,,,,,,,,,,,,,,,,,,,5,3.258000135,5,0.159999847,1,0,1200,760,1,1199,shrimp,11117,2019-10-22_13h55.55.458,SurveyExpMetaMem,3.2.3,MacIntel,60
,,,,,,,,,,,,,,,,,,,,5,1.605999947,4,0.088999987,1,0,1200,542,1,1199,loose,11117,2019-10-22_13h55.55.458,SurveyExpMetaMem,3.2.3,MacIntel,60
,,,,,,,,,,,,,,,,,,,,5,1.822000027,5,0.155999899,1,0,1200,878,1,1199,sleep,11117,2019-10-22_13h55.55.458,SurveyExpMetaMem,3.2.3,MacIntel,60
,,,,,,,,,,,,,,,,,,,,5,2.068000078,5,0.145000219,1,0,1200,386,1,1199,pale,11117,2019-10-22_13h55.55.458,SurveyExpMetaMem,3.2.3,MacIntel,60
,,,,,,,,,,,,,,,,,,,,5,0.997999907,5,0.154999971,1,0,1200,437,1,1199,blubber,11117,2019-10-22_13h55.55.458,SurveyExpMetaMem,3.2.3,MacIntel,60
,,,,,,,,,,,,,,,,,,,,5,0.929000139,5,0.17599988,1,0,1200,391,1,1199,detach,11117,2019-10-22_13h55.55.458,SurveyExpMetaMem,3.2.3,MacIntel,60
,,,,,,,,,,,,,,,,,,,,6,1.537000179,4,0.79700017,1,0,1200,635,1,1199,sensitive,11117,2019-10-22_13h55.55.458,SurveyExpMetaMem,3.2.3,MacIntel,60
,,,,,,,,,,,,,,,,,,,,6,2.090999842,4,0.165999889,1,0,1200,548,1,1199,vague,11117,2019-10-22_13h55.55.458,SurveyExpMetaMem,3.2.3,MacIntel,60
,,,,,,,,,,,,,,,,,,,,5,2.554999828,6,0.036000013,1,0,1200,855,1,1199,girl,11117,2019-10-22_13h55.55.458,SurveyExpMetaMem,3.2.3,MacIntel,60
,,,,,,,,,,,,,,,,,,,,5,1.454999924,5,0.18900013,1,0,1200,622,1,1199,revere,11117,2019-10-22_13h55.55.458,SurveyExpMetaMem,3.2.3,MacIntel,60
,,,,,,,,,,,,,,,,,,,,5,0.970999956,6,0.11500001,1,0,1200,737,1,1199,lamb,11117,2019-10-22_13h55.55.458,SurveyExpMetaMem,3.2.3,MacIntel,60
,,,,,,,,,,,,,,,,,,,,5,1.437999964,5,0.210000038,1,0,1200,278,1,1199,king,11117,2019-10-22_13h55.55.458,SurveyExpMetaMem,3.2.3,MacIntel,60
,,,,,,,,,,,,,,,,,,,,5,1.322999954,5,0.187999964,1,0,1200,679,1,1199,yellow,11117,2019-10-22_13h55.55.458,SurveyExpMetaMem,3.2.3,MacIntel,60
,,,,,,,,,,,,,,,,,,,,6,2.460999966,3,0.298000097,1,0,1200,1026,1,1199,crisis,11117,2019-10-22_13h55.55.458,SurveyExpMetaMem,3.2.3,MacIntel,60
,,,,,,,,,,,,,,,,,,,,5,2.443000078,3,0.45600009,1,0,1200,1135,1,1199,thirsty,11117,2019-10-22_13h55.55.458,SurveyExpMetaMem,3.2.3,MacIntel,60
,,,,,,,,,,,,,,,,,,,,5,1.292000055,4,0.155999899,1,0,1200,512,1,1199,insect,11117,2019-10-22_13h55.55.458,SurveyExpMetaMem,3.2.3,MacIntel,60
,,,,,,,,,,,,,,,,,,,,6,1.101000071,7,0.496999979,1,0,1200,93,1,1199,smiling,11117,2019-10-22_13h55.55.458,SurveyExpMetaMem,3.2.3,MacIntel,60
,,,,,,,,,,,,,,,,,,,,5,1.106999874,4,1.294000149,1,0,1200,390,1,1199,impair,11117,2019-10-22_13h55.55.458,SurveyExpMetaMem,3.2.3,MacIntel,60
,,,,,,,,,,,,,,,,,,,,7,2.221999884,3,0.713999987,1,0,1200,1125,1,1199,outrage,11117,2019-10-22_13h55.55.458,SurveyExpMetaMem,3.2.3,MacIntel,60
,,,,,,,,,,,,,,,,,,,,5,1.843999863,5,0.251000166,1,0,1200,69,1,1199,special,11117,2019-10-22_13h55.55.458,SurveyExpMetaMem,3.2.3,MacIntel,60
,,,,,,,,,,,,,,,,,,,,5,1.256999969,4,0.838999987,1,0,1200,780,1,1199,grass,11117,2019-10-22_13h55.55.458,SurveyExpMetaMem,3.2.3,MacIntel,60
,,,,,,,,,,,,,,,,,,,,5,0.869000196,5,0.57400012,1,0,1200,468,1,1199,noose,11117,2019-10-22_13h55.55.458,SurveyExpMetaMem,3.2.3,MacIntel,60
,,,,,,,,,,,,,,,,,,,,6,1.072000027,4,0.424999952,1,0,1200,144,1,1199,aroused,11117,2019-10-22_13h55.55.458,SurveyExpMetaMem,3.2.3,MacIntel,60
,,,,,,,,,,,,,,,,,,,,6,1.492000103,4,0.253000021,1,0,1200,1043,1,1199,scold,11117,2019-10-22_13h55.55.458,SurveyExpMetaMem,3.2.3,MacIntel,60
,,,,,,,,,,,,,,,,,,,,5,1.292999983,5,1.04399991,1,0,1200,906,1,1199,syphilis,11117,2019-10-22_13h55.55.458,SurveyExpMetaMem,3.2.3,MacIntel,60
,,,,,,,,,,,,,,,,,,,,4,3.190000057,3,0.262000084,1,0,1200,315,1,1199,zit,11117,2019-10-22_13h55.55.458,SurveyExpMetaMem,3.2.3,MacIntel,60
,,,,,,,,,,,,,,,,,,,,7,2.707000017,4,0.280999899,1,0,1200,937,1,1199,prison,11117,2019-10-22_13h55.55.458,SurveyExpMetaMem,3.2.3,MacIntel,60
,,,,,,,,,,,,,,,,,,,,6,1.013000011,6,0.263000011,1,0,1200,615,1,1199,lad,11117,2019-10-22_13h55.55.458,SurveyExpMetaMem,3.2.3,MacIntel,60
,,,,,,,,,,,,,,,,,,,,6,1.299000025,3,0.368999958,1,0,1200,380,1,1199,expire,11117,2019-10-22_13h55.55.458,SurveyExpMetaMem,3.2.3,MacIntel,60
,,,,,,,,,,,,,,,,,,,,5,3.571000099,5,0.209000111,1,0,1200,89,1,1199,cruiseship,11117,2019-10-22_13h55.55.458,SurveyExpMetaMem,3.2.3,MacIntel,60
,,,,,,,,,,,,,,,,,,,,5,0.837999821,5,0.238999844,1,0,1200,1177,1,1199,pang,11117,2019-10-22_13h55.55.458,SurveyExpMetaMem,3.2.3,MacIntel,60
,,,,,,,,,,,,,,,,,,,,5,0.954999924,4,0.322000027,1,0,1200,438,1,1199,dull,11117,2019-10-22_13h55.55.458,SurveyExpMetaMem,3.2.3,MacIntel,60
,,,,,,,,,,,,,,,,,,,,5,1.288999796,5,0.573999882,1,0,1200,199,1,1199,laughter,11117,2019-10-22_13h55.55.458,SurveyExpMetaMem,3.2.3,MacIntel,60
,,,,,,,,,,,,,,,,,,,,5,1.014000177,3,0.890000105,1,0,1200,521,1,1199,laundry,11117,2019-10-22_13h55.55.458,SurveyExpMetaMem,3.2.3,MacIntel,60
,,,,,,,,,,,,,,,,,,,,6,5.938000202,4,0.263999939,1,0,1200,470,1,1199,cynical,11117,2019-10-22_13h55.55.458,SurveyExpMetaMem,3.2.3,MacIntel,60
,,,,,,,,,,,,,,,,,,,,6,2.537000179,3,0.468000174,1,0,1200,1116,1,1199,emergency,11117,2019-10-22_13h55.55.458,SurveyExpMetaMem,3.2.3,MacIntel,60
,,,,,,,,,,,,,,,,,,,,5,2.34100008,4,3.569999933,1,0,1200,951,1,1199,castrate,11117,2019-10-22_13h55.55.458,SurveyExpMetaMem,3.2.3,MacIntel,60
,,,,,,,,,,,,,,,,,,,,5,1.970999956,5,0.205999851,1,0,1200,695,1,1199,teacher,11117,2019-10-22_13h55.55.458,SurveyExpMetaMem,3.2.3,MacIntel,60
,,,,,,,,,,,,,,,,,,,,5,1.441000223,6,0.087999821,1,0,1200,718,1,1199,flow,11117,2019-10-22_13h55.55.458,SurveyExpMetaMem,3.2.3,MacIntel,60
,,,,,,,,,,,,,,,,,,,,4,1.174999952,5,0.421999931,1,0,1200,689,1,1199,land,11117,2019-10-22_13h55.55.458,SurveyExpMetaMem,3.2.3,MacIntel,60
,,,,,,,,,,,,,,,,,,,,5,2.036999941,4,0.270999908,1,0,1200,1053,1,1199,surgery,11117,2019-10-22_13h55.55.458,SurveyExpMetaMem,3.2.3,MacIntel,60
,,,,,,,,,,,,,,,,,,,,5,2.572999954,4,0.996000051,1,0,1200,758,1,1199,camera,11117,2019-10-22_13h55.55.458,SurveyExpMetaMem,3.2.3,MacIntel,60
,,,,,,,,,,,,,,,,,,,,4,2.268000126,3,1.506000042,1,0,1200,983,1,1199,demonic,11117,2019-10-22_13h55.55.458,SurveyExpMetaMem,3.2.3,MacIntel,60
,,,,,,,,,,,,,,,,,,,,5,9.083999872,5,0.143000126,1,0,1200,223,1,1199,fashion,11117,2019-10-22_13h55.55.458,SurveyExpMetaMem,3.2.3,MacIntel,60
,,,,,,,,,,,,,,,,,,,,5,1.795000076,5,0.638999939,1,0,1200,725,1,1199,checkerboard,11117,2019-10-22_13h55.55.458,SurveyExpMetaMem,3.2.3,MacIntel,60
,,,,,,,,,,,,,,,,,,,,5,5.288000107,4,0.244999886,1,0,1200,1148,1,1199,suspicious,11117,2019-10-22_13h55.55.458,SurveyExpMetaMem,3.2.3,MacIntel,60
,,,,,,,,,,,,,,,,,,,,5,1.513000011,4,0.503999949,1,0,1200,320,1,1199,deformed,11117,2019-10-22_13h55.55.458,SurveyExpMetaMem,3.2.3,MacIntel,60
,,,,,,,,,,,,,,,,,,,,5,1.122999907,5,0.210000038,1,0,1200,153,1,1199,teach,11117,2019-10-22_13h55.55.458,SurveyExpMetaMem,3.2.3,MacIntel,60
,,,,,,,,,,,,,,,,,,,,5,40.26300001,6,0.092000008,1,0,1200,766,1,1199,flag,11117,2019-10-22_13h55.55.458,SurveyExpMetaMem,3.2.3,MacIntel,60
,,,,,,,,,,,,,,,,,,,,5,1.253999949,5,0.171999931,1,0,1200,993,1,1199,remorse,11117,2019-10-22_13h55.55.458,SurveyExpMetaMem,3.2.3,MacIntel,60
,,,,,,,,,,,,,,,,,,,,5,1.674000025,3,1.255000114,1,0,1200,1191,1,1199,evade,11117,2019-10-22_13h55.55.458,SurveyExpMetaMem,3.2.3,MacIntel,60
,,,,,,,,,,,,,,,,,,,,6,4.521000147,5,0.754999876,1,0,1200,425,1,1199,crutch,11117,2019-10-22_13h55.55.458,SurveyExpMetaMem,3.2.3,MacIntel,60
,,,,,,,,,,,,,,,,,,,,7,58.10500002,5,0.174000025,1,0,1200,187,1,1199,excite,11117,2019-10-22_13h55.55.458,SurveyExpMetaMem,3.2.3,MacIntel,60
,,,,,,,,,,,,,,,,,,,,6,1.503999949,6,0.40500021,1,0,1200,1045,1,1199,scalding,11117,2019-10-22_13h55.55.458,SurveyExpMetaMem,3.2.3,MacIntel,60
,,,,,,,,,,,,,,,,,,,,7,2.580999851,2,0.222000122,1,0,1200,1038,1,1199,pervert,11117,2019-10-22_13h55.55.458,SurveyExpMetaMem,3.2.3,MacIntel,60
,,,,,,,,,,,,,,,,,,,,7,1.602999926,2,0.140000105,1,0,1200,1106,1,1199,pushy,11117,2019-10-22_13h55.55.458,SurveyExpMetaMem,3.2.3,MacIntel,60
,,,,,,,,,,,,,,,,,,,,5,1.792999983,6,0.121999979,1,0,1200,62,1,1199,interested,11117,2019-10-22_13h55.55.458,SurveyExpMetaMem,3.2.3,MacIntel,60
,,,,,,,,,,,,,,,,,,,,5,1.646000147,5,1.80700016,1,0,1200,1179,1,1199,nerves,11117,2019-10-22_13h55.55.458,SurveyExpMetaMem,3.2.3,MacIntel,60
,,,,,,,,,,,,,,,,,,,,6,2.394000053,7,0.789000034,1,0,1200,145,1,1199,me,11117,2019-10-22_13h55.55.458,SurveyExpMetaMem,3.2.3,MacIntel,60
,,,,,,,,,,,,,,,,,,,,6,1.553999901,7,0.126999855,1,0,1200,168,1,1199,mate,11117,2019-10-22_13h55.55.458,SurveyExpMetaMem,3.2.3,MacIntel,60
,,,,,,,,,,,,,,,,,,,,7,2.128000021,8,0.24000001,1,0,1200,3,1,1199,nudist,11117,2019-10-22_13h55.55.458,SurveyExpMetaMem,3.2.3,MacIntel,60
,,,,,,,,,,,,,,,,,,,,7,3.35800004,3,0.10800004,1,0,1200,1159,1,1199,rifle,11117,2019-10-22_13h55.55.458,SurveyExpMetaMem,3.2.3,MacIntel,60
,,,,,,,,,,,,,,,,,,,,6,33.72799993,6,0.347999811,1,0,1200,708,1,1199,nursery,11117,2019-10-22_13h55.55.458,SurveyExpMetaMem,3.2.3,MacIntel,60
,,,,,,,,,,,,,,,,,,,,5,2.187000036,6,0.088000059,1,0,1200,220,1,1199,reef,11117,2019-10-22_13h55.55.458,SurveyExpMetaMem,3.2.3,MacIntel,60
,,,,,,,,,,,,,,,,,,,,7,1.86500001,7,0.34100008,1,0,1200,8,1,1199,extreme,11117,2019-10-22_13h55.55.458,SurveyExpMetaMem,3.2.3,MacIntel,60
,,,,,,,,,,,,,,,,,,,,6,2.146999836,5,0.08100009,1,0,1200,1009,1,1199,frightened,11117,2019-10-22_13h55.55.458,SurveyExpMetaMem,3.2.3,MacIntel,60
,,,,,,,,,,,,,,,,,,,,6,2.075000048,3,0.109999895,1,0,1200,1083,1,1199,delayed,11117,2019-10-22_13h55.55.458,SurveyExpMetaMem,3.2.3,MacIntel,60
,,,,,,,,,,,,,,,,,,,,6,1.460999966,3,0.092000008,1,0,1200,1044,1,1199,lost,11117,2019-10-22_13h55.55.458,SurveyExpMetaMem,3.2.3,MacIntel,60
,,,,,,,,,,,,,,,,,,,,5,2.088000059,3,0.747999907,1,0,1200,365,1,1199,discouraged,11117,2019-10-22_13h55.55.458,SurveyExpMetaMem,3.2.3,MacIntel,60
,,,,,,,,,,,,,,,,,,,,5,1.944999933,6,0.226000071,1,0,1200,518,1,1199,report,11117,2019-10-22_13h55.55.458,SurveyExpMetaMem,3.2.3,MacIntel,60
,,,,,,,,,,,,,,,,,,,,5,1.537999868,5,0.191999912,1,0,1200,412,1,1199,mucus,11117,2019-10-22_13h55.55.458,SurveyExpMetaMem,3.2.3,MacIntel,60
,,,,,,,,,,,,,,,,,,,,5,1.509000063,4,0.345999956,1,0,1200,578,1,1199,govern,11117,2019-10-22_13h55.55.458,SurveyExpMetaMem,3.2.3,MacIntel,60
,,,,,,,,,,,,,,,,,,,,5,1.038000107,3,1.621000051,1,0,1200,1054,1,1199,jealous,11117,2019-10-22_13h55.55.458,SurveyExpMetaMem,3.2.3,MacIntel,60
,,,,,,,,,,,,,,,,,,,,6,2.058000088,6,0.390000105,1,0,1200,298,1,1199,success,11117,2019-10-22_13h55.55.458,SurveyExpMetaMem,3.2.3,MacIntel,60
,,,,,,,,,,,,,,,,,,,,6,2.419999838,3,0.22300005,1,0,1200,347,1,1199,unpleasant,11117,2019-10-22_13h55.55.458,SurveyExpMetaMem,3.2.3,MacIntel,60
,,,,,,,,,,,,,,,,,,,,6,2.169000149,4,0.944999933,1,0,1200,371,1,1199,weakness,11117,2019-10-22_13h55.55.458,SurveyExpMetaMem,3.2.3,MacIntel,60
,,,,,,,,,,,,,,,,,,,,6,2.187999964,7,0.230999947,1,0,1200,296,1,1199,awesome,11117,2019-10-22_13h55.55.458,SurveyExpMetaMem,3.2.3,MacIntel,60
,,,,,,,,,,,,,,,,,,,,5,12.58999991,5,0.187999964,1,0,1200,450,1,1199,overcast,11117,2019-10-22_13h55.55.458,SurveyExpMetaMem,3.2.3,MacIntel,60
,,,,,,,,,,,,,,,,,,,,5,3.195000172,2,0.113000154,1,0,1200,355,1,1199,graveyard,11117,2019-10-22_13h55.55.458,SurveyExpMetaMem,3.2.3,MacIntel,60
,,,,,,,,,,,,,,,,,,,,5,1.398000002,6,0.15899992,1,0,1200,92,1,1199,justice,11117,2019-10-22_13h55.55.458,SurveyExpMetaMem,3.2.3,MacIntel,60
,,,,,,,,,,,,,,,,,,,,5,1.710000038,5,0.635999918,1,0,1200,564,1,1199,wane,11117,2019-10-22_13h55.55.458,SurveyExpMetaMem,3.2.3,MacIntel,60
,,,,,,,,,,,,,,,,,,,,5,2.039999962,5,0.541000128,1,0,1200,579,1,1199,bus,11117,2019-10-22_13h55.55.458,SurveyExpMetaMem,3.2.3,MacIntel,60
,,,,,,,,,,,,,,,,,,,,5,1.353000164,4,0.506000042,1,0,1200,428,1,1199,end,11117,2019-10-22_13h55.55.458,SurveyExpMetaMem,3.2.3,MacIntel,60
,,,,,,,,,,,,,,,,,,,,5,43.44099998,5,0.122999907,1,0,1200,63,1,1199,clothes,11117,2019-10-22_13h55.55.458,SurveyExpMetaMem,3.2.3,MacIntel,60
,,,,,,,,,,,,,,,,,,,,5,1.622999907,6,0.192000151,1,0,1200,704,1,1199,flute,11117,2019-10-22_13h55.55.458,SurveyExpMetaMem,3.2.3,MacIntel,60
,,,,,,,,,,,,,,,,,,,,5,1.435000181,6,0.190999985,1,0,1200,1194,1,1199,obsession,11117,2019-10-22_13h55.55.458,SurveyExpMetaMem,3.2.3,MacIntel,60
,,,,,,,,,,,,,,,,,,,,7,2.072999954,8,0.322000027,1,0,1200,115,1,1199,sexual,11117,2019-10-22_13h55.55.458,SurveyExpMetaMem,3.2.3,MacIntel,60
,,,,,,,,,,,,,,,,,,,,4,1.788000107,4,0.174999952,1,0,1200,1094,1,1199,disruptive,11117,2019-10-22_13h55.55.458,SurveyExpMetaMem,3.2.3,MacIntel,60
,,,,,,,,,,,,,,,,,,,,5,0.957000017,5,0.171000004,1,0,1200,685,1,1199,makeup,11117,2019-10-22_13h55.55.458,SurveyExpMetaMem,3.2.3,MacIntel,60
,,,,,,,,,,,,,,,,,,,,5,1.061999798,5,0.161000013,1,0,1200,767,1,1199,civil,11117,2019-10-22_13h55.55.458,SurveyExpMetaMem,3.2.3,MacIntel,60
,,,,,,,,,,,,,,,,,,,,6,1.372999907,6,0.14199996,1,0,1200,176,1,1199,champ,11117,2019-10-22_13h55.55.458,SurveyExpMetaMem,3.2.3,MacIntel,60
,,,,,,,,,,,,,,,,,,,,8,3.555000067,8,0.49000001,1,0,1200,64,1,1199,brain,11117,2019-10-22_13h55.55.458,SurveyExpMetaMem,3.2.3,MacIntel,60
,,,,,,,,,,,,,,,,,,,,5,5.572000027,4,0.065000057,1,0,1200,399,1,1199,withdrawn,11117,2019-10-22_13h55.55.458,SurveyExpMetaMem,3.2.3,MacIntel,60
,,,,,,,,,,,,,,,,,,,,4,1.621000051,5,0.006999969,1,0,1200,465,1,1199,void,11117,2019-10-22_13h55.55.458,SurveyExpMetaMem,3.2.3,MacIntel,60
,,,,,,,,,,,,,,,,,,,,5,1.537999868,5,0.154999971,1,0,1200,630,1,1199,website,11117,2019-10-22_13h55.55.458,SurveyExpMetaMem,3.2.3,MacIntel,60
,,,,,,,,,,,,,,,,,,,,3,4.005000114,7,0.396999836,1,0,1200,842,1,1199,breathe,11117,2019-10-22_13h55.55.458,SurveyExpMetaMem,3.2.3,MacIntel,60
,,,,,,,,,,,,,,,,,,,,5,1.517999887,5,0.190000057,1,0,1200,497,1,1199,pungent,11117,2019-10-22_13h55.55.458,SurveyExpMetaMem,3.2.3,MacIntel,60
,,,,,,,,,,,,,,,,,,,,6,1.226000071,2,2.515000105,1,0,1200,1056,1,1199,crime,11117,2019-10-22_13h55.55.458,SurveyExpMetaMem,3.2.3,MacIntel,60
,,,,,,,,,,,,,,,,,,,,5,1.84100008,4,0.095999956,1,0,1200,505,1,1199,exhaust,11117,2019-10-22_13h55.55.458,SurveyExpMetaMem,3.2.3,MacIntel,60
,,,,,,,,,,,,,,,,,,,,5,18.03800011,5,0.15199995,1,0,1200,373,1,1199,ignorance,11117,2019-10-22_13h55.55.458,SurveyExpMetaMem,3.2.3,MacIntel,60
,,,,,,,,,,,,,,,,,,,,5,1.944999933,3,1.322999954,1,0,1200,1128,1,1199,fighting,11117,2019-10-22_13h55.55.458,SurveyExpMetaMem,3.2.3,MacIntel,60
,,,,,,,,,,,,,,,,,,,,5,1.279000044,5,0.207000017,1,0,1200,849,1,1199,blue,11117,2019-10-22_13h55.55.458,SurveyExpMetaMem,3.2.3,MacIntel,60
,,,,,,,,,,,,,,,,,,,,4,2.087000132,3,0.287000179,1,0,1200,477,1,1199,separate,11117,2019-10-22_13h55.55.458,SurveyExpMetaMem,3.2.3,MacIntel,60
,,,,,,,,,,,,,,,,,,,,6,13.84500003,2,0.265000105,1,0,1200,484,1,1199,leave,11117,2019-10-22_13h55.55.458,SurveyExpMetaMem,3.2.3,MacIntel,60
,,,,,,,,,,,,,,,,,,,,5,2.398000002,7,3.138999939,1,0,1200,817,1,1199,countryside,11117,2019-10-22_13h55.55.458,SurveyExpMetaMem,3.2.3,MacIntel,60
,,,,,,,,,,,,,,,,,,,,6,1.373000145,7,0.092000008,1,0,1200,851,1,1199,cool,11117,2019-10-22_13h55.55.458,SurveyExpMetaMem,3.2.3,MacIntel,60
,,,,,,,,,,,,,,,,,,,,6,1.493000031,3,0.089999914,1,0,1200,928,1,1199,cruel,11117,2019-10-22_13h55.55.458,SurveyExpMetaMem,3.2.3,MacIntel,60
,,,,,,,,,,,,,,,,,,,,4,3.596999884,2,0.894000053,1,0,1200,338,1,1199,obesity,11117,2019-10-22_13h55.55.458,SurveyExpMetaMem,3.2.3,MacIntel,60
,,,,,,,,,,,,,,,,,,,,5,1.923999786,2,0.22300005,1,0,1200,999,1,1199,burdened,11117,2019-10-22_13h55.55.458,SurveyExpMetaMem,3.2.3,MacIntel,60
,,,,,,,,,,,,,,,,,,,,6,10.8039999,7,0.068000078,1,0,1200,886,1,1199,sunflower,11117,2019-10-22_13h55.55.458,SurveyExpMetaMem,3.2.3,MacIntel,60
,,,,,,,,,,,,,,,,,,,,7,2.130000114,2,0.121999979,1,0,1200,991,1,1199,harass,11117,2019-10-22_13h55.55.458,SurveyExpMetaMem,3.2.3,MacIntel,60
,,,,,,,,,,,,,,,,,,,,8,2.032999992,2,0.16899991,1,0,1200,922,1,1199,nightmare,11117,2019-10-22_13h55.55.458,SurveyExpMetaMem,3.2.3,MacIntel,60
,,,,,,,,,,,,,,,,,,,,6,1.396999836,7,0.106999874,1,0,1200,177,1,1199,frosting,11117,2019-10-22_13h55.55.458,SurveyExpMetaMem,3.2.3,MacIntel,60
,,,,,,,,,,,,,,,,,,,,6,1.338000059,6,0.473999977,1,0,1200,263,1,1199,answer,11117,2019-10-22_13h55.55.458,SurveyExpMetaMem,3.2.3,MacIntel,60
,,,,,,,,,,,,,,,,,,,,6,3.751999855,6,0.334000111,1,0,1200,1150,1,1199,forceful,11117,2019-10-22_13h55.55.458,SurveyExpMetaMem,3.2.3,MacIntel,60
,,,,,,,,,,,,,,,,,,,,5,3.809000015,5,0.372000217,1,0,1200,647,1,1199,accord,11117,2019-10-22_13h55.55.458,SurveyExpMetaMem,3.2.3,MacIntel,60
,,,,,,,,,,,,,,,,,,,,6,1.772000074,3,0.421999931,1,0,1200,1052,1,1199,angry,11117,2019-10-22_13h55.55.458,SurveyExpMetaMem,3.2.3,MacIntel,60
,,,,,,,,,,,,,,,,,,,,8,1.867000103,8,0.968000174,1,0,1200,178,1,1199,alive,11117,2019-10-22_13h55.55.458,SurveyExpMetaMem,3.2.3,MacIntel,60
,,,,,,,,,,,,,,,,,,,,6,1.088999987,7,0.146999836,1,0,1200,687,1,1199,skinny,11117,2019-10-22_13h55.55.458,SurveyExpMetaMem,3.2.3,MacIntel,60
,,,,,,,,,,,,,,,,,,,,6,3.756000042,7,0.122999907,1,0,1200,7,1,1199,duet,11117,2019-10-22_13h55.55.458,SurveyExpMetaMem,3.2.3,MacIntel,60
,,,,,,,,,,,,,,,,,,,,6,3.784999847,2,0.252000093,1,0,1200,1023,1,1199,disorder,11117,2019-10-22_13h55.55.458,SurveyExpMetaMem,3.2.3,MacIntel,60
,,,,,,,,,,,,,,,,,,,,6,1.595000029,7,0.308000088,1,0,1200,95,1,1199,giggle,11117,2019-10-22_13h55.55.458,SurveyExpMetaMem,3.2.3,MacIntel,60
,,,,,,,,,,,,,,,,,,,,7,3.892000198,8,1.124000072,1,0,1200,137,1,1199,money,11117,2019-10-22_13h55.55.458,SurveyExpMetaMem,3.2.3,MacIntel,60
,,,,,,,,,,,,,,,,,,,,6,1.638000011,4,1.164000034,1,0,1200,776,1,1199,doll,11117,2019-10-22_13h55.55.458,SurveyExpMetaMem,3.2.3,MacIntel,60
,,,,,,,,,,,,,,,,,,,,5,2.105999947,6,2.129999876,1,0,1200,97,1,1199,enthusiastic,11117,2019-10-22_13h55.55.458,SurveyExpMetaMem,3.2.3,MacIntel,60
,,,,,,,,,,,,,,,,,,,,5,1.490999937,6,0.042999983,1,0,1200,270,1,1199,toddler,11117,2019-10-22_13h55.55.458,SurveyExpMetaMem,3.2.3,MacIntel,60
,,,,,,,,,,,,,,,,,,,,5,1.205999851,6,0.06400013,1,0,1200,197,1,1199,happy,11117,2019-10-22_13h55.55.458,SurveyExpMetaMem,3.2.3,MacIntel,60
,,,,,,,,,,,,,,,,,,,,5,1.269000053,6,0.078999996,1,0,1200,973,1,1199,anger,11117,2019-10-22_13h55.55.458,SurveyExpMetaMem,3.2.3,MacIntel,60
,,,,,,,,,,,,,,,,,,,,7,3.958999872,4,1.359000206,1,0,1200,662,1,1199,bib,11117,2019-10-22_13h55.55.458,SurveyExpMetaMem,3.2.3,MacIntel,60
,,,,,,,,,,,,,,,,,,,,5,1.904000044,4,0.891000032,1,0,1200,368,1,1199,dreary,11117,2019-10-22_13h55.55.458,SurveyExpMetaMem,3.2.3,MacIntel,60
,,,,,,,,,,,,,,,,,,,,5,1.045000076,5,0.391000032,1,0,1200,361,1,1199,glum,11117,2019-10-22_13h55.55.458,SurveyExpMetaMem,3.2.3,MacIntel,60
,,,,,,,,,,,,,,,,,,,,7,1.673000097,8,1.170000076,1,0,1200,254,1,1199,crush,11117,2019-10-22_13h55.55.458,SurveyExpMetaMem,3.2.3,MacIntel,60
,,,,,,,,,,,,,,,,,,,,6,9.111999989,7,0.362999916,1,0,1200,26,1,1199,inspired,11117,2019-10-22_13h55.55.458,SurveyExpMetaMem,3.2.3,MacIntel,60
,,,,,,,,,,,,,,,,,,,,9,3.055000067,1,0.792000055,1,0,1200,985,1,1199,pollution,11117,2019-10-22_13h55.55.458,SurveyExpMetaMem,3.2.3,MacIntel,60
,,,,,,,,,,,,,,,,,,,,5,3.704999924,5,0.177999973,1,0,1200,6,1,1199,chest,11117,2019-10-22_13h55.55.458,SurveyExpMetaMem,3.2.3,MacIntel,60
,,,,,,,,,,,,,,,,,,,,5,0.937999964,5,0.212000132,1,0,1200,267,1,1199,bold,11117,2019-10-22_13h55.55.458,SurveyExpMetaMem,3.2.3,MacIntel,60
,,,,,,,,,,,,,,,,,,,,5,1.055000067,5,0.555000067,1,0,1200,360,1,1199,dandruff,11117,2019-10-22_13h55.55.458,SurveyExpMetaMem,3.2.3,MacIntel,60
,,,,,,,,,,,,,,,,,,,,5,5.855999947,6,0.145999908,1,0,1200,738,1,1199,horse,11117,2019-10-22_13h55.55.458,SurveyExpMetaMem,3.2.3,MacIntel,60
,,,,,,,,,,,,,,,,,,,,8,2.835999966,2,0.096000195,1,0,1200,358,1,1199,waste,11117,2019-10-22_13h55.55.458,SurveyExpMetaMem,3.2.3,MacIntel,60
,,,,,,,,,,,,,,,,,,,,6,1.997000217,7,0.053999901,1,0,1200,183,1,1199,congratulate,11117,2019-10-22_13h55.55.458,SurveyExpMetaMem,3.2.3,MacIntel,60
,,,,,,,,,,,,,,,,,,,,6,1.907999992,7,0.065999985,1,0,1200,387,1,1199,tax,11117,2019-10-22_13h55.55.458,SurveyExpMetaMem,3.2.3,MacIntel,60
,,,,,,,,,,,,,,,,,,,,6,2.223999977,7,0.114000082,1,0,1200,48,1,1199,excellence,11117,2019-10-22_13h55.55.458,SurveyExpMetaMem,3.2.3,MacIntel,60
,,,,,,,,,,,,,,,,,,,,3,3.74000001,2,0.79700017,1,0,1200,492,1,1199,naive,11117,2019-10-22_13h55.55.458,SurveyExpMetaMem,3.2.3,MacIntel,60
,,,,,,,,,,,,,,,,,,,,6,2.395999908,6,0.403000116,1,0,1200,1133,1,1199,slip,11117,2019-10-22_13h55.55.458,SurveyExpMetaMem,3.2.3,MacIntel,60
