mouse_4.x,mouse_4.y,mouse_4.leftButton,mouse_4.midButton,mouse_4.rightButton,mouse.x,mouse.y,mouse.leftButton,mouse.midButton,mouse.rightButton,mouse_2.x,mouse_2.y,mouse_2.leftButton,mouse_2.midButton,mouse_2.rightButton,mouse_3.x,mouse_3.y,mouse_3.leftButton,mouse_3.midButton,mouse_3.rightButton,A_key_resp.keys,A_key_resp.rt,key_resp.keys,key_resp.rt,trials.thisRepN,trials.thisTrialN,trials.thisN,trials.thisIndex,trials.ran,trials.order,word,ParticipantID,date,expName,psychopyVersion,OS,frameRate
-0.052222222,-0.101111111,1,0,0,0.05,-0.053333333,1,0,0,0.046666667,-0.094444444,1,0,0,0.048888889,-0.093333333,1,0,0,4,11.46199989,7,7.520999908,1,0,1200,823,1,1199,nourish,11140,2019-10-21_20h04.04.446,SurveyExpMetaMem,3.2.3,MacIntel,60
,,,,,,,,,,,,,,,,,,,,8,7.79399991,2,6.075999975,1,0,1200,469,1,1199,resent,11140,2019-10-21_20h04.04.446,SurveyExpMetaMem,3.2.3,MacIntel,60
,,,,,,,,,,,,,,,,,,,,5,7.497999907,3,4.417999744,1,0,1200,380,1,1199,expire,11140,2019-10-21_20h04.04.446,SurveyExpMetaMem,3.2.3,MacIntel,60
,,,,,,,,,,,,,,,,,,,,5,8.13499999,5,2.451999903,1,0,1200,228,1,1199,suite,11140,2019-10-21_20h04.04.446,SurveyExpMetaMem,3.2.3,MacIntel,60
,,,,,,,,,,,,,,,,,,,,5,6.43599987,3,3.434999943,1,0,1200,318,1,1199,disappointment,11140,2019-10-21_20h04.04.446,SurveyExpMetaMem,3.2.3,MacIntel,60
,,,,,,,,,,,,,,,,,,,,3,5.842999935,6,3.719000101,1,0,1200,138,1,1199,blessings,11140,2019-10-21_20h04.04.446,SurveyExpMetaMem,3.2.3,MacIntel,60
,,,,,,,,,,,,,,,,,,,,7,10.00300002,2,3.792999744,1,0,1200,966,1,1199,regretful,11140,2019-10-21_20h04.04.446,SurveyExpMetaMem,3.2.3,MacIntel,60
,,,,,,,,,,,,,,,,,,,,7,9.830999851,3,4.856999874,1,0,1200,573,1,1199,cease,11140,2019-10-21_20h04.04.446,SurveyExpMetaMem,3.2.3,MacIntel,60
,,,,,,,,,,,,,,,,,,,,3,4.985999823,5,4.230000019,1,0,1200,794,1,1199,pray,11140,2019-10-21_20h04.04.446,SurveyExpMetaMem,3.2.3,MacIntel,60
,,,,,,,,,,,,,,,,,,,,5,5.838999987,5,2.075000048,1,0,1200,479,1,1199,period,11140,2019-10-21_20h04.04.446,SurveyExpMetaMem,3.2.3,MacIntel,60
,,,,,,,,,,,,,,,,,,,,7,4.370000124,2,5.86899972,1,0,1200,1066,1,1199,annoy,11140,2019-10-21_20h04.04.446,SurveyExpMetaMem,3.2.3,MacIntel,60
,,,,,,,,,,,,,,,,,,,,5,4.332999706,5,2.404999733,1,0,1200,497,1,1199,pungent,11140,2019-10-21_20h04.04.446,SurveyExpMetaMem,3.2.3,MacIntel,60
,,,,,,,,,,,,,,,,,,,,5,2.341999769,5,1.318999767,1,0,1200,259,1,1199,thin,11140,2019-10-21_20h04.04.446,SurveyExpMetaMem,3.2.3,MacIntel,60
,,,,,,,,,,,,,,,,,,,,8,2.629999876,2,5.470000029,1,0,1200,1104,1,1199,avalanche,11140,2019-10-21_20h04.04.446,SurveyExpMetaMem,3.2.3,MacIntel,60
,,,,,,,,,,,,,,,,,,,,8,4.820999861,2,2.492999792,1,0,1200,998,1,1199,virus,11140,2019-10-21_20h04.04.446,SurveyExpMetaMem,3.2.3,MacIntel,60
,,,,,,,,,,,,,,,,,,,,7,7.239999771,5,5.518999815,1,0,1200,1191,1,1199,evade,11140,2019-10-21_20h04.04.446,SurveyExpMetaMem,3.2.3,MacIntel,60
,,,,,,,,,,,,,,,,,,,,8,5.025999784,2,1.426999807,1,0,1200,1006,1,1199,rash,11140,2019-10-21_20h04.04.446,SurveyExpMetaMem,3.2.3,MacIntel,60
,,,,,,,,,,,,,,,,,,,,5,3.361999989,5,1.111999989,1,0,1200,1109,1,1199,germ,11140,2019-10-21_20h04.04.446,SurveyExpMetaMem,3.2.3,MacIntel,60
,,,,,,,,,,,,,,,,,,,,8,7.377000093,3,6.021999836,1,0,1200,330,1,1199,sunburn,11140,2019-10-21_20h04.04.446,SurveyExpMetaMem,3.2.3,MacIntel,60
,,,,,,,,,,,,,,,,,,,,6,8.02699995,4,2.203000069,1,0,1200,536,1,1199,vacant,11140,2019-10-21_20h04.04.446,SurveyExpMetaMem,3.2.3,MacIntel,60
,,,,,,,,,,,,,,,,,,,,6,4.469000101,3,4.035000086,1,0,1200,1027,1,1199,criticism,11140,2019-10-21_20h04.04.446,SurveyExpMetaMem,3.2.3,MacIntel,60
,,,,,,,,,,,,,,,,,,,,5,6.06400013,5,1.769000053,1,0,1200,570,1,1199,muddy,11140,2019-10-21_20h04.04.446,SurveyExpMetaMem,3.2.3,MacIntel,60
,,,,,,,,,,,,,,,,,,,,5,2.686999798,5,0.962999821,1,0,1200,203,1,1199,seal,11140,2019-10-21_20h04.04.446,SurveyExpMetaMem,3.2.3,MacIntel,60
,,,,,,,,,,,,,,,,,,,,5,2.510999918,5,0.785999775,1,0,1200,655,1,1199,name,11140,2019-10-21_20h04.04.446,SurveyExpMetaMem,3.2.3,MacIntel,60
,,,,,,,,,,,,,,,,,,,,7,5.559999943,3,2.953000069,1,0,1200,985,1,1199,pollution,11140,2019-10-21_20h04.04.446,SurveyExpMetaMem,3.2.3,MacIntel,60
,,,,,,,,,,,,,,,,,,,,5,5.542000055,4,7.125999928,1,0,1200,548,1,1199,vague,11140,2019-10-21_20h04.04.446,SurveyExpMetaMem,3.2.3,MacIntel,60
,,,,,,,,,,,,,,,,,,,,5,4.951999903,8,5.309999943,1,0,1200,249,1,1199,award,11140,2019-10-21_20h04.04.446,SurveyExpMetaMem,3.2.3,MacIntel,60
,,,,,,,,,,,,,,,,,,,,5,5.063999891,7,2.546999931,1,0,1200,27,1,1199,gourmet,11140,2019-10-21_20h04.04.446,SurveyExpMetaMem,3.2.3,MacIntel,60
,,,,,,,,,,,,,,,,,,,,8,5.970999956,1,2.784999847,1,0,1200,972,1,1199,homicide,11140,2019-10-21_20h04.04.446,SurveyExpMetaMem,3.2.3,MacIntel,60
,,,,,,,,,,,,,,,,,,,,7,5.301999807,3,2.556999922,1,0,1200,85,1,1199,like,11140,2019-10-21_20h04.04.446,SurveyExpMetaMem,3.2.3,MacIntel,60
,,,,,,,,,,,,,,,,,,,,7,3.086999893,3,5.421000004,1,0,1200,1005,1,1199,pissed,11140,2019-10-21_20h04.04.446,SurveyExpMetaMem,3.2.3,MacIntel,60
,,,,,,,,,,,,,,,,,,,,3,5.777999878,7,1.836999893,1,0,1200,796,1,1199,rose,11140,2019-10-21_20h04.04.446,SurveyExpMetaMem,3.2.3,MacIntel,60
,,,,,,,,,,,,,,,,,,,,4,6.302999735,5,2.49399972,1,0,1200,746,1,1199,proper,11140,2019-10-21_20h04.04.446,SurveyExpMetaMem,3.2.3,MacIntel,60
,,,,,,,,,,,,,,,,,,,,8,2.718999863,3,2.15199995,1,0,1200,971,1,1199,crash,11140,2019-10-21_20h04.04.446,SurveyExpMetaMem,3.2.3,MacIntel,60
,,,,,,,,,,,,,,,,,,,,7,3.652999878,5,3.020999908,1,0,1200,50,1,1199,bolt,11140,2019-10-21_20h04.04.446,SurveyExpMetaMem,3.2.3,MacIntel,60
,,,,,,,,,,,,,,,,,,,,8,2.523000002,2,2.569999933,1,0,1200,1068,1,1199,riot,11140,2019-10-21_20h04.04.446,SurveyExpMetaMem,3.2.3,MacIntel,60
,,,,,,,,,,,,,,,,,,,,6,5.711999893,5,2.208999872,1,0,1200,205,1,1199,outspoken,11140,2019-10-21_20h04.04.446,SurveyExpMetaMem,3.2.3,MacIntel,60
,,,,,,,,,,,,,,,,,,,,5,1.891000032,5,1.20299983,1,0,1200,653,1,1199,detail,11140,2019-10-21_20h04.04.446,SurveyExpMetaMem,3.2.3,MacIntel,60
,,,,,,,,,,,,,,,,,,,,8,3.252999783,2,1.878999949,1,0,1200,340,1,1199,coward,11140,2019-10-21_20h04.04.446,SurveyExpMetaMem,3.2.3,MacIntel,60
,,,,,,,,,,,,,,,,,,,,7,1.870000124,3,1.750999928,1,0,1200,1059,1,1199,harsh,11140,2019-10-21_20h04.04.446,SurveyExpMetaMem,3.2.3,MacIntel,60
,,,,,,,,,,,,,,,,,,,,7,3.003000021,3,1.154999971,1,0,1200,1011,1,1199,robber,11140,2019-10-21_20h04.04.446,SurveyExpMetaMem,3.2.3,MacIntel,60
,,,,,,,,,,,,,,,,,,,,7,8.194999933,3,1.295999765,1,0,1200,342,1,1199,alienation,11140,2019-10-21_20h04.04.446,SurveyExpMetaMem,3.2.3,MacIntel,60
,,,,,,,,,,,,,,,,,,,,2,3.753999949,6,3.42599988,1,0,1200,825,1,1199,swan,11140,2019-10-21_20h04.04.446,SurveyExpMetaMem,3.2.3,MacIntel,60
,,,,,,,,,,,,,,,,,,,,8,2.223999977,2,1.73300004,1,0,1200,940,1,1199,war,11140,2019-10-21_20h04.04.446,SurveyExpMetaMem,3.2.3,MacIntel,60
,,,,,,,,,,,,,,,,,,,,5,3.15199995,5,0.602999926,1,0,1200,331,1,1199,casket,11140,2019-10-21_20h04.04.446,SurveyExpMetaMem,3.2.3,MacIntel,60
,,,,,,,,,,,,,,,,,,,,4,4.510999918,5,2.721999884,1,0,1200,847,1,1199,moon,11140,2019-10-21_20h04.04.446,SurveyExpMetaMem,3.2.3,MacIntel,60
,,,,,,,,,,,,,,,,,,,,3,2.018000126,7,3.03399992,1,0,1200,874,1,1199,butterfly,11140,2019-10-21_20h04.04.446,SurveyExpMetaMem,3.2.3,MacIntel,60
,,,,,,,,,,,,,,,,,,,,8,2.842000008,1,2.230000019,1,0,1200,926,1,1199,dead,11140,2019-10-21_20h04.04.446,SurveyExpMetaMem,3.2.3,MacIntel,60
,,,,,,,,,,,,,,,,,,,,8,1.859999895,2,2.444999933,1,0,1200,958,1,1199,traitor,11140,2019-10-21_20h04.04.446,SurveyExpMetaMem,3.2.3,MacIntel,60
,,,,,,,,,,,,,,,,,,,,8,2.759999752,2,2.746000051,1,0,1200,446,1,1199,greedy,11140,2019-10-21_20h04.04.446,SurveyExpMetaMem,3.2.3,MacIntel,60
,,,,,,,,,,,,,,,,,,,,7,2.145999908,4,3.090999842,1,0,1200,939,1,1199,vomit,11140,2019-10-21_20h04.04.446,SurveyExpMetaMem,3.2.3,MacIntel,60
,,,,,,,,,,,,,,,,,,,,7,2.325999975,3,1.19299984,1,0,1200,441,1,1199,prohibit,11140,2019-10-21_20h04.04.446,SurveyExpMetaMem,3.2.3,MacIntel,60
,,,,,,,,,,,,,,,,,,,,6,6.120999813,7,2.040999889,1,0,1200,828,1,1199,cooperative,11140,2019-10-21_20h04.04.446,SurveyExpMetaMem,3.2.3,MacIntel,60
,,,,,,,,,,,,,,,,,,,,6,5.187000036,5,2.139999866,1,0,1200,488,1,1199,rusty,11140,2019-10-21_20h04.04.446,SurveyExpMetaMem,3.2.3,MacIntel,60
,,,,,,,,,,,,,,,,,,,,5,1.434999943,5,0.60199976,1,0,1200,597,1,1199,drool,11140,2019-10-21_20h04.04.446,SurveyExpMetaMem,3.2.3,MacIntel,60
,,,,,,,,,,,,,,,,,,,,5,4.29399991,5,0.422999859,1,0,1200,1020,1,1199,malice,11140,2019-10-21_20h04.04.446,SurveyExpMetaMem,3.2.3,MacIntel,60
,,,,,,,,,,,,,,,,,,,,8,3.504999876,2,2.761999846,1,0,1200,1105,1,1199,flee,11140,2019-10-21_20h04.04.446,SurveyExpMetaMem,3.2.3,MacIntel,60
,,,,,,,,,,,,,,,,,,,,2,3.460999966,8,3.407999754,1,0,1200,192,1,1199,pleased,11140,2019-10-21_20h04.04.446,SurveyExpMetaMem,3.2.3,MacIntel,60
,,,,,,,,,,,,,,,,,,,,7,8.728999853,7,1.787999868,1,0,1200,74,1,1199,explore,11140,2019-10-21_20h04.04.446,SurveyExpMetaMem,3.2.3,MacIntel,60
,,,,,,,,,,,,,,,,,,,,7,3.072999954,7,1.686000109,1,0,1200,49,1,1199,ecstatic,11140,2019-10-21_20h04.04.446,SurveyExpMetaMem,3.2.3,MacIntel,60
,,,,,,,,,,,,,,,,,,,,7,2.664000034,8,1.359999895,1,0,1200,178,1,1199,alive,11140,2019-10-21_20h04.04.446,SurveyExpMetaMem,3.2.3,MacIntel,60
,,,,,,,,,,,,,,,,,,,,7,2.92599988,4,1.845999956,1,0,1200,1133,1,1199,slip,11140,2019-10-21_20h04.04.446,SurveyExpMetaMem,3.2.3,MacIntel,60
,,,,,,,,,,,,,,,,,,,,8,2.501999855,8,1.358999968,1,0,1200,222,1,1199,waterskiing,11140,2019-10-21_20h04.04.446,SurveyExpMetaMem,3.2.3,MacIntel,60
,,,,,,,,,,,,,,,,,,,,3,6.690000057,7,1.212000132,1,0,1200,850,1,1199,lake,11140,2019-10-21_20h04.04.446,SurveyExpMetaMem,3.2.3,MacIntel,60
,,,,,,,,,,,,,,,,,,,,5,3.56799984,5,1.280999899,1,0,1200,241,1,1199,car,11140,2019-10-21_20h04.04.446,SurveyExpMetaMem,3.2.3,MacIntel,60
,,,,,,,,,,,,,,,,,,,,3,5.60800004,5,0.981999874,1,0,1200,845,1,1199,honey,11140,2019-10-21_20h04.04.446,SurveyExpMetaMem,3.2.3,MacIntel,60
,,,,,,,,,,,,,,,,,,,,5,4.493000031,5,1.870999813,1,0,1200,171,1,1199,imagination,11140,2019-10-21_20h04.04.446,SurveyExpMetaMem,3.2.3,MacIntel,60
,,,,,,,,,,,,,,,,,,,,5,3.279000044,5,0.486999989,1,0,1200,667,1,1199,dew,11140,2019-10-21_20h04.04.446,SurveyExpMetaMem,3.2.3,MacIntel,60
,,,,,,,,,,,,,,,,,,,,6,2.42599988,4,1.572999954,1,0,1200,588,1,1199,bandage,11140,2019-10-21_20h04.04.446,SurveyExpMetaMem,3.2.3,MacIntel,60
,,,,,,,,,,,,,,,,,,,,5,3.538999796,5,1.189999819,1,0,1200,586,1,1199,cab,11140,2019-10-21_20h04.04.446,SurveyExpMetaMem,3.2.3,MacIntel,60
,,,,,,,,,,,,,,,,,,,,5,4.938999891,5,0.696000099,1,0,1200,790,1,1199,binoculars,11140,2019-10-21_20h04.04.446,SurveyExpMetaMem,3.2.3,MacIntel,60
,,,,,,,,,,,,,,,,,,,,7,3.622999907,7,1.486999989,1,0,1200,16,1,1199,sing,11140,2019-10-21_20h04.04.446,SurveyExpMetaMem,3.2.3,MacIntel,60
,,,,,,,,,,,,,,,,,,,,6,3.453999996,4,1.388999939,1,0,1200,443,1,1199,incorrect,11140,2019-10-21_20h04.04.446,SurveyExpMetaMem,3.2.3,MacIntel,60
,,,,,,,,,,,,,,,,,,,,3,6.089999914,6,1.535999775,1,0,1200,735,1,1199,tea,11140,2019-10-21_20h04.04.446,SurveyExpMetaMem,3.2.3,MacIntel,60
,,,,,,,,,,,,,,,,,,,,6,5.650999784,5,2.980999947,1,0,1200,129,1,1199,fly,11140,2019-10-21_20h04.04.446,SurveyExpMetaMem,3.2.3,MacIntel,60
,,,,,,,,,,,,,,,,,,,,4,5.894000053,5,1.070999861,1,0,1200,266,1,1199,juice,11140,2019-10-21_20h04.04.446,SurveyExpMetaMem,3.2.3,MacIntel,60
,,,,,,,,,,,,,,,,,,,,6,5.69299984,5,2.68599987,1,0,1200,1197,1,1199,command,11140,2019-10-21_20h04.04.446,SurveyExpMetaMem,3.2.3,MacIntel,60
,,,,,,,,,,,,,,,,,,,,7,2.585000038,7,0.996000051,1,0,1200,30,1,1199,impressed,11140,2019-10-21_20h04.04.446,SurveyExpMetaMem,3.2.3,MacIntel,60
,,,,,,,,,,,,,,,,,,,,5,2.879999876,5,0.501999855,1,0,1200,778,1,1199,adorn,11140,2019-10-21_20h04.04.446,SurveyExpMetaMem,3.2.3,MacIntel,60
,,,,,,,,,,,,,,,,,,,,4,3.086999893,5,1.437000036,1,0,1200,745,1,1199,inform,11140,2019-10-21_20h04.04.446,SurveyExpMetaMem,3.2.3,MacIntel,60
,,,,,,,,,,,,,,,,,,,,8,3.342000008,1,3.792000055,1,0,1200,523,1,1199,witch,11140,2019-10-21_20h04.04.446,SurveyExpMetaMem,3.2.3,MacIntel,60
,,,,,,,,,,,,,,,,,,,,7,3.299999952,7,0.68599987,1,0,1200,15,1,1199,curiosity,11140,2019-10-21_20h04.04.446,SurveyExpMetaMem,3.2.3,MacIntel,60
,,,,,,,,,,,,,,,,,,,,7,3.338999987,3,1.036000013,1,0,1200,1043,1,1199,scold,11140,2019-10-21_20h04.04.446,SurveyExpMetaMem,3.2.3,MacIntel,60
,,,,,,,,,,,,,,,,,,,,7,2.859999895,4,5.42599988,1,0,1200,419,1,1199,immature,11140,2019-10-21_20h04.04.446,SurveyExpMetaMem,3.2.3,MacIntel,60
,,,,,,,,,,,,,,,,,,,,7,3.591999769,3,2.054000139,1,0,1200,376,1,1199,incompetent,11140,2019-10-21_20h04.04.446,SurveyExpMetaMem,3.2.3,MacIntel,60
,,,,,,,,,,,,,,,,,,,,6,3.950000048,5,1.664000034,1,0,1200,234,1,1199,redeem,11140,2019-10-21_20h04.04.446,SurveyExpMetaMem,3.2.3,MacIntel,60
,,,,,,,,,,,,,,,,,,,,5,3.029999733,5,1.078999758,1,0,1200,625,1,1199,hat,11140,2019-10-21_20h04.04.446,SurveyExpMetaMem,3.2.3,MacIntel,60
,,,,,,,,,,,,,,,,,,,,4,3.15899992,8,1.674999952,1,0,1200,848,1,1199,graceful,11140,2019-10-21_20h04.04.446,SurveyExpMetaMem,3.2.3,MacIntel,60
,,,,,,,,,,,,,,,,,,,,7,2.993000031,7,0.986999989,1,0,1200,239,1,1199,compassionate,11140,2019-10-21_20h04.04.446,SurveyExpMetaMem,3.2.3,MacIntel,60
,,,,,,,,,,,,,,,,,,,,7,3.103000164,4,2.557999849,1,0,1200,992,1,1199,addict,11140,2019-10-21_20h04.04.446,SurveyExpMetaMem,3.2.3,MacIntel,60
,,,,,,,,,,,,,,,,,,,,7,2.927999973,3,2.450999975,1,0,1200,1110,1,1199,bastard,11140,2019-10-21_20h04.04.446,SurveyExpMetaMem,3.2.3,MacIntel,60
,,,,,,,,,,,,,,,,,,,,6,2.151000023,4,1.113999844,1,0,1200,383,1,1199,messy,11140,2019-10-21_20h04.04.446,SurveyExpMetaMem,3.2.3,MacIntel,60
,,,,,,,,,,,,,,,,,,,,5,6.215999842,5,0.436999798,1,0,1200,727,1,1199,author,11140,2019-10-21_20h04.04.446,SurveyExpMetaMem,3.2.3,MacIntel,60
,,,,,,,,,,,,,,,,,,,,4,3.251999855,7,1.606999874,1,0,1200,881,1,1199,protected,11140,2019-10-21_20h04.04.446,SurveyExpMetaMem,3.2.3,MacIntel,60
,,,,,,,,,,,,,,,,,,,,7,2.970000029,2,1.231999874,1,0,1200,1023,1,1199,disorder,11140,2019-10-21_20h04.04.446,SurveyExpMetaMem,3.2.3,MacIntel,60
,,,,,,,,,,,,,,,,,,,,7,3.70299983,3,0.555999994,1,0,1200,975,1,1199,insecure,11140,2019-10-21_20h04.04.446,SurveyExpMetaMem,3.2.3,MacIntel,60
,,,,,,,,,,,,,,,,,,,,5,7.536000013,5,0.368000031,1,0,1200,79,1,1199,dazzle,11140,2019-10-21_20h04.04.446,SurveyExpMetaMem,3.2.3,MacIntel,60
,,,,,,,,,,,,,,,,,,,,3,2.371000051,7,1.743999958,1,0,1200,811,1,1199,tenderness,11140,2019-10-21_20h04.04.446,SurveyExpMetaMem,3.2.3,MacIntel,60
,,,,,,,,,,,,,,,,,,,,5,10.09799981,5,0.342999935,1,0,1200,639,1,1199,outlet,11140,2019-10-21_20h04.04.446,SurveyExpMetaMem,3.2.3,MacIntel,60
,,,,,,,,,,,,,,,,,,,,4,4.161000013,6,1.270999908,1,0,1200,782,1,1199,open,11140,2019-10-21_20h04.04.446,SurveyExpMetaMem,3.2.3,MacIntel,60
,,,,,,,,,,,,,,,,,,,,7,2.257999897,3,2.463000059,1,0,1200,962,1,1199,poisonous,11140,2019-10-21_20h04.04.446,SurveyExpMetaMem,3.2.3,MacIntel,60
,,,,,,,,,,,,,,,,,,,,4,3.855999947,4,1.00999999,1,0,1200,438,1,1199,dull,11140,2019-10-21_20h04.04.446,SurveyExpMetaMem,3.2.3,MacIntel,60
,,,,,,,,,,,,,,,,,,,,5,2.097000122,4,1.859999895,1,0,1200,395,1,1199,lack,11140,2019-10-21_20h04.04.446,SurveyExpMetaMem,3.2.3,MacIntel,60
,,,,,,,,,,,,,,,,,,,,5,1.496000051,5,0.353999853,1,0,1200,437,1,1199,blubber,11140,2019-10-21_20h04.04.446,SurveyExpMetaMem,3.2.3,MacIntel,60
,,,,,,,,,,,,,,,,,,,,4,4.139999866,5,2.237999916,1,0,1200,781,1,1199,emerald,11140,2019-10-21_20h04.04.446,SurveyExpMetaMem,3.2.3,MacIntel,60
,,,,,,,,,,,,,,,,,,,,5,1.457999945,5,0.361999989,1,0,1200,532,1,1199,recede,11140,2019-10-21_20h04.04.446,SurveyExpMetaMem,3.2.3,MacIntel,60
,,,,,,,,,,,,,,,,,,,,8,2.211999893,8,1.79399991,1,0,1200,298,1,1199,success,11140,2019-10-21_20h04.04.446,SurveyExpMetaMem,3.2.3,MacIntel,60
,,,,,,,,,,,,,,,,,,,,7,4.950999975,7,2.411000013,1,0,1200,122,1,1199,prince,11140,2019-10-21_20h04.04.446,SurveyExpMetaMem,3.2.3,MacIntel,60
,,,,,,,,,,,,,,,,,,,,4,4.138000011,6,1.34499979,1,0,1200,689,1,1199,land,11140,2019-10-21_20h04.04.446,SurveyExpMetaMem,3.2.3,MacIntel,60
,,,,,,,,,,,,,,,,,,,,7,2.904000044,7,1.109999895,1,0,1200,47,1,1199,enjoy,11140,2019-10-21_20h04.04.446,SurveyExpMetaMem,3.2.3,MacIntel,60
,,,,,,,,,,,,,,,,,,,,8,3.453000069,2,1.306999922,1,0,1200,1163,1,1199,python,11140,2019-10-21_20h04.04.446,SurveyExpMetaMem,3.2.3,MacIntel,60
,,,,,,,,,,,,,,,,,,,,7,3.898000002,4,6.828000069,1,0,1200,126,1,1199,rich,11140,2019-10-21_20h04.04.446,SurveyExpMetaMem,3.2.3,MacIntel,60
,,,,,,,,,,,,,,,,,,,,4,3.642999887,5,1.818000078,1,0,1200,578,1,1199,govern,11140,2019-10-21_20h04.04.446,SurveyExpMetaMem,3.2.3,MacIntel,60
,,,,,,,,,,,,,,,,,,,,9,3.86500001,1,0.819999933,1,0,1200,303,1,1199,death,11140,2019-10-21_20h04.04.446,SurveyExpMetaMem,3.2.3,MacIntel,60
,,,,,,,,,,,,,,,,,,,,7,5.201999903,7,1.26699996,1,0,1200,168,1,1199,mate,11140,2019-10-21_20h04.04.446,SurveyExpMetaMem,3.2.3,MacIntel,60
,,,,,,,,,,,,,,,,,,,,7,8.381999969,7,1.436999798,1,0,1200,146,1,1199,congratulations,11140,2019-10-21_20h04.04.446,SurveyExpMetaMem,3.2.3,MacIntel,60
,,,,,,,,,,,,,,,,,,,,5,5.015000105,5,3.162999868,1,0,1200,623,1,1199,suburban,11140,2019-10-21_20h04.04.446,SurveyExpMetaMem,3.2.3,MacIntel,60
,,,,,,,,,,,,,,,,,,,,5,1.444000006,5,0.397999763,1,0,1200,1118,1,1199,frantic,11140,2019-10-21_20h04.04.446,SurveyExpMetaMem,3.2.3,MacIntel,60
,,,,,,,,,,,,,,,,,,,,5,1.993999958,5,0.383000135,1,0,1200,617,1,1199,tomato,11140,2019-10-21_20h04.04.446,SurveyExpMetaMem,3.2.3,MacIntel,60
,,,,,,,,,,,,,,,,,,,,5,2.069000006,5,0.303999901,1,0,1200,472,1,1199,bald,11140,2019-10-21_20h04.04.446,SurveyExpMetaMem,3.2.3,MacIntel,60
,,,,,,,,,,,,,,,,,,,,6,4.467000008,4,1.316999912,1,0,1200,1094,1,1199,disruptive,11140,2019-10-21_20h04.04.446,SurveyExpMetaMem,3.2.3,MacIntel,60
,,,,,,,,,,,,,,,,,,,,8,2.50999999,3,1.74000001,1,0,1200,1175,1,1199,prostitute,11140,2019-10-21_20h04.04.446,SurveyExpMetaMem,3.2.3,MacIntel,60
,,,,,,,,,,,,,,,,,,,,8,3.622999907,2,1.508000135,1,0,1200,1048,1,1199,paranoid,11140,2019-10-21_20h04.04.446,SurveyExpMetaMem,3.2.3,MacIntel,60
,,,,,,,,,,,,,,,,,,,,7,2.62899971,3,1.062000036,1,0,1200,371,1,1199,weakness,11140,2019-10-21_20h04.04.446,SurveyExpMetaMem,3.2.3,MacIntel,60
,,,,,,,,,,,,,,,,,,,,4,3.394000053,6,1.363999844,1,0,1200,697,1,1199,clarinet,11140,2019-10-21_20h04.04.446,SurveyExpMetaMem,3.2.3,MacIntel,60
,,,,,,,,,,,,,,,,,,,,7,3.052000046,5,4.878999949,1,0,1200,550,1,1199,fart,11140,2019-10-21_20h04.04.446,SurveyExpMetaMem,3.2.3,MacIntel,60
,,,,,,,,,,,,,,,,,,,,7,8.974999905,3,1.375999928,1,0,1200,424,1,1199,fault,11140,2019-10-21_20h04.04.446,SurveyExpMetaMem,3.2.3,MacIntel,60
,,,,,,,,,,,,,,,,,,,,7,1.968999863,3,0.644000053,1,0,1200,1050,1,1199,scorn,11140,2019-10-21_20h04.04.446,SurveyExpMetaMem,3.2.3,MacIntel,60
,,,,,,,,,,,,,,,,,,,,5,3.586999893,3,0.005000114,1,0,1200,730,1,1199,slogan,11140,2019-10-21_20h04.04.446,SurveyExpMetaMem,3.2.3,MacIntel,60
,,,,,,,,,,,,,,,,,,,,7,14.63199973,4,2.440999985,1,0,1200,32,1,1199,festival,11140,2019-10-21_20h04.04.446,SurveyExpMetaMem,3.2.3,MacIntel,60
,,,,,,,,,,,,,,,,,,,,7,6.863999844,3,0.671000004,1,0,1200,326,1,1199,scam,11140,2019-10-21_20h04.04.446,SurveyExpMetaMem,3.2.3,MacIntel,60
,,,,,,,,,,,,,,,,,,,,4,4.511999846,5,4.195999861,1,0,1200,89,1,1199,cruiseship,11140,2019-10-21_20h04.04.446,SurveyExpMetaMem,3.2.3,MacIntel,60
,,,,,,,,,,,,,,,,,,,,5,2.879999876,5,0.450999975,1,0,1200,503,1,1199,sludge,11140,2019-10-21_20h04.04.446,SurveyExpMetaMem,3.2.3,MacIntel,60
,,,,,,,,,,,,,,,,,,,,7,6.468999863,7,2.145999908,1,0,1200,1196,1,1199,breathless,11140,2019-10-21_20h04.04.446,SurveyExpMetaMem,3.2.3,MacIntel,60
,,,,,,,,,,,,,,,,,,,,2,5.371999979,6,2.41899991,1,0,1200,773,1,1199,rational,11140,2019-10-21_20h04.04.446,SurveyExpMetaMem,3.2.3,MacIntel,60
,,,,,,,,,,,,,,,,,,,,7,12.27699995,3,1.061999798,1,0,1200,1157,1,1199,slayer,11140,2019-10-21_20h04.04.446,SurveyExpMetaMem,3.2.3,MacIntel,60
,,,,,,,,,,,,,,,,,,,,5,2.3349998,5,0.356999874,1,0,1200,941,1,1199,leprosy,11140,2019-10-21_20h04.04.446,SurveyExpMetaMem,3.2.3,MacIntel,60
,,,,,,,,,,,,,,,,,,,,8,2.59499979,8,0.607999802,1,0,1200,240,1,1199,giggles,11140,2019-10-21_20h04.04.446,SurveyExpMetaMem,3.2.3,MacIntel,60
,,,,,,,,,,,,,,,,,,,,8,2.246999741,8,1.677999973,1,0,1200,275,1,1199,brilliant,11140,2019-10-21_20h04.04.446,SurveyExpMetaMem,3.2.3,MacIntel,60
,,,,,,,,,,,,,,,,,,,,8,2.042999983,2,1.010999918,1,0,1200,304,1,1199,depression,11140,2019-10-21_20h04.04.446,SurveyExpMetaMem,3.2.3,MacIntel,60
,,,,,,,,,,,,,,,,,,,,5,1.470000029,5,0.336999893,1,0,1200,471,1,1199,chump,11140,2019-10-21_20h04.04.446,SurveyExpMetaMem,3.2.3,MacIntel,60
,,,,,,,,,,,,,,,,,,,,7,5.285999775,3,1.4599998,1,0,1200,473,1,1199,senseless,11140,2019-10-21_20h04.04.446,SurveyExpMetaMem,3.2.3,MacIntel,60
,,,,,,,,,,,,,,,,,,,,7,1.590999842,3,0.68599987,1,0,1200,345,1,1199,unfortunate,11140,2019-10-21_20h04.04.446,SurveyExpMetaMem,3.2.3,MacIntel,60
,,,,,,,,,,,,,,,,,,,,3,14.81699991,7,1.135999918,1,0,1200,609,1,1199,candlestick,11140,2019-10-21_20h04.04.446,SurveyExpMetaMem,3.2.3,MacIntel,60
,,,,,,,,,,,,,,,,,,,,8,2.261999846,2,0.937999964,1,0,1200,1171,1,1199,chaos,11140,2019-10-21_20h04.04.446,SurveyExpMetaMem,3.2.3,MacIntel,60
,,,,,,,,,,,,,,,,,,,,8,2.152999878,7,4.286999941,1,0,1200,1,1,1199,fuck,11140,2019-10-21_20h04.04.446,SurveyExpMetaMem,3.2.3,MacIntel,60
,,,,,,,,,,,,,,,,,,,,4,7.43599987,6,1.802000046,1,0,1200,768,1,1199,trait,11140,2019-10-21_20h04.04.446,SurveyExpMetaMem,3.2.3,MacIntel,60
,,,,,,,,,,,,,,,,,,,,3,3.931999922,7,1.135999918,1,0,1200,892,1,1199,untroubled,11140,2019-10-21_20h04.04.446,SurveyExpMetaMem,3.2.3,MacIntel,60
,,,,,,,,,,,,,,,,,,,,5,4.335999966,6,3.253999949,1,0,1200,493,1,1199,little,11140,2019-10-21_20h04.04.446,SurveyExpMetaMem,3.2.3,MacIntel,60
,,,,,,,,,,,,,,,,,,,,7,3.388000011,3,1.269999981,1,0,1200,1184,1,1199,reckless,11140,2019-10-21_20h04.04.446,SurveyExpMetaMem,3.2.3,MacIntel,60
,,,,,,,,,,,,,,,,,,,,5,2.036000013,5,0.400000095,1,0,1200,807,1,1199,person,11140,2019-10-21_20h04.04.446,SurveyExpMetaMem,3.2.3,MacIntel,60
,,,,,,,,,,,,,,,,,,,,7,2.792000055,4,1.095999956,1,0,1200,1122,1,1199,gossip,11140,2019-10-21_20h04.04.446,SurveyExpMetaMem,3.2.3,MacIntel,60
,,,,,,,,,,,,,,,,,,,,5,2.720000029,5,1.146999836,1,0,1200,519,1,1199,listless,11140,2019-10-21_20h04.04.446,SurveyExpMetaMem,3.2.3,MacIntel,60
,,,,,,,,,,,,,,,,,,,,5,2.218999863,5,0.736999989,1,0,1200,508,1,1199,haphazard,11140,2019-10-21_20h04.04.446,SurveyExpMetaMem,3.2.3,MacIntel,60
,,,,,,,,,,,,,,,,,,,,8,3.763999939,6,2.004999876,1,0,1200,10,1,1199,cheerleader,11140,2019-10-21_20h04.04.446,SurveyExpMetaMem,3.2.3,MacIntel,60
,,,,,,,,,,,,,,,,,,,,5,7.347000122,5,0.510999918,1,0,1200,620,1,1199,spray,11140,2019-10-21_20h04.04.446,SurveyExpMetaMem,3.2.3,MacIntel,60
,,,,,,,,,,,,,,,,,,,,8,2.119999886,8,0.605999947,1,0,1200,164,1,1199,marry,11140,2019-10-21_20h04.04.446,SurveyExpMetaMem,3.2.3,MacIntel,60
,,,,,,,,,,,,,,,,,,,,9,1.74000001,8,2.259999752,1,0,1200,244,1,1199,sexy,11140,2019-10-21_20h04.04.446,SurveyExpMetaMem,3.2.3,MacIntel,60
,,,,,,,,,,,,,,,,,,,,3,8.65899992,7,1.799999714,1,0,1200,227,1,1199,musician,11140,2019-10-21_20h04.04.446,SurveyExpMetaMem,3.2.3,MacIntel,60
,,,,,,,,,,,,,,,,,,,,5,4.007999897,5,0.937999964,1,0,1200,688,1,1199,jelly,11140,2019-10-21_20h04.04.446,SurveyExpMetaMem,3.2.3,MacIntel,60
,,,,,,,,,,,,,,,,,,,,5,2.079999924,5,0.405999899,1,0,1200,415,1,1199,grime,11140,2019-10-21_20h04.04.446,SurveyExpMetaMem,3.2.3,MacIntel,60
,,,,,,,,,,,,,,,,,,,,7,2.305999994,7,1.251999855,1,0,1200,207,1,1199,erect,11140,2019-10-21_20h04.04.446,SurveyExpMetaMem,3.2.3,MacIntel,60
,,,,,,,,,,,,,,,,,,,,7,1.900999784,3,0.885999918,1,0,1200,328,1,1199,disgrace,11140,2019-10-21_20h04.04.446,SurveyExpMetaMem,3.2.3,MacIntel,60
,,,,,,,,,,,,,,,,,,,,7,4.866999865,7,2.218999863,1,0,1200,425,1,1199,crutch,11140,2019-10-21_20h04.04.446,SurveyExpMetaMem,3.2.3,MacIntel,60
,,,,,,,,,,,,,,,,,,,,5,10.72599983,5,0.378000021,1,0,1200,554,1,1199,label,11140,2019-10-21_20h04.04.446,SurveyExpMetaMem,3.2.3,MacIntel,60
,,,,,,,,,,,,,,,,,,,,5,2.45299983,5,0.263000011,1,0,1200,633,1,1199,cattle,11140,2019-10-21_20h04.04.446,SurveyExpMetaMem,3.2.3,MacIntel,60
,,,,,,,,,,,,,,,,,,,,5,3.186999798,5,0.322999954,1,0,1200,743,1,1199,herbal,11140,2019-10-21_20h04.04.446,SurveyExpMetaMem,3.2.3,MacIntel,60
,,,,,,,,,,,,,,,,,,,,5,2.415999889,5,0.4599998,1,0,1200,685,1,1199,makeup,11140,2019-10-21_20h04.04.446,SurveyExpMetaMem,3.2.3,MacIntel,60
,,,,,,,,,,,,,,,,,,,,5,2.970000029,5,0.347000122,1,0,1200,543,1,1199,gloat,11140,2019-10-21_20h04.04.446,SurveyExpMetaMem,3.2.3,MacIntel,60
,,,,,,,,,,,,,,,,,,,,5,3.750999928,5,1.059000015,1,0,1200,84,1,1199,eat,11140,2019-10-21_20h04.04.446,SurveyExpMetaMem,3.2.3,MacIntel,60
,,,,,,,,,,,,,,,,,,,,6,3.023999929,4,0.643000126,1,0,1200,279,1,1199,bargain,11140,2019-10-21_20h04.04.446,SurveyExpMetaMem,3.2.3,MacIntel,60
,,,,,,,,,,,,,,,,,,,,6,5.434999943,6,3.71999979,1,0,1200,713,1,1199,mobile,11140,2019-10-21_20h04.04.446,SurveyExpMetaMem,3.2.3,MacIntel,60
,,,,,,,,,,,,,,,,,,,,5,3.008999825,5,0.41899991,1,0,1200,603,1,1199,mane,11140,2019-10-21_20h04.04.446,SurveyExpMetaMem,3.2.3,MacIntel,60
,,,,,,,,,,,,,,,,,,,,8,1.542999983,2,0.464999914,1,0,1200,1051,1,1199,insane,11140,2019-10-21_20h04.04.446,SurveyExpMetaMem,3.2.3,MacIntel,60
,,,,,,,,,,,,,,,,,,,,3,8.835999966,5,1.919999838,1,0,1200,527,1,1199,passive,11140,2019-10-21_20h04.04.446,SurveyExpMetaMem,3.2.3,MacIntel,60
,,,,,,,,,,,,,,,,,,,,8,3.167999744,2,0.628999949,1,0,1200,924,1,1199,terrible,11140,2019-10-21_20h04.04.446,SurveyExpMetaMem,3.2.3,MacIntel,60
,,,,,,,,,,,,,,,,,,,,5,3.464999914,5,0.378999949,1,0,1200,351,1,1199,germs,11140,2019-10-21_20h04.04.446,SurveyExpMetaMem,3.2.3,MacIntel,60
,,,,,,,,,,,,,,,,,,,,3,2.802000046,7,1.145999908,1,0,1200,890,1,1199,carefree,11140,2019-10-21_20h04.04.446,SurveyExpMetaMem,3.2.3,MacIntel,60
,,,,,,,,,,,,,,,,,,,,6,7.493999958,4,0.825000048,1,0,1200,535,1,1199,ramble,11140,2019-10-21_20h04.04.446,SurveyExpMetaMem,3.2.3,MacIntel,60
,,,,,,,,,,,,,,,,,,,,7,2.492999792,3,0.869999886,1,0,1200,462,1,1199,shallow,11140,2019-10-21_20h04.04.446,SurveyExpMetaMem,3.2.3,MacIntel,60
,,,,,,,,,,,,,,,,,,,,4,3.909999847,5,1.984999895,1,0,1200,565,1,1199,frozen,11140,2019-10-21_20h04.04.446,SurveyExpMetaMem,3.2.3,MacIntel,60
,,,,,,,,,,,,,,,,,,,,8,1.940999985,2,0.513999939,1,0,1200,1038,1,1199,pervert,11140,2019-10-21_20h04.04.446,SurveyExpMetaMem,3.2.3,MacIntel,60
,,,,,,,,,,,,,,,,,,,,7,5.371999979,3,0.947999954,1,0,1200,1164,1,1199,battle,11140,2019-10-21_20h04.04.446,SurveyExpMetaMem,3.2.3,MacIntel,60
,,,,,,,,,,,,,,,,,,,,4,2.631999969,6,1.749000072,1,0,1200,48,1,1199,excellence,11140,2019-10-21_20h04.04.446,SurveyExpMetaMem,3.2.3,MacIntel,60
,,,,,,,,,,,,,,,,,,,,7,1.846999884,5,3.814999819,1,0,1200,1198,1,1199,lightning,11140,2019-10-21_20h04.04.446,SurveyExpMetaMem,3.2.3,MacIntel,60
,,,,,,,,,,,,,,,,,,,,7,7.143999815,7,0.547999859,1,0,1200,299,1,1199,champion,11140,2019-10-21_20h04.04.446,SurveyExpMetaMem,3.2.3,MacIntel,60
,,,,,,,,,,,,,,,,,,,,5,1.701999903,5,0.393000126,1,0,1200,747,1,1199,furniture,11140,2019-10-21_20h04.04.446,SurveyExpMetaMem,3.2.3,MacIntel,60
,,,,,,,,,,,,,,,,,,,,7,7.287999868,4,1.052999973,1,0,1200,1079,1,1199,critic,11140,2019-10-21_20h04.04.446,SurveyExpMetaMem,3.2.3,MacIntel,60
,,,,,,,,,,,,,,,,,,,,3,1.896999836,6,1.957999945,1,0,1200,705,1,1199,tolerant,11140,2019-10-21_20h04.04.446,SurveyExpMetaMem,3.2.3,MacIntel,60
,,,,,,,,,,,,,,,,,,,,5,7.538000107,4,0.497999907,1,0,1200,575,1,1199,paragraph,11140,2019-10-21_20h04.04.446,SurveyExpMetaMem,3.2.3,MacIntel,60
,,,,,,,,,,,,,,,,,,,,7,2.54399991,4,1.073999882,1,0,1200,5,1,1199,drunk,11140,2019-10-21_20h04.04.446,SurveyExpMetaMem,3.2.3,MacIntel,60
,,,,,,,,,,,,,,,,,,,,4,4.13499999,5,1.241999865,1,0,1200,798,1,1199,crystal,11140,2019-10-21_20h04.04.446,SurveyExpMetaMem,3.2.3,MacIntel,60
,,,,,,,,,,,,,,,,,,,,3,2.753999949,7,1.002999783,1,0,1200,774,1,1199,leaves,11140,2019-10-21_20h04.04.446,SurveyExpMetaMem,3.2.3,MacIntel,60
,,,,,,,,,,,,,,,,,,,,7,3.436999798,3,0.909000158,1,0,1200,1062,1,1199,shoplifter,11140,2019-10-21_20h04.04.446,SurveyExpMetaMem,3.2.3,MacIntel,60
,,,,,,,,,,,,,,,,,,,,8,5.324999809,2,0.36500001,1,0,1200,917,1,1199,slave,11140,2019-10-21_20h04.04.446,SurveyExpMetaMem,3.2.3,MacIntel,60
,,,,,,,,,,,,,,,,,,,,3,4.204999924,7,1.934999943,1,0,1200,827,1,1199,saint,11140,2019-10-21_20h04.04.446,SurveyExpMetaMem,3.2.3,MacIntel,60
,,,,,,,,,,,,,,,,,,,,8,2.346999884,2,0.338999748,1,0,1200,439,1,1199,spit,11140,2019-10-21_20h04.04.446,SurveyExpMetaMem,3.2.3,MacIntel,60
,,,,,,,,,,,,,,,,,,,,4,3.329999924,4,2.104999781,1,0,1200,385,1,1199,tiresome,11140,2019-10-21_20h04.04.446,SurveyExpMetaMem,3.2.3,MacIntel,60
,,,,,,,,,,,,,,,,,,,,4,5.879999876,7,1.135999918,1,0,1200,272,1,1199,confidence,11140,2019-10-21_20h04.04.446,SurveyExpMetaMem,3.2.3,MacIntel,60
,,,,,,,,,,,,,,,,,,,,5,2.93599987,5,0.870999813,1,0,1200,394,1,1199,dump,11140,2019-10-21_20h04.04.446,SurveyExpMetaMem,3.2.3,MacIntel,60
,,,,,,,,,,,,,,,,,,,,8,1.751999855,8,2.184999943,1,0,1200,97,1,1199,enthusiastic,11140,2019-10-21_20h04.04.446,SurveyExpMetaMem,3.2.3,MacIntel,60
,,,,,,,,,,,,,,,,,,,,5,4.387000084,5,0.909999847,1,0,1200,1195,1,1199,speech,11140,2019-10-21_20h04.04.446,SurveyExpMetaMem,3.2.3,MacIntel,60
,,,,,,,,,,,,,,,,,,,,4,3.677000046,7,1.996999979,1,0,1200,294,1,1199,confident,11140,2019-10-21_20h04.04.446,SurveyExpMetaMem,3.2.3,MacIntel,60
,,,,,,,,,,,,,,,,,,,,7,4.015000105,7,0.671000004,1,0,1200,292,1,1199,birthday,11140,2019-10-21_20h04.04.446,SurveyExpMetaMem,3.2.3,MacIntel,60
,,,,,,,,,,,,,,,,,,,,8,1.772000074,8,0.598999977,1,0,1200,99,1,1199,funny,11140,2019-10-21_20h04.04.446,SurveyExpMetaMem,3.2.3,MacIntel,60
,,,,,,,,,,,,,,,,,,,,5,3.370999813,3,0.887000084,1,0,1200,343,1,1199,fever,11140,2019-10-21_20h04.04.446,SurveyExpMetaMem,3.2.3,MacIntel,60
,,,,,,,,,,,,,,,,,,,,6,4.551999807,3,0.864000082,1,0,1200,449,1,1199,egotistical,11140,2019-10-21_20h04.04.446,SurveyExpMetaMem,3.2.3,MacIntel,60
,,,,,,,,,,,,,,,,,,,,7,4.545000076,7,0.858999968,1,0,1200,11,1,1199,astonished,11140,2019-10-21_20h04.04.446,SurveyExpMetaMem,3.2.3,MacIntel,60
,,,,,,,,,,,,,,,,,,,,5,1.571000099,5,0.270999908,1,0,1200,608,1,1199,carrot,11140,2019-10-21_20h04.04.446,SurveyExpMetaMem,3.2.3,MacIntel,60
,,,,,,,,,,,,,,,,,,,,5,5.72699976,3,1.044999838,1,0,1200,984,1,1199,despairing,11140,2019-10-21_20h04.04.446,SurveyExpMetaMem,3.2.3,MacIntel,60
,,,,,,,,,,,,,,,,,,,,7,1.661000013,3,0.305999994,1,0,1200,987,1,1199,disgusted,11140,2019-10-21_20h04.04.446,SurveyExpMetaMem,3.2.3,MacIntel,60
,,,,,,,,,,,,,,,,,,,,4,2.038999796,4,1.021999836,1,0,1200,416,1,1199,boring,11140,2019-10-21_20h04.04.446,SurveyExpMetaMem,3.2.3,MacIntel,60
,,,,,,,,,,,,,,,,,,,,7,1.920000076,7,0.465999842,1,0,1200,855,1,1199,girl,11140,2019-10-21_20h04.04.446,SurveyExpMetaMem,3.2.3,MacIntel,60
,,,,,,,,,,,,,,,,,,,,6,11.28199983,6,1.146999836,1,0,1200,88,1,1199,ambitious,11140,2019-10-21_20h04.04.446,SurveyExpMetaMem,3.2.3,MacIntel,60
,,,,,,,,,,,,,,,,,,,,7,2.50999999,5,1.423999786,1,0,1200,1193,1,1199,damn,11140,2019-10-21_20h04.04.446,SurveyExpMetaMem,3.2.3,MacIntel,60
,,,,,,,,,,,,,,,,,,,,5,4.470999956,5,0.836999893,1,0,1200,858,1,1199,donate,11140,2019-10-21_20h04.04.446,SurveyExpMetaMem,3.2.3,MacIntel,60
,,,,,,,,,,,,,,,,,,,,7,1.956999779,3,0.277999878,1,0,1200,902,1,1199,rejected,11140,2019-10-21_20h04.04.446,SurveyExpMetaMem,3.2.3,MacIntel,60
,,,,,,,,,,,,,,,,,,,,4,2.389999866,6,1.504999876,1,0,1200,37,1,1199,magnificence,11140,2019-10-21_20h04.04.446,SurveyExpMetaMem,3.2.3,MacIntel,60
,,,,,,,,,,,,,,,,,,,,6,3.305999756,6,1.184000015,1,0,1200,645,1,1199,telescope,11140,2019-10-21_20h04.04.446,SurveyExpMetaMem,3.2.3,MacIntel,60
,,,,,,,,,,,,,,,,,,,,6,4.927000046,4,0.229999781,1,0,1200,453,1,1199,prude,11140,2019-10-21_20h04.04.446,SurveyExpMetaMem,3.2.3,MacIntel,60
,,,,,,,,,,,,,,,,,,,,7,2.606999874,4,0.733999729,1,0,1200,1167,1,1199,bribe,11140,2019-10-21_20h04.04.446,SurveyExpMetaMem,3.2.3,MacIntel,60
,,,,,,,,,,,,,,,,,,,,6,5.093999863,4,3.137999773,1,0,1200,1166,1,1199,compulsive,11140,2019-10-21_20h04.04.446,SurveyExpMetaMem,3.2.3,MacIntel,60
,,,,,,,,,,,,,,,,,,,,7,2.921999931,3,0.40199995,1,0,1200,382,1,1199,vulnerable,11140,2019-10-21_20h04.04.446,SurveyExpMetaMem,3.2.3,MacIntel,60
,,,,,,,,,,,,,,,,,,,,5,3.799999952,5,2.271999836,1,0,1200,771,1,1199,practical,11140,2019-10-21_20h04.04.446,SurveyExpMetaMem,3.2.3,MacIntel,60
,,,,,,,,,,,,,,,,,,,,7,2.751999855,3,0.27699995,1,0,1200,908,1,1199,suffer,11140,2019-10-21_20h04.04.446,SurveyExpMetaMem,3.2.3,MacIntel,60
,,,,,,,,,,,,,,,,,,,,7,2.042000055,3,0.288999796,1,0,1200,951,1,1199,castrate,11140,2019-10-21_20h04.04.446,SurveyExpMetaMem,3.2.3,MacIntel,60
,,,,,,,,,,,,,,,,,,,,3,2.851999998,6,0.835999966,1,0,1200,824,1,1199,favor,11140,2019-10-21_20h04.04.446,SurveyExpMetaMem,3.2.3,MacIntel,60
,,,,,,,,,,,,,,,,,,,,5,4.377999783,6,1.826999903,1,0,1200,288,1,1199,tasty,11140,2019-10-21_20h04.04.446,SurveyExpMetaMem,3.2.3,MacIntel,60
,,,,,,,,,,,,,,,,,,,,7,15.91000009,3,1.993999958,1,0,1200,964,1,1199,grieve,11140,2019-10-21_20h04.04.446,SurveyExpMetaMem,3.2.3,MacIntel,60
,,,,,,,,,,,,,,,,,,,,6,2.70299983,3,0.585000038,1,0,1200,635,1,1199,sensitive,11140,2019-10-21_20h04.04.446,SurveyExpMetaMem,3.2.3,MacIntel,60
,,,,,,,,,,,,,,,,,,,,5,2.976000071,4,1.555000067,1,0,1200,701,1,1199,telephone,11140,2019-10-21_20h04.04.446,SurveyExpMetaMem,3.2.3,MacIntel,60
,,,,,,,,,,,,,,,,,,,,7,4.740999937,3,0.921999931,1,0,1200,1030,1,1199,offend,11140,2019-10-21_20h04.04.446,SurveyExpMetaMem,3.2.3,MacIntel,60
,,,,,,,,,,,,,,,,,,,,8,2.437000036,8,0.82799983,1,0,1200,81,1,1199,best,11140,2019-10-21_20h04.04.446,SurveyExpMetaMem,3.2.3,MacIntel,60
,,,,,,,,,,,,,,,,,,,,6,6.313999891,6,0.831999779,1,0,1200,555,1,1199,school,11140,2019-10-21_20h04.04.446,SurveyExpMetaMem,3.2.3,MacIntel,60
,,,,,,,,,,,,,,,,,,,,3,8.644999981,7,1.194000006,1,0,1200,802,1,1199,familiar,11140,2019-10-21_20h04.04.446,SurveyExpMetaMem,3.2.3,MacIntel,60
,,,,,,,,,,,,,,,,,,,,4,4.616999865,6,0.376999855,1,0,1200,218,1,1199,charming,11140,2019-10-21_20h04.04.446,SurveyExpMetaMem,3.2.3,MacIntel,60
,,,,,,,,,,,,,,,,,,,,5,3.012000084,5,0.286000013,1,0,1200,34,1,1199,personality,11140,2019-10-21_20h04.04.446,SurveyExpMetaMem,3.2.3,MacIntel,60
,,,,,,,,,,,,,,,,,,,,7,3.386999846,3,0.204999924,1,0,1200,311,1,1199,discomfort,11140,2019-10-21_20h04.04.446,SurveyExpMetaMem,3.2.3,MacIntel,60
,,,,,,,,,,,,,,,,,,,,8,5.432999849,8,0.350999832,1,0,1200,242,1,1199,triumph,11140,2019-10-21_20h04.04.446,SurveyExpMetaMem,3.2.3,MacIntel,60
,,,,,,,,,,,,,,,,,,,,6,4.31799984,6,1.150999784,1,0,1200,644,1,1199,farm,11140,2019-10-21_20h04.04.446,SurveyExpMetaMem,3.2.3,MacIntel,60
,,,,,,,,,,,,,,,,,,,,5,4.037999868,5,0.226999998,1,0,1200,393,1,1199,droop,11140,2019-10-21_20h04.04.446,SurveyExpMetaMem,3.2.3,MacIntel,60
,,,,,,,,,,,,,,,,,,,,8,1.671999931,2,0.741999865,1,0,1200,1115,1,1199,invade,11140,2019-10-21_20h04.04.446,SurveyExpMetaMem,3.2.3,MacIntel,60
,,,,,,,,,,,,,,,,,,,,7,4.055000067,7,0.328999758,1,0,1200,191,1,1199,compassion,11140,2019-10-21_20h04.04.446,SurveyExpMetaMem,3.2.3,MacIntel,60
,,,,,,,,,,,,,,,,,,,,7,3.507999897,3,0.592000008,1,0,1200,1192,1,1199,startled,11140,2019-10-21_20h04.04.446,SurveyExpMetaMem,3.2.3,MacIntel,60
,,,,,,,,,,,,,,,,,,,,7,2.122999907,3,1.394000053,1,0,1200,1078,1,1199,trouble,11140,2019-10-21_20h04.04.446,SurveyExpMetaMem,3.2.3,MacIntel,60
,,,,,,,,,,,,,,,,,,,,7,2.819999933,7,0.535999775,1,0,1200,25,1,1199,charisma,11140,2019-10-21_20h04.04.446,SurveyExpMetaMem,3.2.3,MacIntel,60
,,,,,,,,,,,,,,,,,,,,7,2.288999796,3,0.595000029,1,0,1200,1185,1,1199,shotgun,11140,2019-10-21_20h04.04.446,SurveyExpMetaMem,3.2.3,MacIntel,60
,,,,,,,,,,,,,,,,,,,,3,4.876999855,7,0.983999968,1,0,1200,93,1,1199,smiling,11140,2019-10-21_20h04.04.446,SurveyExpMetaMem,3.2.3,MacIntel,60
,,,,,,,,,,,,,,,,,,,,3,1.74000001,7,0.582000017,1,0,1200,732,1,1199,humble,11140,2019-10-21_20h04.04.446,SurveyExpMetaMem,3.2.3,MacIntel,60
,,,,,,,,,,,,,,,,,,,,3,1.677000046,7,0.637999773,1,0,1200,883,1,1199,sky,11140,2019-10-21_20h04.04.446,SurveyExpMetaMem,3.2.3,MacIntel,60
,,,,,,,,,,,,,,,,,,,,3,4.385999918,6,0.263999939,1,0,1200,789,1,1199,green,11140,2019-10-21_20h04.04.446,SurveyExpMetaMem,3.2.3,MacIntel,60
,,,,,,,,,,,,,,,,,,,,6,3.763999939,4,1.105000019,1,0,1200,1119,1,1199,confusion,11140,2019-10-21_20h04.04.446,SurveyExpMetaMem,3.2.3,MacIntel,60
,,,,,,,,,,,,,,,,,,,,4,2.019999981,6,0.921000004,1,0,1200,810,1,1199,polite,11140,2019-10-21_20h04.04.446,SurveyExpMetaMem,3.2.3,MacIntel,60
,,,,,,,,,,,,,,,,,,,,5,4.680999994,5,0.374000072,1,0,1200,632,1,1199,avenue,11140,2019-10-21_20h04.04.446,SurveyExpMetaMem,3.2.3,MacIntel,60
,,,,,,,,,,,,,,,,,,,,5,3.346999884,5,0.269000053,1,0,1200,339,1,1199,chore,11140,2019-10-21_20h04.04.446,SurveyExpMetaMem,3.2.3,MacIntel,60
,,,,,,,,,,,,,,,,,,,,4,2.035000086,6,0.4599998,1,0,1200,876,1,1199,politeness,11140,2019-10-21_20h04.04.446,SurveyExpMetaMem,3.2.3,MacIntel,60
,,,,,,,,,,,,,,,,,,,,5,2.65899992,5,0.273000002,1,0,1200,1091,1,1199,cram,11140,2019-10-21_20h04.04.446,SurveyExpMetaMem,3.2.3,MacIntel,60
,,,,,,,,,,,,,,,,,,,,5,1.695999861,5,0.203999996,1,0,1200,693,1,1199,key,11140,2019-10-21_20h04.04.446,SurveyExpMetaMem,3.2.3,MacIntel,60
,,,,,,,,,,,,,,,,,,,,8,1.608999968,2,0.346999884,1,0,1200,1132,1,1199,anarchy,11140,2019-10-21_20h04.04.446,SurveyExpMetaMem,3.2.3,MacIntel,60
,,,,,,,,,,,,,,,,,,,,4,3.969000101,6,0.70299983,1,0,1200,123,1,1199,favorite,11140,2019-10-21_20h04.04.446,SurveyExpMetaMem,3.2.3,MacIntel,60
,,,,,,,,,,,,,,,,,,,,6,3.733999968,6,2.866999865,1,0,1200,190,1,1199,rescue,11140,2019-10-21_20h04.04.446,SurveyExpMetaMem,3.2.3,MacIntel,60
,,,,,,,,,,,,,,,,,,,,3,3.280999899,6,1.135999918,1,0,1200,542,1,1199,loose,11140,2019-10-21_20h04.04.446,SurveyExpMetaMem,3.2.3,MacIntel,60
,,,,,,,,,,,,,,,,,,,,5,1.979999781,5,0.344000101,1,0,1200,491,1,1199,meek,11140,2019-10-21_20h04.04.446,SurveyExpMetaMem,3.2.3,MacIntel,60
,,,,,,,,,,,,,,,,,,,,5,5.084000111,5,0.271999836,1,0,1200,215,1,1199,salary,11140,2019-10-21_20h04.04.446,SurveyExpMetaMem,3.2.3,MacIntel,60
,,,,,,,,,,,,,,,,,,,,8,2.553999901,2,0.703999996,1,0,1200,1151,1,1199,drama,11140,2019-10-21_20h04.04.446,SurveyExpMetaMem,3.2.3,MacIntel,60
,,,,,,,,,,,,,,,,,,,,5,3.852999926,5,0.236000061,1,0,1200,598,1,1199,feet,11140,2019-10-21_20h04.04.446,SurveyExpMetaMem,3.2.3,MacIntel,60
,,,,,,,,,,,,,,,,,,,,7,8.430999994,7,1.235999823,1,0,1200,193,1,1199,party,11140,2019-10-21_20h04.04.446,SurveyExpMetaMem,3.2.3,MacIntel,60
,,,,,,,,,,,,,,,,,,,,4,3.182999849,6,1.536999941,1,0,1200,830,1,1199,pear,11140,2019-10-21_20h04.04.446,SurveyExpMetaMem,3.2.3,MacIntel,60
,,,,,,,,,,,,,,,,,,,,3,1.927999973,8,1.238999844,1,0,1200,894,1,1199,sunset,11140,2019-10-21_20h04.04.446,SurveyExpMetaMem,3.2.3,MacIntel,60
,,,,,,,,,,,,,,,,,,,,4,4.292999983,6,0.786999941,1,0,1200,509,1,1199,ash,11140,2019-10-21_20h04.04.446,SurveyExpMetaMem,3.2.3,MacIntel,60
,,,,,,,,,,,,,,,,,,,,4,4.467999935,6,1.06799984,1,0,1200,65,1,1199,restaurant,11140,2019-10-21_20h04.04.446,SurveyExpMetaMem,3.2.3,MacIntel,60
,,,,,,,,,,,,,,,,,,,,5,2.618000031,5,0.319999933,1,0,1200,634,1,1199,glacier,11140,2019-10-21_20h04.04.446,SurveyExpMetaMem,3.2.3,MacIntel,60
,,,,,,,,,,,,,,,,,,,,7,2.069999933,3,0.36899972,1,0,1200,996,1,1199,sting,11140,2019-10-21_20h04.04.446,SurveyExpMetaMem,3.2.3,MacIntel,60
,,,,,,,,,,,,,,,,,,,,3,2.260999918,7,0.302999973,1,0,1200,889,1,1199,wise,11140,2019-10-21_20h04.04.446,SurveyExpMetaMem,3.2.3,MacIntel,60
,,,,,,,,,,,,,,,,,,,,4,4.851000071,4,1.269999981,1,0,1200,432,1,1199,resign,11140,2019-10-21_20h04.04.446,SurveyExpMetaMem,3.2.3,MacIntel,60
,,,,,,,,,,,,,,,,,,,,3,3.368000031,7,0.850999832,1,0,1200,780,1,1199,grass,11140,2019-10-21_20h04.04.446,SurveyExpMetaMem,3.2.3,MacIntel,60
,,,,,,,,,,,,,,,,,,,,3,3.284999847,7,0.720000029,1,0,1200,180,1,1199,embrace,11140,2019-10-21_20h04.04.446,SurveyExpMetaMem,3.2.3,MacIntel,60
,,,,,,,,,,,,,,,,,,,,7,7.400000095,3,0.332000017,1,0,1200,1000,1,1199,threat,11140,2019-10-21_20h04.04.446,SurveyExpMetaMem,3.2.3,MacIntel,60
,,,,,,,,,,,,,,,,,,,,5,3.392999887,7,0.967999935,1,0,1200,273,1,1199,worthwhile,11140,2019-10-21_20h04.04.446,SurveyExpMetaMem,3.2.3,MacIntel,60
,,,,,,,,,,,,,,,,,,,,7,1.7099998,7,1.426999807,1,0,1200,78,1,1199,energetic,11140,2019-10-21_20h04.04.446,SurveyExpMetaMem,3.2.3,MacIntel,60
,,,,,,,,,,,,,,,,,,,,4,7.512000084,6,0.872999907,1,0,1200,166,1,1199,unite,11140,2019-10-21_20h04.04.446,SurveyExpMetaMem,3.2.3,MacIntel,60
,,,,,,,,,,,,,,,,,,,,6,2.087999821,4,0.470999956,1,0,1200,429,1,1199,cough,11140,2019-10-21_20h04.04.446,SurveyExpMetaMem,3.2.3,MacIntel,60
,,,,,,,,,,,,,,,,,,,,6,3.336999893,4,0.995000124,1,0,1200,457,1,1199,confuse,11140,2019-10-21_20h04.04.446,SurveyExpMetaMem,3.2.3,MacIntel,60
,,,,,,,,,,,,,,,,,,,,7,7.678999901,4,1.671000004,1,0,1200,214,1,1199,revive,11140,2019-10-21_20h04.04.446,SurveyExpMetaMem,3.2.3,MacIntel,60
,,,,,,,,,,,,,,,,,,,,5,1.757999897,5,0.338000059,1,0,1200,581,1,1199,dork,11140,2019-10-21_20h04.04.446,SurveyExpMetaMem,3.2.3,MacIntel,60
,,,,,,,,,,,,,,,,,,,,5,1.261999846,5,0.27699995,1,0,1200,702,1,1199,den,11140,2019-10-21_20h04.04.446,SurveyExpMetaMem,3.2.3,MacIntel,60
,,,,,,,,,,,,,,,,,,,,4,3.494999886,7,1.187000036,1,0,1200,762,1,1199,orchestra,11140,2019-10-21_20h04.04.446,SurveyExpMetaMem,3.2.3,MacIntel,60
,,,,,,,,,,,,,,,,,,,,2,1.818999767,8,1.203999758,1,0,1200,734,1,1199,piano,11140,2019-10-21_20h04.04.446,SurveyExpMetaMem,3.2.3,MacIntel,60
,,,,,,,,,,,,,,,,,,,,5,4.179999828,5,0.975999832,1,0,1200,684,1,1199,send,11140,2019-10-21_20h04.04.446,SurveyExpMetaMem,3.2.3,MacIntel,60
,,,,,,,,,,,,,,,,,,,,5,3.121000051,4,1.888000011,1,0,1200,134,1,1199,dollar,11140,2019-10-21_20h04.04.446,SurveyExpMetaMem,3.2.3,MacIntel,60
,,,,,,,,,,,,,,,,,,,,5,1.228999853,5,0.345999956,1,0,1200,498,1,1199,alimony,11140,2019-10-21_20h04.04.446,SurveyExpMetaMem,3.2.3,MacIntel,60
,,,,,,,,,,,,,,,,,,,,4,4.335000038,6,1.402999878,1,0,1200,797,1,1199,hamburger,11140,2019-10-21_20h04.04.446,SurveyExpMetaMem,3.2.3,MacIntel,60
,,,,,,,,,,,,,,,,,,,,4,5.09499979,6,0.763000011,1,0,1200,606,1,1199,easel,11140,2019-10-21_20h04.04.446,SurveyExpMetaMem,3.2.3,MacIntel,60
,,,,,,,,,,,,,,,,,,,,7,2.422999859,3,0.47300005,1,0,1200,458,1,1199,refuse,11140,2019-10-21_20h04.04.446,SurveyExpMetaMem,3.2.3,MacIntel,60
,,,,,,,,,,,,,,,,,,,,5,3.477999926,6,1.319000006,1,0,1200,225,1,1199,strong,11140,2019-10-21_20h04.04.446,SurveyExpMetaMem,3.2.3,MacIntel,60
,,,,,,,,,,,,,,,,,,,,3,1.710000038,7,1.030999899,1,0,1200,871,1,1199,comfort,11140,2019-10-21_20h04.04.446,SurveyExpMetaMem,3.2.3,MacIntel,60
,,,,,,,,,,,,,,,,,,,,5,6.804999828,5,1.118999958,1,0,1200,120,1,1199,imaginative,11140,2019-10-21_20h04.04.446,SurveyExpMetaMem,3.2.3,MacIntel,60
,,,,,,,,,,,,,,,,,,,,5,1.404000044,5,0.241999865,1,0,1200,464,1,1199,tick,11140,2019-10-21_20h04.04.446,SurveyExpMetaMem,3.2.3,MacIntel,60
,,,,,,,,,,,,,,,,,,,,7,2.316999912,3,0.589999914,1,0,1200,918,1,1199,gunpoint,11140,2019-10-21_20h04.04.446,SurveyExpMetaMem,3.2.3,MacIntel,60
,,,,,,,,,,,,,,,,,,,,5,1.375999928,5,0.287999868,1,0,1200,522,1,1199,cleft,11140,2019-10-21_20h04.04.446,SurveyExpMetaMem,3.2.3,MacIntel,60
,,,,,,,,,,,,,,,,,,,,5,2.489999771,5,0.230999947,1,0,1200,769,1,1199,relate,11140,2019-10-21_20h04.04.446,SurveyExpMetaMem,3.2.3,MacIntel,60
,,,,,,,,,,,,,,,,,,,,4,3.874999762,4,1.205999851,1,0,1200,433,1,1199,uninteresting,11140,2019-10-21_20h04.04.446,SurveyExpMetaMem,3.2.3,MacIntel,60
,,,,,,,,,,,,,,,,,,,,3,2.486999989,8,0.664000034,1,0,1200,893,1,1199,nature,11140,2019-10-21_20h04.04.446,SurveyExpMetaMem,3.2.3,MacIntel,60
,,,,,,,,,,,,,,,,,,,,7,4.020999908,6,1.769999981,1,0,1200,116,1,1199,carnival,11140,2019-10-21_20h04.04.446,SurveyExpMetaMem,3.2.3,MacIntel,60
,,,,,,,,,,,,,,,,,,,,4,3.819000006,6,0.863999844,1,0,1200,886,1,1199,sunflower,11140,2019-10-21_20h04.04.446,SurveyExpMetaMem,3.2.3,MacIntel,60
,,,,,,,,,,,,,,,,,,,,7,3.046000004,6,1.102999926,1,0,1200,17,1,1199,outgoing,11140,2019-10-21_20h04.04.446,SurveyExpMetaMem,3.2.3,MacIntel,60
,,,,,,,,,,,,,,,,,,,,4,1.718999863,6,0.938999891,1,0,1200,580,1,1199,fur,11140,2019-10-21_20h04.04.446,SurveyExpMetaMem,3.2.3,MacIntel,60
,,,,,,,,,,,,,,,,,,,,6,2.592999935,4,0.620999813,1,0,1200,490,1,1199,detached,11140,2019-10-21_20h04.04.446,SurveyExpMetaMem,3.2.3,MacIntel,60
,,,,,,,,,,,,,,,,,,,,7,3.777999878,3,0.95299983,1,0,1200,931,1,1199,overweight,11140,2019-10-21_20h04.04.446,SurveyExpMetaMem,3.2.3,MacIntel,60
,,,,,,,,,,,,,,,,,,,,5,4.314999819,5,4.681999922,1,0,1200,788,1,1199,cook,11140,2019-10-21_20h04.04.446,SurveyExpMetaMem,3.2.3,MacIntel,60
,,,,,,,,,,,,,,,,,,,,4,5.531999826,6,1.136999846,1,0,1200,526,1,1199,dry,11140,2019-10-21_20h04.04.446,SurveyExpMetaMem,3.2.3,MacIntel,60
,,,,,,,,,,,,,,,,,,,,7,1.437999964,7,0.921000004,1,0,1200,265,1,1199,invent,11140,2019-10-21_20h04.04.446,SurveyExpMetaMem,3.2.3,MacIntel,60
,,,,,,,,,,,,,,,,,,,,7,2.627999783,4,1.236999989,1,0,1200,118,1,1199,conquer,11140,2019-10-21_20h04.04.446,SurveyExpMetaMem,3.2.3,MacIntel,60
,,,,,,,,,,,,,,,,,,,,3,3.684999943,7,0.646999836,1,0,1200,715,1,1199,sheltered,11140,2019-10-21_20h04.04.446,SurveyExpMetaMem,3.2.3,MacIntel,60
,,,,,,,,,,,,,,,,,,,,6,3.268999815,3,1.131999969,1,0,1200,552,1,1199,shadow,11140,2019-10-21_20h04.04.446,SurveyExpMetaMem,3.2.3,MacIntel,60
,,,,,,,,,,,,,,,,,,,,5,6.208999872,5,0.253999949,1,0,1200,647,1,1199,accord,11140,2019-10-21_20h04.04.446,SurveyExpMetaMem,3.2.3,MacIntel,60
,,,,,,,,,,,,,,,,,,,,8,2.93599987,2,0.270999908,1,0,1200,945,1,1199,demon,11140,2019-10-21_20h04.04.446,SurveyExpMetaMem,3.2.3,MacIntel,60
,,,,,,,,,,,,,,,,,,,,7,3.426999807,2,1.052999973,1,0,1200,1004,1,1199,burglar,11140,2019-10-21_20h04.04.446,SurveyExpMetaMem,3.2.3,MacIntel,60
,,,,,,,,,,,,,,,,,,,,4,2.220999956,6,1.042999983,1,0,1200,842,1,1199,breathe,11140,2019-10-21_20h04.04.446,SurveyExpMetaMem,3.2.3,MacIntel,60
,,,,,,,,,,,,,,,,,,,,7,1.674999714,3,0.323999882,1,0,1200,323,1,1199,ungrateful,11140,2019-10-21_20h04.04.446,SurveyExpMetaMem,3.2.3,MacIntel,60
,,,,,,,,,,,,,,,,,,,,9,1.926000118,1,0.358999968,1,0,1200,944,1,1199,kill,11140,2019-10-21_20h04.04.446,SurveyExpMetaMem,3.2.3,MacIntel,60
,,,,,,,,,,,,,,,,,,,,6,7.813999891,6,0.224999905,1,0,1200,87,1,1199,cookie,11140,2019-10-21_20h04.04.446,SurveyExpMetaMem,3.2.3,MacIntel,60
,,,,,,,,,,,,,,,,,,,,5,4.085999966,5,0.694999933,1,0,1200,114,1,1199,raise,11140,2019-10-21_20h04.04.446,SurveyExpMetaMem,3.2.3,MacIntel,60
,,,,,,,,,,,,,,,,,,,,5,3.55099988,5,0.375999928,1,0,1200,223,1,1199,fashion,11140,2019-10-21_20h04.04.446,SurveyExpMetaMem,3.2.3,MacIntel,60
,,,,,,,,,,,,,,,,,,,,5,2.078000069,5,0.276000023,1,0,1200,613,1,1199,cup,11140,2019-10-21_20h04.04.446,SurveyExpMetaMem,3.2.3,MacIntel,60
,,,,,,,,,,,,,,,,,,,,5,2.028000116,5,0.286000013,1,0,1200,618,1,1199,ceiling,11140,2019-10-21_20h04.04.446,SurveyExpMetaMem,3.2.3,MacIntel,60
,,,,,,,,,,,,,,,,,,,,5,1.627999783,5,0.305999994,1,0,1200,1178,1,1199,weight,11140,2019-10-21_20h04.04.446,SurveyExpMetaMem,3.2.3,MacIntel,60
,,,,,,,,,,,,,,,,,,,,6,4.546000004,4,0.183999777,1,0,1200,679,1,1199,yellow,11140,2019-10-21_20h04.04.446,SurveyExpMetaMem,3.2.3,MacIntel,60
,,,,,,,,,,,,,,,,,,,,7,4.625999928,7,1.721999884,1,0,1200,173,1,1199,hope,11140,2019-10-21_20h04.04.446,SurveyExpMetaMem,3.2.3,MacIntel,60
,,,,,,,,,,,,,,,,,,,,5,7.780999899,4,0.826999903,1,0,1200,206,1,1199,comet,11140,2019-10-21_20h04.04.446,SurveyExpMetaMem,3.2.3,MacIntel,60
,,,,,,,,,,,,,,,,,,,,5,1.088999987,5,0.209000111,1,0,1200,315,1,1199,zit,11140,2019-10-21_20h04.04.446,SurveyExpMetaMem,3.2.3,MacIntel,60
,,,,,,,,,,,,,,,,,,,,5,1.750999928,5,0.194999933,1,0,1200,1074,1,1199,detain,11140,2019-10-21_20h04.04.446,SurveyExpMetaMem,3.2.3,MacIntel,60
,,,,,,,,,,,,,,,,,,,,5,2.517999887,5,0.180999756,1,0,1200,595,1,1199,vacuum,11140,2019-10-21_20h04.04.446,SurveyExpMetaMem,3.2.3,MacIntel,60
,,,,,,,,,,,,,,,,,,,,6,4.284999847,4,0.210000038,1,0,1200,348,1,1199,impotent,11140,2019-10-21_20h04.04.446,SurveyExpMetaMem,3.2.3,MacIntel,60
,,,,,,,,,,,,,,,,,,,,8,1.520999908,2,0.276000023,1,0,1200,1036,1,1199,anxiety,11140,2019-10-21_20h04.04.446,SurveyExpMetaMem,3.2.3,MacIntel,60
,,,,,,,,,,,,,,,,,,,,4,2.451999903,6,1.012000084,1,0,1200,836,1,1199,lounge,11140,2019-10-21_20h04.04.446,SurveyExpMetaMem,3.2.3,MacIntel,60
,,,,,,,,,,,,,,,,,,,,4,1.735999823,6,0.453999758,1,0,1200,604,1,1199,lamp,11140,2019-10-21_20h04.04.446,SurveyExpMetaMem,3.2.3,MacIntel,60
,,,,,,,,,,,,,,,,,,,,4,2.818999767,7,2.487999916,1,0,1200,28,1,1199,energy,11140,2019-10-21_20h04.04.446,SurveyExpMetaMem,3.2.3,MacIntel,60
,,,,,,,,,,,,,,,,,,,,7,1.440999985,3,0.384999752,1,0,1200,1052,1,1199,angry,11140,2019-10-21_20h04.04.446,SurveyExpMetaMem,3.2.3,MacIntel,60
,,,,,,,,,,,,,,,,,,,,4,2.126999855,6,0.247999907,1,0,1200,607,1,1199,greyhound,11140,2019-10-21_20h04.04.446,SurveyExpMetaMem,3.2.3,MacIntel,60
,,,,,,,,,,,,,,,,,,,,7,2.785999775,7,1.064999819,1,0,1200,709,1,1199,ancestor,11140,2019-10-21_20h04.04.446,SurveyExpMetaMem,3.2.3,MacIntel,60
,,,,,,,,,,,,,,,,,,,,5,3.75999999,5,0.217999935,1,0,1200,765,1,1199,candid,11140,2019-10-21_20h04.04.446,SurveyExpMetaMem,3.2.3,MacIntel,60
,,,,,,,,,,,,,,,,,,,,5,1.417999983,5,0.190999985,1,0,1200,585,1,1199,tatter,11140,2019-10-21_20h04.04.446,SurveyExpMetaMem,3.2.3,MacIntel,60
,,,,,,,,,,,,,,,,,,,,7,2.697999716,6,1.128000021,1,0,1200,147,1,1199,cure,11140,2019-10-21_20h04.04.446,SurveyExpMetaMem,3.2.3,MacIntel,60
,,,,,,,,,,,,,,,,,,,,4,2.81099987,6,1.819999933,1,0,1200,641,1,1199,writer,11140,2019-10-21_20h04.04.446,SurveyExpMetaMem,3.2.3,MacIntel,60
,,,,,,,,,,,,,,,,,,,,5,1.07400012,5,0.236999989,1,0,1200,563,1,1199,stupor,11140,2019-10-21_20h04.04.446,SurveyExpMetaMem,3.2.3,MacIntel,60
,,,,,,,,,,,,,,,,,,,,5,4.527999878,5,0.225999832,1,0,1200,612,1,1199,propeller,11140,2019-10-21_20h04.04.446,SurveyExpMetaMem,3.2.3,MacIntel,60
,,,,,,,,,,,,,,,,,,,,6,3.182999849,7,0.345999956,1,0,1200,172,1,1199,potential,11140,2019-10-21_20h04.04.446,SurveyExpMetaMem,3.2.3,MacIntel,60
,,,,,,,,,,,,,,,,,,,,5,1.084000111,5,0.210000038,1,0,1200,663,1,1199,trout,11140,2019-10-21_20h04.04.446,SurveyExpMetaMem,3.2.3,MacIntel,60
,,,,,,,,,,,,,,,,,,,,5,2.845000029,6,1.125999928,1,0,1200,106,1,1199,voyage,11140,2019-10-21_20h04.04.446,SurveyExpMetaMem,3.2.3,MacIntel,60
,,,,,,,,,,,,,,,,,,,,3,5.138999939,7,0.592999935,1,0,1200,229,1,1199,heaven,11140,2019-10-21_20h04.04.446,SurveyExpMetaMem,3.2.3,MacIntel,60
,,,,,,,,,,,,,,,,,,,,6,5.8349998,4,0.20600009,1,0,1200,391,1,1199,detach,11140,2019-10-21_20h04.04.446,SurveyExpMetaMem,3.2.3,MacIntel,60
,,,,,,,,,,,,,,,,,,,,7,2.470000029,4,1.245999813,1,0,1200,502,1,1199,crap,11140,2019-10-21_20h04.04.446,SurveyExpMetaMem,3.2.3,MacIntel,60
,,,,,,,,,,,,,,,,,,,,6,3.079999924,6,0.5849998,1,0,1200,21,1,1199,game,11140,2019-10-21_20h04.04.446,SurveyExpMetaMem,3.2.3,MacIntel,60
,,,,,,,,,,,,,,,,,,,,7,1.842999935,3,0.19299984,1,0,1200,1106,1,1199,pushy,11140,2019-10-21_20h04.04.446,SurveyExpMetaMem,3.2.3,MacIntel,60
,,,,,,,,,,,,,,,,,,,,5,8.234999895,5,0.487999916,1,0,1200,749,1,1199,glasses,11140,2019-10-21_20h04.04.446,SurveyExpMetaMem,3.2.3,MacIntel,60
,,,,,,,,,,,,,,,,,,,,5,0.816999912,5,0.220999956,1,0,1200,66,1,1199,zest,11140,2019-10-21_20h04.04.446,SurveyExpMetaMem,3.2.3,MacIntel,60
,,,,,,,,,,,,,,,,,,,,7,1.81799984,3,0.226000071,1,0,1200,325,1,1199,disability,11140,2019-10-21_20h04.04.446,SurveyExpMetaMem,3.2.3,MacIntel,60
,,,,,,,,,,,,,,,,,,,,8,1.476999998,2,0.273000002,1,0,1200,354,1,1199,cowardice,11140,2019-10-21_20h04.04.446,SurveyExpMetaMem,3.2.3,MacIntel,60
,,,,,,,,,,,,,,,,,,,,7,5.285000086,7,0.91899991,1,0,1200,187,1,1199,excite,11140,2019-10-21_20h04.04.446,SurveyExpMetaMem,3.2.3,MacIntel,60
,,,,,,,,,,,,,,,,,,,,7,2.124999762,3,0.121000051,1,0,1200,507,1,1199,smudge,11140,2019-10-21_20h04.04.446,SurveyExpMetaMem,3.2.3,MacIntel,60
,,,,,,,,,,,,,,,,,,,,3,1.583999872,7,1.329999924,1,0,1200,787,1,1199,dawn,11140,2019-10-21_20h04.04.446,SurveyExpMetaMem,3.2.3,MacIntel,60
,,,,,,,,,,,,,,,,,,,,5,1.652999878,5,0.236000061,1,0,1200,681,1,1199,fig,11140,2019-10-21_20h04.04.446,SurveyExpMetaMem,3.2.3,MacIntel,60
,,,,,,,,,,,,,,,,,,,,4,1.546999931,6,0.111000061,1,0,1200,107,1,1199,sandwich,11140,2019-10-21_20h04.04.446,SurveyExpMetaMem,3.2.3,MacIntel,60
,,,,,,,,,,,,,,,,,,,,4,2.661999941,6,1.71999979,1,0,1200,481,1,1199,melancholy,11140,2019-10-21_20h04.04.446,SurveyExpMetaMem,3.2.3,MacIntel,60
,,,,,,,,,,,,,,,,,,,,5,2.604000092,5,0.236000061,1,0,1200,43,1,1199,diamond,11140,2019-10-21_20h04.04.446,SurveyExpMetaMem,3.2.3,MacIntel,60
,,,,,,,,,,,,,,,,,,,,7,5.083999872,3,0.15199995,1,0,1200,467,1,1199,FALSE,11140,2019-10-21_20h04.04.446,SurveyExpMetaMem,3.2.3,MacIntel,60
,,,,,,,,,,,,,,,,,,,,7,2.927000046,3,0.143999815,1,0,1200,1037,1,1199,scared,11140,2019-10-21_20h04.04.446,SurveyExpMetaMem,3.2.3,MacIntel,60
,,,,,,,,,,,,,,,,,,,,5,1.297999859,5,0.20299983,1,0,1200,63,1,1199,clothes,11140,2019-10-21_20h04.04.446,SurveyExpMetaMem,3.2.3,MacIntel,60
,,,,,,,,,,,,,,,,,,,,6,2.280999899,4,0.193999767,1,0,1200,1095,1,1199,fright,11140,2019-10-21_20h04.04.446,SurveyExpMetaMem,3.2.3,MacIntel,60
,,,,,,,,,,,,,,,,,,,,4,2.002999783,6,0.092999935,1,0,1200,822,1,1199,clearer,11140,2019-10-21_20h04.04.446,SurveyExpMetaMem,3.2.3,MacIntel,60
,,,,,,,,,,,,,,,,,,,,3,1.917999983,7,0.17599988,1,0,1200,197,1,1199,happy,11140,2019-10-21_20h04.04.446,SurveyExpMetaMem,3.2.3,MacIntel,60
,,,,,,,,,,,,,,,,,,,,7,1.532000065,3,0.156000137,1,0,1200,932,1,1199,bankrupt,11140,2019-10-21_20h04.04.446,SurveyExpMetaMem,3.2.3,MacIntel,60
,,,,,,,,,,,,,,,,,,,,5,1.554999828,5,0.15199995,1,0,1200,349,1,1199,mope,11140,2019-10-21_20h04.04.446,SurveyExpMetaMem,3.2.3,MacIntel,60
,,,,,,,,,,,,,,,,,,,,5,1.025000095,5,0.171999931,1,0,1200,1034,1,1199,pester,11140,2019-10-21_20h04.04.446,SurveyExpMetaMem,3.2.3,MacIntel,60
,,,,,,,,,,,,,,,,,,,,4,6.336999893,6,0.767999887,1,0,1200,813,1,1199,walking,11140,2019-10-21_20h04.04.446,SurveyExpMetaMem,3.2.3,MacIntel,60
,,,,,,,,,,,,,,,,,,,,6,1.026000023,4,0.200999975,1,0,1200,1098,1,1199,confused,11140,2019-10-21_20h04.04.446,SurveyExpMetaMem,3.2.3,MacIntel,60
,,,,,,,,,,,,,,,,,,,,7,3.253999949,3,0.136999846,1,0,1200,1021,1,1199,attack,11140,2019-10-21_20h04.04.446,SurveyExpMetaMem,3.2.3,MacIntel,60
,,,,,,,,,,,,,,,,,,,,4,1.721999884,6,0.136999846,1,0,1200,839,1,1199,flower,11140,2019-10-21_20h04.04.446,SurveyExpMetaMem,3.2.3,MacIntel,60
,,,,,,,,,,,,,,,,,,,,4,4.142999887,6,0.270999908,1,0,1200,305,1,1199,frown,11140,2019-10-21_20h04.04.446,SurveyExpMetaMem,3.2.3,MacIntel,60
,,,,,,,,,,,,,,,,,,,,4,1.671999931,6,0.113999844,1,0,1200,643,1,1199,library,11140,2019-10-21_20h04.04.446,SurveyExpMetaMem,3.2.3,MacIntel,60
,,,,,,,,,,,,,,,,,,,,3,1.852999926,7,0.138999939,1,0,1200,895,1,1199,peace,11140,2019-10-21_20h04.04.446,SurveyExpMetaMem,3.2.3,MacIntel,60
,,,,,,,,,,,,,,,,,,,,3,3.078999758,7,0.087999821,1,0,1200,4,1,1199,night,11140,2019-10-21_20h04.04.446,SurveyExpMetaMem,3.2.3,MacIntel,60
,,,,,,,,,,,,,,,,,,,,7,1.518999815,3,0.137000084,1,0,1200,977,1,1199,choke,11140,2019-10-21_20h04.04.446,SurveyExpMetaMem,3.2.3,MacIntel,60
,,,,,,,,,,,,,,,,,,,,7,2.569000006,7,0.296999931,1,0,1200,183,1,1199,congratulate,11140,2019-10-21_20h04.04.446,SurveyExpMetaMem,3.2.3,MacIntel,60
,,,,,,,,,,,,,,,,,,,,7,3.204999924,7,2.304999828,1,0,1200,584,1,1199,anus,11140,2019-10-21_20h04.04.446,SurveyExpMetaMem,3.2.3,MacIntel,60
,,,,,,,,,,,,,,,,,,,,5,4.846999884,5,0.210000038,1,0,1200,656,1,1199,number,11140,2019-10-21_20h04.04.446,SurveyExpMetaMem,3.2.3,MacIntel,60
,,,,,,,,,,,,,,,,,,,,3,1.725999832,7,0.172999859,1,0,1200,863,1,1199,fireplace,11140,2019-10-21_20h04.04.446,SurveyExpMetaMem,3.2.3,MacIntel,60
,,,,,,,,,,,,,,,,,,,,7,1.246999979,3,0.137999773,1,0,1200,1013,1,1199,guilty,11140,2019-10-21_20h04.04.446,SurveyExpMetaMem,3.2.3,MacIntel,60
,,,,,,,,,,,,,,,,,,,,4,1.958999872,6,0.093999863,1,0,1200,786,1,1199,afternoon,11140,2019-10-21_20h04.04.446,SurveyExpMetaMem,3.2.3,MacIntel,60
,,,,,,,,,,,,,,,,,,,,7,1.602999926,3,0.111999989,1,0,1200,980,1,1199,liar,11140,2019-10-21_20h04.04.446,SurveyExpMetaMem,3.2.3,MacIntel,60
,,,,,,,,,,,,,,,,,,,,4,2.393000126,6,0.08100009,1,0,1200,649,1,1199,donkey,11140,2019-10-21_20h04.04.446,SurveyExpMetaMem,3.2.3,MacIntel,60
,,,,,,,,,,,,,,,,,,,,4,3.724999905,6,0.15899992,1,0,1200,851,1,1199,cool,11140,2019-10-21_20h04.04.446,SurveyExpMetaMem,3.2.3,MacIntel,60
,,,,,,,,,,,,,,,,,,,,5,2.02699995,5,0.131000042,1,0,1200,579,1,1199,bus,11140,2019-10-21_20h04.04.446,SurveyExpMetaMem,3.2.3,MacIntel,60
,,,,,,,,,,,,,,,,,,,,5,1.092999935,5,0.188999891,1,0,1200,1155,1,1199,tangle,11140,2019-10-21_20h04.04.446,SurveyExpMetaMem,3.2.3,MacIntel,60
,,,,,,,,,,,,,,,,,,,,5,1.467999935,5,0.173999786,1,0,1200,593,1,1199,errand,11140,2019-10-21_20h04.04.446,SurveyExpMetaMem,3.2.3,MacIntel,60
,,,,,,,,,,,,,,,,,,,,5,0.909999847,5,0.16899991,1,0,1200,785,1,1199,pond,11140,2019-10-21_20h04.04.446,SurveyExpMetaMem,3.2.3,MacIntel,60
,,,,,,,,,,,,,,,,,,,,5,1.629999876,5,0.17599988,1,0,1200,672,1,1199,ketchup,11140,2019-10-21_20h04.04.446,SurveyExpMetaMem,3.2.3,MacIntel,60
,,,,,,,,,,,,,,,,,,,,5,1.767999887,5,0.172999859,1,0,1200,454,1,1199,damp,11140,2019-10-21_20h04.04.446,SurveyExpMetaMem,3.2.3,MacIntel,60
,,,,,,,,,,,,,,,,,,,,8,2.157999992,6,0.078999758,1,0,1200,369,1,1199,blind,11140,2019-10-21_20h04.04.446,SurveyExpMetaMem,3.2.3,MacIntel,60
,,,,,,,,,,,,,,,,,,,,4,0.190999985,5,4.65899992,1,0,1200,1029,1,1199,abduction,11140,2019-10-21_20h04.04.446,SurveyExpMetaMem,3.2.3,MacIntel,60
,,,,,,,,,,,,,,,,,,,,5,2.845999956,5,0.178999901,1,0,1200,529,1,1199,small,11140,2019-10-21_20h04.04.446,SurveyExpMetaMem,3.2.3,MacIntel,60
,,,,,,,,,,,,,,,,,,,,7,1.60800004,7,0.144999981,1,0,1200,95,1,1199,giggle,11140,2019-10-21_20h04.04.446,SurveyExpMetaMem,3.2.3,MacIntel,60
,,,,,,,,,,,,,,,,,,,,3,2.472999811,7,0.109999895,1,0,1200,238,1,1199,sunshine,11140,2019-10-21_20h04.04.446,SurveyExpMetaMem,3.2.3,MacIntel,60
,,,,,,,,,,,,,,,,,,,,7,1.65199995,3,0.09499979,1,0,1200,914,1,1199,fail,11140,2019-10-21_20h04.04.446,SurveyExpMetaMem,3.2.3,MacIntel,60
,,,,,,,,,,,,,,,,,,,,5,2.006999969,5,0.193000078,1,0,1200,669,1,1199,plaza,11140,2019-10-21_20h04.04.446,SurveyExpMetaMem,3.2.3,MacIntel,60
,,,,,,,,,,,,,,,,,,,,6,3.946000099,4,0.134999752,1,0,1200,387,1,1199,tax,11140,2019-10-21_20h04.04.446,SurveyExpMetaMem,3.2.3,MacIntel,60
,,,,,,,,,,,,,,,,,,,,5,5.118999958,5,0.184999943,1,0,1200,104,1,1199,freeway,11140,2019-10-21_20h04.04.446,SurveyExpMetaMem,3.2.3,MacIntel,60
,,,,,,,,,,,,,,,,,,,,6,2.944000006,6,0.427000046,1,0,1200,258,1,1199,children,11140,2019-10-21_20h04.04.446,SurveyExpMetaMem,3.2.3,MacIntel,60
,,,,,,,,,,,,,,,,,,,,6,2.318999767,6,0.335999727,1,0,1200,86,1,1199,talent,11140,2019-10-21_20h04.04.446,SurveyExpMetaMem,3.2.3,MacIntel,60
,,,,,,,,,,,,,,,,,,,,7,2.342999935,7,0.226000071,1,0,1200,221,1,1199,sparkle,11140,2019-10-21_20h04.04.446,SurveyExpMetaMem,3.2.3,MacIntel,60
,,,,,,,,,,,,,,,,,,,,8,1.855000019,2,0.194999933,1,0,1200,1102,1,1199,nuclear,11140,2019-10-21_20h04.04.446,SurveyExpMetaMem,3.2.3,MacIntel,60
,,,,,,,,,,,,,,,,,,,,4,4.412999868,4,0.410000086,1,0,1200,359,1,1199,bored,11140,2019-10-21_20h04.04.446,SurveyExpMetaMem,3.2.3,MacIntel,60
,,,,,,,,,,,,,,,,,,,,6,5.618999958,4,0.144000053,1,0,1200,1147,1,1199,demand,11140,2019-10-21_20h04.04.446,SurveyExpMetaMem,3.2.3,MacIntel,60
,,,,,,,,,,,,,,,,,,,,4,6.532000065,6,0.163000107,1,0,1200,136,1,1199,dog,11140,2019-10-21_20h04.04.446,SurveyExpMetaMem,3.2.3,MacIntel,60
,,,,,,,,,,,,,,,,,,,,5,3.788999796,5,0.172999859,1,0,1200,209,1,1199,husband,11140,2019-10-21_20h04.04.446,SurveyExpMetaMem,3.2.3,MacIntel,60
,,,,,,,,,,,,,,,,,,,,5,2.968999863,5,0.17599988,1,0,1200,64,1,1199,brain,11140,2019-10-21_20h04.04.446,SurveyExpMetaMem,3.2.3,MacIntel,60
,,,,,,,,,,,,,,,,,,,,5,1.080999851,5,0.18599987,1,0,1200,567,1,1199,folly,11140,2019-10-21_20h04.04.446,SurveyExpMetaMem,3.2.3,MacIntel,60
,,,,,,,,,,,,,,,,,,,,3,1.587999821,7,0.076999903,1,0,1200,680,1,1199,candle,11140,2019-10-21_20h04.04.446,SurveyExpMetaMem,3.2.3,MacIntel,60
,,,,,,,,,,,,,,,,,,,,6,2.087000132,7,0.31099987,1,0,1200,261,1,1199,windsurfers,11140,2019-10-21_20h04.04.446,SurveyExpMetaMem,3.2.3,MacIntel,60
,,,,,,,,,,,,,,,,,,,,8,1.55099988,2,0.177999973,1,0,1200,953,1,1199,victim,11140,2019-10-21_20h04.04.446,SurveyExpMetaMem,3.2.3,MacIntel,60
,,,,,,,,,,,,,,,,,,,,6,4.261999846,4,0.177000046,1,0,1200,150,1,1199,vodka,11140,2019-10-21_20h04.04.446,SurveyExpMetaMem,3.2.3,MacIntel,60
,,,,,,,,,,,,,,,,,,,,6,2.691999912,4,0.689999819,1,0,1200,710,1,1199,gender,11140,2019-10-21_20h04.04.446,SurveyExpMetaMem,3.2.3,MacIntel,60
,,,,,,,,,,,,,,,,,,,,7,3.187000036,7,0.302000046,1,0,1200,167,1,1199,casino,11140,2019-10-21_20h04.04.446,SurveyExpMetaMem,3.2.3,MacIntel,60
,,,,,,,,,,,,,,,,,,,,6,5.970999956,4,0.338999987,1,0,1200,512,1,1199,insect,11140,2019-10-21_20h04.04.446,SurveyExpMetaMem,3.2.3,MacIntel,60
,,,,,,,,,,,,,,,,,,,,4,3.95299983,5,0.647999763,1,0,1200,819,1,1199,sheep,11140,2019-10-21_20h04.04.446,SurveyExpMetaMem,3.2.3,MacIntel,60
,,,,,,,,,,,,,,,,,,,,8,1.396999836,2,0.217999935,1,0,1200,900,1,1199,suicide,11140,2019-10-21_20h04.04.446,SurveyExpMetaMem,3.2.3,MacIntel,60
,,,,,,,,,,,,,,,,,,,,9,2.054999828,1,0.180000067,1,0,1200,1100,1,1199,evil,11140,2019-10-21_20h04.04.446,SurveyExpMetaMem,3.2.3,MacIntel,60
,,,,,,,,,,,,,,,,,,,,6,5.202000141,5,2.102999926,1,0,1200,56,1,1199,spice,11140,2019-10-21_20h04.04.446,SurveyExpMetaMem,3.2.3,MacIntel,60
,,,,,,,,,,,,,,,,,,,,5,8.786000013,5,0.177000046,1,0,1200,596,1,1199,factory,11140,2019-10-21_20h04.04.446,SurveyExpMetaMem,3.2.3,MacIntel,60
,,,,,,,,,,,,,,,,,,,,7,2.987999916,7,0.602999926,1,0,1200,7,1,1199,duet,11140,2019-10-21_20h04.04.446,SurveyExpMetaMem,3.2.3,MacIntel,60
,,,,,,,,,,,,,,,,,,,,5,5.044999838,5,0.195999861,1,0,1200,686,1,1199,phone,11140,2019-10-21_20h04.04.446,SurveyExpMetaMem,3.2.3,MacIntel,60
,,,,,,,,,,,,,,,,,,,,4,3.296999931,6,0.270999908,1,0,1200,834,1,1199,crown,11140,2019-10-21_20h04.04.446,SurveyExpMetaMem,3.2.3,MacIntel,60
,,,,,,,,,,,,,,,,,,,,7,2.343999863,6,1.517999887,1,0,1200,75,1,1199,actor,11140,2019-10-21_20h04.04.446,SurveyExpMetaMem,3.2.3,MacIntel,60
,,,,,,,,,,,,,,,,,,,,4,2.335000038,7,0.791999817,1,0,1200,220,1,1199,reef,11140,2019-10-21_20h04.04.446,SurveyExpMetaMem,3.2.3,MacIntel,60
,,,,,,,,,,,,,,,,,,,,3,2.81099987,6,0.725999832,1,0,1200,1189,1,1199,lava,11140,2019-10-21_20h04.04.446,SurveyExpMetaMem,3.2.3,MacIntel,60
,,,,,,,,,,,,,,,,,,,,7,2.394999981,3,0.252000093,1,0,1200,1124,1,1199,seize,11140,2019-10-21_20h04.04.446,SurveyExpMetaMem,3.2.3,MacIntel,60
,,,,,,,,,,,,,,,,,,,,7,2.21999979,3,0.169999838,1,0,1200,396,1,1199,unpopular,11140,2019-10-21_20h04.04.446,SurveyExpMetaMem,3.2.3,MacIntel,60
,,,,,,,,,,,,,,,,,,,,8,1.259999752,2,0.151999712,1,0,1200,1064,1,1199,sinful,11140,2019-10-21_20h04.04.446,SurveyExpMetaMem,3.2.3,MacIntel,60
,,,,,,,,,,,,,,,,,,,,7,1.186000109,3,0.186999798,1,0,1200,1128,1,1199,fighting,11140,2019-10-21_20h04.04.446,SurveyExpMetaMem,3.2.3,MacIntel,60
,,,,,,,,,,,,,,,,,,,,5,1.553999901,5,0.17599988,1,0,1200,752,1,1199,milk,11140,2019-10-21_20h04.04.446,SurveyExpMetaMem,3.2.3,MacIntel,60
,,,,,,,,,,,,,,,,,,,,6,2.20299983,4,0.207999706,1,0,1200,1083,1,1199,delayed,11140,2019-10-21_20h04.04.446,SurveyExpMetaMem,3.2.3,MacIntel,60
,,,,,,,,,,,,,,,,,,,,7,2.596999884,3,0.153000116,1,0,1200,1040,1,1199,communism,11140,2019-10-21_20h04.04.446,SurveyExpMetaMem,3.2.3,MacIntel,60
,,,,,,,,,,,,,,,,,,,,7,1.135999918,3,0.125999928,1,0,1200,1148,1,1199,suspicious,11140,2019-10-21_20h04.04.446,SurveyExpMetaMem,3.2.3,MacIntel,60
,,,,,,,,,,,,,,,,,,,,4,4.539999962,6,0.092999935,1,0,1200,594,1,1199,moss,11140,2019-10-21_20h04.04.446,SurveyExpMetaMem,3.2.3,MacIntel,60
,,,,,,,,,,,,,,,,,,,,6,3.968999863,4,0.157999992,1,0,1200,518,1,1199,report,11140,2019-10-21_20h04.04.446,SurveyExpMetaMem,3.2.3,MacIntel,60
,,,,,,,,,,,,,,,,,,,,6,3.14199996,4,0.117999792,1,0,1200,1009,1,1199,frightened,11140,2019-10-21_20h04.04.446,SurveyExpMetaMem,3.2.3,MacIntel,60
,,,,,,,,,,,,,,,,,,,,4,3.153999805,6,0.118000031,1,0,1200,213,1,1199,fair,11140,2019-10-21_20h04.04.446,SurveyExpMetaMem,3.2.3,MacIntel,60
,,,,,,,,,,,,,,,,,,,,6,4.263999939,4,1.669999838,1,0,1200,1108,1,1199,spider,11140,2019-10-21_20h04.04.446,SurveyExpMetaMem,3.2.3,MacIntel,60
,,,,,,,,,,,,,,,,,,,,5,2.458999872,5,0.18599987,1,0,1200,551,1,1199,coal,11140,2019-10-21_20h04.04.446,SurveyExpMetaMem,3.2.3,MacIntel,60
,,,,,,,,,,,,,,,,,,,,5,1.012999773,5,0.16899991,1,0,1200,934,1,1199,sob,11140,2019-10-21_20h04.04.446,SurveyExpMetaMem,3.2.3,MacIntel,60
,,,,,,,,,,,,,,,,,,,,3,3.301999807,7,0.092000008,1,0,1200,82,1,1199,stunning,11140,2019-10-21_20h04.04.446,SurveyExpMetaMem,3.2.3,MacIntel,60
,,,,,,,,,,,,,,,,,,,,7,0.15899992,5,4.69299984,1,0,1200,257,1,1199,cockpit,11140,2019-10-21_20h04.04.446,SurveyExpMetaMem,3.2.3,MacIntel,60
,,,,,,,,,,,,,,,,,,,,8,1.56799984,8,0.372999907,1,0,1200,45,1,1199,sex,11140,2019-10-21_20h04.04.446,SurveyExpMetaMem,3.2.3,MacIntel,60
,,,,,,,,,,,,,,,,,,,,5,2.919999838,5,0.188999891,1,0,1200,368,1,1199,dreary,11140,2019-10-21_20h04.04.446,SurveyExpMetaMem,3.2.3,MacIntel,60
,,,,,,,,,,,,,,,,,,,,4,1.368999958,6,0.05099988,1,0,1200,806,1,1199,tree,11140,2019-10-21_20h04.04.446,SurveyExpMetaMem,3.2.3,MacIntel,60
,,,,,,,,,,,,,,,,,,,,5,1.096999884,5,0.163999796,1,0,1200,600,1,1199,parlor,11140,2019-10-21_20h04.04.446,SurveyExpMetaMem,3.2.3,MacIntel,60
,,,,,,,,,,,,,,,,,,,,6,2.247999907,4,0.102999926,1,0,1200,320,1,1199,deformed,11140,2019-10-21_20h04.04.446,SurveyExpMetaMem,3.2.3,MacIntel,60
,,,,,,,,,,,,,,,,,,,,6,1.222999811,4,0.082000017,1,0,1200,397,1,1199,complaint,11140,2019-10-21_20h04.04.446,SurveyExpMetaMem,3.2.3,MacIntel,60
,,,,,,,,,,,,,,,,,,,,4,2.285999775,6,0.046999931,1,0,1200,247,1,1199,graduate,11140,2019-10-21_20h04.04.446,SurveyExpMetaMem,3.2.3,MacIntel,60
,,,,,,,,,,,,,,,,,,,,5,1.661999941,5,0.187999964,1,0,1200,630,1,1199,website,11140,2019-10-21_20h04.04.446,SurveyExpMetaMem,3.2.3,MacIntel,60
,,,,,,,,,,,,,,,,,,,,4,1.60199976,6,0.109999895,1,0,1200,36,1,1199,puppy,11140,2019-10-21_20h04.04.446,SurveyExpMetaMem,3.2.3,MacIntel,60
,,,,,,,,,,,,,,,,,,,,7,1.502000093,3,0.117999792,1,0,1200,970,1,1199,worry,11140,2019-10-21_20h04.04.446,SurveyExpMetaMem,3.2.3,MacIntel,60
,,,,,,,,,,,,,,,,,,,,6,2.23300004,4,0.118999958,1,0,1200,402,1,1199,dismissive,11140,2019-10-21_20h04.04.446,SurveyExpMetaMem,3.2.3,MacIntel,60
,,,,,,,,,,,,,,,,,,,,5,2.395999908,5,0.16899991,1,0,1200,23,1,1199,earn,11140,2019-10-21_20h04.04.446,SurveyExpMetaMem,3.2.3,MacIntel,60
,,,,,,,,,,,,,,,,,,,,7,1.302999735,3,0.118000031,1,0,1200,373,1,1199,ignorance,11140,2019-10-21_20h04.04.446,SurveyExpMetaMem,3.2.3,MacIntel,60
,,,,,,,,,,,,,,,,,,,,5,1.5849998,5,0.172999859,1,0,1200,974,1,1199,roach,11140,2019-10-21_20h04.04.446,SurveyExpMetaMem,3.2.3,MacIntel,60
,,,,,,,,,,,,,,,,,,,,6,2.85199976,4,0.128999949,1,0,1200,1018,1,1199,distress,11140,2019-10-21_20h04.04.446,SurveyExpMetaMem,3.2.3,MacIntel,60
,,,,,,,,,,,,,,,,,,,,5,1.289000034,5,0.156999826,1,0,1200,872,1,1199,dignified,11140,2019-10-21_20h04.04.446,SurveyExpMetaMem,3.2.3,MacIntel,60
,,,,,,,,,,,,,,,,,,,,7,2.784999847,3,0.069000006,1,0,1200,352,1,1199,negligent,11140,2019-10-21_20h04.04.446,SurveyExpMetaMem,3.2.3,MacIntel,60
,,,,,,,,,,,,,,,,,,,,5,1.767999887,5,0.15199995,1,0,1200,763,1,1199,vegetables,11140,2019-10-21_20h04.04.446,SurveyExpMetaMem,3.2.3,MacIntel,60
,,,,,,,,,,,,,,,,,,,,6,4.526000023,4,0.105000019,1,0,1200,1084,1,1199,uneasy,11140,2019-10-21_20h04.04.446,SurveyExpMetaMem,3.2.3,MacIntel,60
,,,,,,,,,,,,,,,,,,,,5,1.252999783,5,0.161999941,1,0,1200,1103,1,1199,mob,11140,2019-10-21_20h04.04.446,SurveyExpMetaMem,3.2.3,MacIntel,60
,,,,,,,,,,,,,,,,,,,,5,1.471999884,5,0.179999828,1,0,1200,435,1,1199,grovel,11140,2019-10-21_20h04.04.446,SurveyExpMetaMem,3.2.3,MacIntel,60
,,,,,,,,,,,,,,,,,,,,3,1.335999966,7,0.201999903,1,0,1200,184,1,1199,surprised,11140,2019-10-21_20h04.04.446,SurveyExpMetaMem,3.2.3,MacIntel,60
,,,,,,,,,,,,,,,,,,,,5,1.020999908,5,0.171999931,1,0,1200,696,1,1199,rink,11140,2019-10-21_20h04.04.446,SurveyExpMetaMem,3.2.3,MacIntel,60
,,,,,,,,,,,,,,,,,,,,4,3.16899991,6,0.0849998,1,0,1200,838,1,1199,nestle,11140,2019-10-21_20h04.04.446,SurveyExpMetaMem,3.2.3,MacIntel,60
,,,,,,,,,,,,,,,,,,,,6,1.664999962,4,0.104000092,1,0,1200,1142,1,1199,disturb,11140,2019-10-21_20h04.04.446,SurveyExpMetaMem,3.2.3,MacIntel,60
,,,,,,,,,,,,,,,,,,,,5,1.694999933,5,0.178999901,1,0,1200,748,1,1199,town,11140,2019-10-21_20h04.04.446,SurveyExpMetaMem,3.2.3,MacIntel,60
,,,,,,,,,,,,,,,,,,,,5,4.194000006,5,0.189999819,1,0,1200,795,1,1199,soup,11140,2019-10-21_20h04.04.446,SurveyExpMetaMem,3.2.3,MacIntel,60
,,,,,,,,,,,,,,,,,,,,5,1.71600008,5,0.351999998,1,0,1200,742,1,1199,window,11140,2019-10-21_20h04.04.446,SurveyExpMetaMem,3.2.3,MacIntel,60
,,,,,,,,,,,,,,,,,,,,7,1.970000029,7,0.600999832,1,0,1200,1129,1,1199,spanking,11140,2019-10-21_20h04.04.446,SurveyExpMetaMem,3.2.3,MacIntel,60
,,,,,,,,,,,,,,,,,,,,7,11.33699989,3,0.187999964,1,0,1200,1156,1,1199,weapon,11140,2019-10-21_20h04.04.446,SurveyExpMetaMem,3.2.3,MacIntel,60
,,,,,,,,,,,,,,,,,,,,7,1.674999714,3,0.153000116,1,0,1200,1136,1,1199,appall,11140,2019-10-21_20h04.04.446,SurveyExpMetaMem,3.2.3,MacIntel,60
,,,,,,,,,,,,,,,,,,,,4,1.66899991,6,0.085000038,1,0,1200,861,1,1199,nectar,11140,2019-10-21_20h04.04.446,SurveyExpMetaMem,3.2.3,MacIntel,60
,,,,,,,,,,,,,,,,,,,,5,1.636999846,5,0.15199995,1,0,1200,517,1,1199,habit,11140,2019-10-21_20h04.04.446,SurveyExpMetaMem,3.2.3,MacIntel,60
,,,,,,,,,,,,,,,,,,,,5,1.488999844,3,1.011999846,1,0,1200,547,1,1199,cellar,11140,2019-10-21_20h04.04.446,SurveyExpMetaMem,3.2.3,MacIntel,60
,,,,,,,,,,,,,,,,,,,,7,6.036999941,3,0.161999941,1,0,1200,1026,1,1199,crisis,11140,2019-10-21_20h04.04.446,SurveyExpMetaMem,3.2.3,MacIntel,60
,,,,,,,,,,,,,,,,,,,,7,1.865999937,3,0.15199995,1,0,1200,1096,1,1199,flood,11140,2019-10-21_20h04.04.446,SurveyExpMetaMem,3.2.3,MacIntel,60
,,,,,,,,,,,,,,,,,,,,4,4.519000053,6,0.664999962,1,0,1200,212,1,1199,belief,11140,2019-10-21_20h04.04.446,SurveyExpMetaMem,3.2.3,MacIntel,60
,,,,,,,,,,,,,,,,,,,,5,2.637999773,5,0.161000013,1,0,1200,779,1,1199,shampoo,11140,2019-10-21_20h04.04.446,SurveyExpMetaMem,3.2.3,MacIntel,60
,,,,,,,,,,,,,,,,,,,,4,2.076999903,6,1.47699976,1,0,1200,805,1,1199,autumn,11140,2019-10-21_20h04.04.446,SurveyExpMetaMem,3.2.3,MacIntel,60
,,,,,,,,,,,,,,,,,,,,5,5.767999887,5,0.187999964,1,0,1200,658,1,1199,method,11140,2019-10-21_20h04.04.446,SurveyExpMetaMem,3.2.3,MacIntel,60
,,,,,,,,,,,,,,,,,,,,5,1.319999933,5,0.367999792,1,0,1200,627,1,1199,introductory,11140,2019-10-21_20h04.04.446,SurveyExpMetaMem,3.2.3,MacIntel,60
,,,,,,,,,,,,,,,,,,,,5,1.286999702,5,0.176000118,1,0,1200,445,1,1199,bleak,11140,2019-10-21_20h04.04.446,SurveyExpMetaMem,3.2.3,MacIntel,60
,,,,,,,,,,,,,,,,,,,,3,1.944000006,6,0.95299983,1,0,1200,899,1,1199,relax,11140,2019-10-21_20h04.04.446,SurveyExpMetaMem,3.2.3,MacIntel,60
,,,,,,,,,,,,,,,,,,,,7,2.974999905,3,1.796999931,1,0,1200,301,1,1199,sad,11140,2019-10-21_20h04.04.446,SurveyExpMetaMem,3.2.3,MacIntel,60
,,,,,,,,,,,,,,,,,,,,5,3.188999891,5,0.371999979,1,0,1200,929,1,1199,mutilation,11140,2019-10-21_20h04.04.446,SurveyExpMetaMem,3.2.3,MacIntel,60
,,,,,,,,,,,,,,,,,,,,7,3.292999983,3,0.503999949,1,0,1200,1130,1,1199,slut,11140,2019-10-21_20h04.04.446,SurveyExpMetaMem,3.2.3,MacIntel,60
,,,,,,,,,,,,,,,,,,,,5,5.534999847,5,0.17599988,1,0,1200,61,1,1199,zoom,11140,2019-10-21_20h04.04.446,SurveyExpMetaMem,3.2.3,MacIntel,60
,,,,,,,,,,,,,,,,,,,,7,1.585999727,3,0.129999876,1,0,1200,1082,1,1199,hazard,11140,2019-10-21_20h04.04.446,SurveyExpMetaMem,3.2.3,MacIntel,60
,,,,,,,,,,,,,,,,,,,,5,3.427000046,5,0.187000036,1,0,1200,51,1,1199,body,11140,2019-10-21_20h04.04.446,SurveyExpMetaMem,3.2.3,MacIntel,60
,,,,,,,,,,,,,,,,,,,,5,5.451999903,5,0.159999847,1,0,1200,754,1,1199,reflection,11140,2019-10-21_20h04.04.446,SurveyExpMetaMem,3.2.3,MacIntel,60
,,,,,,,,,,,,,,,,,,,,3,5.220999718,7,0.078999996,1,0,1200,884,1,1199,grateful,11140,2019-10-21_20h04.04.446,SurveyExpMetaMem,3.2.3,MacIntel,60
,,,,,,,,,,,,,,,,,,,,4,6.125999928,6,0.102999926,1,0,1200,657,1,1199,peanut,11140,2019-10-21_20h04.04.446,SurveyExpMetaMem,3.2.3,MacIntel,60
,,,,,,,,,,,,,,,,,,,,7,6.860999823,3,0.114000082,1,0,1200,989,1,1199,banish,11140,2019-10-21_20h04.04.446,SurveyExpMetaMem,3.2.3,MacIntel,60
,,,,,,,,,,,,,,,,,,,,7,12.42700005,3,0.11500001,1,0,1200,448,1,1199,depart,11140,2019-10-21_20h04.04.446,SurveyExpMetaMem,3.2.3,MacIntel,60
,,,,,,,,,,,,,,,,,,,,5,1.77699995,5,0.139999866,1,0,1200,652,1,1199,tend,11140,2019-10-21_20h04.04.446,SurveyExpMetaMem,3.2.3,MacIntel,60
,,,,,,,,,,,,,,,,,,,,5,1.859999895,5,0.171000004,1,0,1200,177,1,1199,frosting,11140,2019-10-21_20h04.04.446,SurveyExpMetaMem,3.2.3,MacIntel,60
,,,,,,,,,,,,,,,,,,,,4,3.404999971,6,0.525999784,1,0,1200,614,1,1199,crossword,11140,2019-10-21_20h04.04.446,SurveyExpMetaMem,3.2.3,MacIntel,60
,,,,,,,,,,,,,,,,,,,,7,2.252999783,6,1.421999931,1,0,1200,505,1,1199,exhaust,11140,2019-10-21_20h04.04.446,SurveyExpMetaMem,3.2.3,MacIntel,60
,,,,,,,,,,,,,,,,,,,,7,3.822000027,7,1.409999847,1,0,1200,127,1,1199,glamorous,11140,2019-10-21_20h04.04.446,SurveyExpMetaMem,3.2.3,MacIntel,60
,,,,,,,,,,,,,,,,,,,,4,2.593999863,6,0.255999804,1,0,1200,169,1,1199,aid,11140,2019-10-21_20h04.04.446,SurveyExpMetaMem,3.2.3,MacIntel,60
,,,,,,,,,,,,,,,,,,,,5,3.251999855,5,0.180999994,1,0,1200,412,1,1199,mucus,11140,2019-10-21_20h04.04.446,SurveyExpMetaMem,3.2.3,MacIntel,60
,,,,,,,,,,,,,,,,,,,,7,1.621000051,7,0.251999855,1,0,1200,20,1,1199,climax,11140,2019-10-21_20h04.04.446,SurveyExpMetaMem,3.2.3,MacIntel,60
,,,,,,,,,,,,,,,,,,,,6,5.230999947,4,1.326999903,1,0,1200,1173,1,1199,lurk,11140,2019-10-21_20h04.04.446,SurveyExpMetaMem,3.2.3,MacIntel,60
,,,,,,,,,,,,,,,,,,,,5,2.605000019,5,0.177000046,1,0,1200,772,1,1199,ornament,11140,2019-10-21_20h04.04.446,SurveyExpMetaMem,3.2.3,MacIntel,60
,,,,,,,,,,,,,,,,,,,,6,7.304999828,6,0.42599988,1,0,1200,775,1,1199,pancakes,11140,2019-10-21_20h04.04.446,SurveyExpMetaMem,3.2.3,MacIntel,60
,,,,,,,,,,,,,,,,,,,,7,1.612999916,3,0.13499999,1,0,1200,1019,1,1199,fraud,11140,2019-10-21_20h04.04.446,SurveyExpMetaMem,3.2.3,MacIntel,60
,,,,,,,,,,,,,,,,,,,,5,4.701999903,5,0.15899992,1,0,1200,102,1,1199,motorcycle,11140,2019-10-21_20h04.04.446,SurveyExpMetaMem,3.2.3,MacIntel,60
,,,,,,,,,,,,,,,,,,,,6,5.01699996,4,0.110999823,1,0,1200,484,1,1199,leave,11140,2019-10-21_20h04.04.446,SurveyExpMetaMem,3.2.3,MacIntel,60
,,,,,,,,,,,,,,,,,,,,6,3.081999779,4,0.101999998,1,0,1200,587,1,1199,dissolve,11140,2019-10-21_20h04.04.446,SurveyExpMetaMem,3.2.3,MacIntel,60
,,,,,,,,,,,,,,,,,,,,7,2.288999796,3,0.119999886,1,0,1200,935,1,1199,despise,11140,2019-10-21_20h04.04.446,SurveyExpMetaMem,3.2.3,MacIntel,60
,,,,,,,,,,,,,,,,,,,,4,6.812000036,7,0.003999949,1,0,1200,274,1,1199,song,11140,2019-10-21_20h04.04.446,SurveyExpMetaMem,3.2.3,MacIntel,60
,,,,,,,,,,,,,,,,,,,,7,6.80099988,7,1.67599988,1,0,1200,230,1,1199,eager,11140,2019-10-21_20h04.04.446,SurveyExpMetaMem,3.2.3,MacIntel,60
,,,,,,,,,,,,,,,,,,,,5,1.789999962,5,0.200999975,1,0,1200,353,1,1199,blister,11140,2019-10-21_20h04.04.446,SurveyExpMetaMem,3.2.3,MacIntel,60
,,,,,,,,,,,,,,,,,,,,6,3.309999943,6,1.109999895,1,0,1200,111,1,1199,band,11140,2019-10-21_20h04.04.446,SurveyExpMetaMem,3.2.3,MacIntel,60
,,,,,,,,,,,,,,,,,,,,5,2.453999758,5,0.508999825,1,0,1200,965,1,1199,traffic,11140,2019-10-21_20h04.04.446,SurveyExpMetaMem,3.2.3,MacIntel,60
,,,,,,,,,,,,,,,,,,,,5,2.781000137,5,0.196000099,1,0,1200,757,1,1199,sentiment,11140,2019-10-21_20h04.04.446,SurveyExpMetaMem,3.2.3,MacIntel,60
,,,,,,,,,,,,,,,,,,,,5,1.387000084,5,0.186999798,1,0,1200,495,1,1199,dust,11140,2019-10-21_20h04.04.446,SurveyExpMetaMem,3.2.3,MacIntel,60
,,,,,,,,,,,,,,,,,,,,8,1.635999918,2,1.701999903,1,0,1200,1033,1,1199,horror,11140,2019-10-21_20h04.04.446,SurveyExpMetaMem,3.2.3,MacIntel,60
,,,,,,,,,,,,,,,,,,,,7,5.97300005,7,0.303999901,1,0,1200,194,1,1199,celebration,11140,2019-10-21_20h04.04.446,SurveyExpMetaMem,3.2.3,MacIntel,60
,,,,,,,,,,,,,,,,,,,,8,2.127000093,2,0.205999851,1,0,1200,1042,1,1199,brutal,11140,2019-10-21_20h04.04.446,SurveyExpMetaMem,3.2.3,MacIntel,60
,,,,,,,,,,,,,,,,,,,,6,1.919999838,4,0.146000147,1,0,1200,1111,1,1199,bruise,11140,2019-10-21_20h04.04.446,SurveyExpMetaMem,3.2.3,MacIntel,60
,,,,,,,,,,,,,,,,,,,,5,2.352999926,5,0.195999861,1,0,1200,750,1,1199,porpoise,11140,2019-10-21_20h04.04.446,SurveyExpMetaMem,3.2.3,MacIntel,60
,,,,,,,,,,,,,,,,,,,,7,2.565000057,3,0.154999971,1,0,1200,377,1,1199,complain,11140,2019-10-21_20h04.04.446,SurveyExpMetaMem,3.2.3,MacIntel,60
,,,,,,,,,,,,,,,,,,,,6,1.888999939,4,0.101999998,1,0,1200,313,1,1199,rotten,11140,2019-10-21_20h04.04.446,SurveyExpMetaMem,3.2.3,MacIntel,60
,,,,,,,,,,,,,,,,,,,,4,1.953000069,4,0.172999859,1,0,1200,408,1,1199,bore,11140,2019-10-21_20h04.04.446,SurveyExpMetaMem,3.2.3,MacIntel,60
,,,,,,,,,,,,,,,,,,,,7,2.736999989,4,0.220000029,1,0,1200,324,1,1199,inferiority,11140,2019-10-21_20h04.04.446,SurveyExpMetaMem,3.2.3,MacIntel,60
,,,,,,,,,,,,,,,,,,,,6,7.102999926,4,0.105999947,1,0,1200,636,1,1199,refine,11140,2019-10-21_20h04.04.446,SurveyExpMetaMem,3.2.3,MacIntel,60
,,,,,,,,,,,,,,,,,,,,8,4.378000021,2,0.052999973,1,0,1200,901,1,1199,rape,11140,2019-10-21_20h04.04.446,SurveyExpMetaMem,3.2.3,MacIntel,60
,,,,,,,,,,,,,,,,,,,,6,4.580999851,4,0.109999895,1,0,1200,487,1,1199,junk,11140,2019-10-21_20h04.04.446,SurveyExpMetaMem,3.2.3,MacIntel,60
,,,,,,,,,,,,,,,,,,,,3,1.640000105,7,0.069999933,1,0,1200,281,1,1199,summer,11140,2019-10-21_20h04.04.446,SurveyExpMetaMem,3.2.3,MacIntel,60
,,,,,,,,,,,,,,,,,,,,5,1.769000053,5,0.156000137,1,0,1200,626,1,1199,pan,11140,2019-10-21_20h04.04.446,SurveyExpMetaMem,3.2.3,MacIntel,60
,,,,,,,,,,,,,,,,,,,,3,1.654999971,7,0.076999903,1,0,1200,256,1,1199,galaxy,11140,2019-10-21_20h04.04.446,SurveyExpMetaMem,3.2.3,MacIntel,60
,,,,,,,,,,,,,,,,,,,,7,7.907000065,3,1.003999949,1,0,1200,1116,1,1199,emergency,11140,2019-10-21_20h04.04.446,SurveyExpMetaMem,3.2.3,MacIntel,60
,,,,,,,,,,,,,,,,,,,,7,1.986999989,3,0.126999855,1,0,1200,905,1,1199,suffocate,11140,2019-10-21_20h04.04.446,SurveyExpMetaMem,3.2.3,MacIntel,60
,,,,,,,,,,,,,,,,,,,,5,7.635999918,5,0.173000097,1,0,1200,480,1,1199,hinder,11140,2019-10-21_20h04.04.446,SurveyExpMetaMem,3.2.3,MacIntel,60
,,,,,,,,,,,,,,,,,,,,6,3.799999952,7,0.359999895,1,0,1200,515,1,1199,blues,11140,2019-10-21_20h04.04.446,SurveyExpMetaMem,3.2.3,MacIntel,60
,,,,,,,,,,,,,,,,,,,,7,2.426000118,3,0.176000118,1,0,1200,1014,1,1199,destroy,11140,2019-10-21_20h04.04.446,SurveyExpMetaMem,3.2.3,MacIntel,60
,,,,,,,,,,,,,,,,,,,,7,1.474999905,3,0.160999775,1,0,1200,300,1,1199,unhappy,11140,2019-10-21_20h04.04.446,SurveyExpMetaMem,3.2.3,MacIntel,60
,,,,,,,,,,,,,,,,,,,,5,2.154999733,5,0.187000036,1,0,1200,151,1,1199,react,11140,2019-10-21_20h04.04.446,SurveyExpMetaMem,3.2.3,MacIntel,60
,,,,,,,,,,,,,,,,,,,,4,1.797999859,6,0.17599988,1,0,1200,83,1,1199,appreciative,11140,2019-10-21_20h04.04.446,SurveyExpMetaMem,3.2.3,MacIntel,60
,,,,,,,,,,,,,,,,,,,,5,1.163999796,5,0.213000059,1,0,1200,360,1,1199,dandruff,11140,2019-10-21_20h04.04.446,SurveyExpMetaMem,3.2.3,MacIntel,60
,,,,,,,,,,,,,,,,,,,,8,1.321000099,2,0.193999767,1,0,1200,1047,1,1199,psycho,11140,2019-10-21_20h04.04.446,SurveyExpMetaMem,3.2.3,MacIntel,60
,,,,,,,,,,,,,,,,,,,,7,1.551999807,3,0.136999846,1,0,1200,923,1,1199,punish,11140,2019-10-21_20h04.04.446,SurveyExpMetaMem,3.2.3,MacIntel,60
,,,,,,,,,,,,,,,,,,,,8,2.15199995,2,0.109999895,1,0,1200,1025,1,1199,deadly,11140,2019-10-21_20h04.04.446,SurveyExpMetaMem,3.2.3,MacIntel,60
,,,,,,,,,,,,,,,,,,,,6,4.444000006,4,0.11500001,1,0,1200,533,1,1199,busy,11140,2019-10-21_20h04.04.446,SurveyExpMetaMem,3.2.3,MacIntel,60
,,,,,,,,,,,,,,,,,,,,6,1.265999794,4,0.109999895,1,0,1200,1076,1,1199,embarrassed,11140,2019-10-21_20h04.04.446,SurveyExpMetaMem,3.2.3,MacIntel,60
,,,,,,,,,,,,,,,,,,,,3,2.441999912,6,2.440999985,1,0,1200,878,1,1199,sleep,11140,2019-10-21_20h04.04.446,SurveyExpMetaMem,3.2.3,MacIntel,60
,,,,,,,,,,,,,,,,,,,,5,1.661999941,5,0.41899991,1,0,1200,648,1,1199,beads,11140,2019-10-21_20h04.04.446,SurveyExpMetaMem,3.2.3,MacIntel,60
,,,,,,,,,,,,,,,,,,,,4,1.421000004,6,0.464999914,1,0,1200,1097,1,1199,bees,11140,2019-10-21_20h04.04.446,SurveyExpMetaMem,3.2.3,MacIntel,60
,,,,,,,,,,,,,,,,,,,,5,3.886999846,5,0.172999859,1,0,1200,942,1,1199,aggravation,11140,2019-10-21_20h04.04.446,SurveyExpMetaMem,3.2.3,MacIntel,60
,,,,,,,,,,,,,,,,,,,,5,1.069000006,5,0.171999931,1,0,1200,410,1,1199,tarnish,11140,2019-10-21_20h04.04.446,SurveyExpMetaMem,3.2.3,MacIntel,60
,,,,,,,,,,,,,,,,,,,,3,2.59800005,7,0.404000044,1,0,1200,199,1,1199,laughter,11140,2019-10-21_20h04.04.446,SurveyExpMetaMem,3.2.3,MacIntel,60
,,,,,,,,,,,,,,,,,,,,5,2.944000006,5,0.167999983,1,0,1200,53,1,1199,lotion,11140,2019-10-21_20h04.04.446,SurveyExpMetaMem,3.2.3,MacIntel,60
,,,,,,,,,,,,,,,,,,,,7,1.837999821,3,0.126999855,1,0,1200,317,1,1199,cry,11140,2019-10-21_20h04.04.446,SurveyExpMetaMem,3.2.3,MacIntel,60
,,,,,,,,,,,,,,,,,,,,7,1.566999912,3,0.095000029,1,0,1200,988,1,1199,deserter,11140,2019-10-21_20h04.04.446,SurveyExpMetaMem,3.2.3,MacIntel,60
,,,,,,,,,,,,,,,,,,,,8,4.385999918,8,0.950999975,1,0,1200,1067,1,1199,wicked,11140,2019-10-21_20h04.04.446,SurveyExpMetaMem,3.2.3,MacIntel,60
,,,,,,,,,,,,,,,,,,,,8,4.551999807,2,0.105000019,1,0,1200,927,1,1199,jail,11140,2019-10-21_20h04.04.446,SurveyExpMetaMem,3.2.3,MacIntel,60
,,,,,,,,,,,,,,,,,,,,6,1.70299983,4,0.075999975,1,0,1200,332,1,1199,sewage,11140,2019-10-21_20h04.04.446,SurveyExpMetaMem,3.2.3,MacIntel,60
,,,,,,,,,,,,,,,,,,,,6,1.68599987,4,0.121999979,1,0,1200,492,1,1199,naive,11140,2019-10-21_20h04.04.446,SurveyExpMetaMem,3.2.3,MacIntel,60
,,,,,,,,,,,,,,,,,,,,7,2.569000006,7,0.580999851,1,0,1200,60,1,1199,bikini,11140,2019-10-21_20h04.04.446,SurveyExpMetaMem,3.2.3,MacIntel,60
,,,,,,,,,,,,,,,,,,,,5,3.511999846,5,0.187000036,1,0,1200,235,1,1199,cheery,11140,2019-10-21_20h04.04.446,SurveyExpMetaMem,3.2.3,MacIntel,60
,,,,,,,,,,,,,,,,,,,,7,2.420999765,6,2.275999784,1,0,1200,159,1,1199,teenager,11140,2019-10-21_20h04.04.446,SurveyExpMetaMem,3.2.3,MacIntel,60
,,,,,,,,,,,,,,,,,,,,6,2.55099988,4,0.085999966,1,0,1200,378,1,1199,dislike,11140,2019-10-21_20h04.04.446,SurveyExpMetaMem,3.2.3,MacIntel,60
,,,,,,,,,,,,,,,,,,,,5,1.417999983,5,0.15899992,1,0,1200,760,1,1199,shrimp,11140,2019-10-21_20h04.04.446,SurveyExpMetaMem,3.2.3,MacIntel,60
,,,,,,,,,,,,,,,,,,,,3,3.108999968,5,0.694999933,1,0,1200,729,1,1199,velvet,11140,2019-10-21_20h04.04.446,SurveyExpMetaMem,3.2.3,MacIntel,60
,,,,,,,,,,,,,,,,,,,,3,2.350999832,5,0.234999895,1,0,1200,451,1,1199,lame,11140,2019-10-21_20h04.04.446,SurveyExpMetaMem,3.2.3,MacIntel,60
,,,,,,,,,,,,,,,,,,,,6,3.996999741,7,1.563999891,1,0,1200,271,1,1199,applaud,11140,2019-10-21_20h04.04.446,SurveyExpMetaMem,3.2.3,MacIntel,60
,,,,,,,,,,,,,,,,,,,,5,1.592999935,5,0.170000076,1,0,1200,381,1,1199,sloppy,11140,2019-10-21_20h04.04.446,SurveyExpMetaMem,3.2.3,MacIntel,60
,,,,,,,,,,,,,,,,,,,,7,2.906999826,3,0.083999872,1,0,1200,310,1,1199,lonely,11140,2019-10-21_20h04.04.446,SurveyExpMetaMem,3.2.3,MacIntel,60
,,,,,,,,,,,,,,,,,,,,5,4.243000031,5,0.20299983,1,0,1200,1146,1,1199,bug,11140,2019-10-21_20h04.04.446,SurveyExpMetaMem,3.2.3,MacIntel,60
,,,,,,,,,,,,,,,,,,,,7,1.174999952,3,0.144000053,1,0,1200,364,1,1199,stink,11140,2019-10-21_20h04.04.446,SurveyExpMetaMem,3.2.3,MacIntel,60
,,,,,,,,,,,,,,,,,,,,5,5.444000006,5,0.147999763,1,0,1200,1117,1,1199,court,11140,2019-10-21_20h04.04.446,SurveyExpMetaMem,3.2.3,MacIntel,60
,,,,,,,,,,,,,,,,,,,,7,3.278000116,3,0.142999887,1,0,1200,1161,1,1199,shock,11140,2019-10-21_20h04.04.446,SurveyExpMetaMem,3.2.3,MacIntel,60
,,,,,,,,,,,,,,,,,,,,7,1.460000038,3,0.118000031,1,0,1200,101,1,1199,alien,11140,2019-10-21_20h04.04.446,SurveyExpMetaMem,3.2.3,MacIntel,60
,,,,,,,,,,,,,,,,,,,,5,1.638999939,5,0.176000118,1,0,1200,163,1,1199,gem,11140,2019-10-21_20h04.04.446,SurveyExpMetaMem,3.2.3,MacIntel,60
,,,,,,,,,,,,,,,,,,,,4,2.914999962,6,0.098999977,1,0,1200,202,1,1199,mercy,11140,2019-10-21_20h04.04.446,SurveyExpMetaMem,3.2.3,MacIntel,60
,,,,,,,,,,,,,,,,,,,,5,3.287999868,5,0.153000116,1,0,1200,668,1,1199,unit,11140,2019-10-21_20h04.04.446,SurveyExpMetaMem,3.2.3,MacIntel,60
,,,,,,,,,,,,,,,,,,,,7,1.608999968,7,0.578999996,1,0,1200,237,1,1199,beautiful,11140,2019-10-21_20h04.04.446,SurveyExpMetaMem,3.2.3,MacIntel,60
,,,,,,,,,,,,,,,,,,,,6,3.076999903,4,0.602999926,1,0,1200,956,1,1199,crushed,11140,2019-10-21_20h04.04.446,SurveyExpMetaMem,3.2.3,MacIntel,60
,,,,,,,,,,,,,,,,,,,,6,1.743000031,4,0.147000074,1,0,1200,960,1,1199,irritated,11140,2019-10-21_20h04.04.446,SurveyExpMetaMem,3.2.3,MacIntel,60
,,,,,,,,,,,,,,,,,,,,7,2.152999878,3,0.688999891,1,0,1200,384,1,1199,idiot,11140,2019-10-21_20h04.04.446,SurveyExpMetaMem,3.2.3,MacIntel,60
,,,,,,,,,,,,,,,,,,,,6,1.2099998,4,0.136999846,1,0,1200,1077,1,1199,unsure,11140,2019-10-21_20h04.04.446,SurveyExpMetaMem,3.2.3,MacIntel,60
,,,,,,,,,,,,,,,,,,,,7,1.276000023,3,0.118000031,1,0,1200,1057,1,1199,deceit,11140,2019-10-21_20h04.04.446,SurveyExpMetaMem,3.2.3,MacIntel,60
,,,,,,,,,,,,,,,,,,,,5,3.972999811,5,0.163000107,1,0,1200,624,1,1199,tower,11140,2019-10-21_20h04.04.446,SurveyExpMetaMem,3.2.3,MacIntel,60
,,,,,,,,,,,,,,,,,,,,5,1.419999838,5,0.16899991,1,0,1200,276,1,1199,pastry,11140,2019-10-21_20h04.04.446,SurveyExpMetaMem,3.2.3,MacIntel,60
,,,,,,,,,,,,,,,,,,,,7,1.090999842,3,0.142999887,1,0,1200,0,1,1199,dragon,11140,2019-10-21_20h04.04.446,SurveyExpMetaMem,3.2.3,MacIntel,60
,,,,,,,,,,,,,,,,,,,,7,2.872999907,7,0.280999899,1,0,1200,26,1,1199,inspired,11140,2019-10-21_20h04.04.446,SurveyExpMetaMem,3.2.3,MacIntel,60
,,,,,,,,,,,,,,,,,,,,7,3.520999908,3,1.547999859,1,0,1200,422,1,1199,doubtful,11140,2019-10-21_20h04.04.446,SurveyExpMetaMem,3.2.3,MacIntel,60
,,,,,,,,,,,,,,,,,,,,5,2.259999752,5,0.226999998,1,0,1200,820,1,1199,oxygen,11140,2019-10-21_20h04.04.446,SurveyExpMetaMem,3.2.3,MacIntel,60
,,,,,,,,,,,,,,,,,,,,4,2.055999756,6,0.112999916,1,0,1200,661,1,1199,cow,11140,2019-10-21_20h04.04.446,SurveyExpMetaMem,3.2.3,MacIntel,60
,,,,,,,,,,,,,,,,,,,,4,2.454999924,6,0.078999996,1,0,1200,809,1,1199,boy,11140,2019-10-21_20h04.04.446,SurveyExpMetaMem,3.2.3,MacIntel,60
,,,,,,,,,,,,,,,,,,,,7,2.517999887,3,0.119999886,1,0,1200,925,1,1199,disloyal,11140,2019-10-21_20h04.04.446,SurveyExpMetaMem,3.2.3,MacIntel,60
,,,,,,,,,,,,,,,,,,,,7,0.993000031,3,0.120000124,1,0,1200,1081,1,1199,damage,11140,2019-10-21_20h04.04.446,SurveyExpMetaMem,3.2.3,MacIntel,60
,,,,,,,,,,,,,,,,,,,,5,1.534999847,5,0.16899991,1,0,1200,699,1,1199,leg,11140,2019-10-21_20h04.04.446,SurveyExpMetaMem,3.2.3,MacIntel,60
,,,,,,,,,,,,,,,,,,,,4,1.91899991,6,0.039999723,1,0,1200,733,1,1199,poetry,11140,2019-10-21_20h04.04.446,SurveyExpMetaMem,3.2.3,MacIntel,60
,,,,,,,,,,,,,,,,,,,,6,2.370000124,4,0.121999979,1,0,1200,574,1,1199,distracted,11140,2019-10-21_20h04.04.446,SurveyExpMetaMem,3.2.3,MacIntel,60
,,,,,,,,,,,,,,,,,,,,3,2.347999811,7,0.07799983,1,0,1200,143,1,1199,weekend,11140,2019-10-21_20h04.04.446,SurveyExpMetaMem,3.2.3,MacIntel,60
,,,,,,,,,,,,,,,,,,,,5,2.288999796,5,0.235999823,1,0,1200,591,1,1199,bereavement,11140,2019-10-21_20h04.04.446,SurveyExpMetaMem,3.2.3,MacIntel,60
,,,,,,,,,,,,,,,,,,,,8,2.258000135,2,0.218999863,1,0,1200,1028,1,1199,terror,11140,2019-10-21_20h04.04.446,SurveyExpMetaMem,3.2.3,MacIntel,60
,,,,,,,,,,,,,,,,,,,,7,6.710999966,3,0.194999933,1,0,1200,947,1,1199,shame,11140,2019-10-21_20h04.04.446,SurveyExpMetaMem,3.2.3,MacIntel,60
,,,,,,,,,,,,,,,,,,,,5,2.198999882,5,0.198999882,1,0,1200,267,1,1199,bold,11140,2019-10-21_20h04.04.446,SurveyExpMetaMem,3.2.3,MacIntel,60
,,,,,,,,,,,,,,,,,,,,5,2.67599988,5,0.204999924,1,0,1200,737,1,1199,lamb,11140,2019-10-21_20h04.04.446,SurveyExpMetaMem,3.2.3,MacIntel,60
,,,,,,,,,,,,,,,,,,,,6,2.458999872,6,1.068000078,1,0,1200,24,1,1199,model,11140,2019-10-21_20h04.04.446,SurveyExpMetaMem,3.2.3,MacIntel,60
,,,,,,,,,,,,,,,,,,,,8,1.659999847,2,0.15899992,1,0,1200,916,1,1199,starvation,11140,2019-10-21_20h04.04.446,SurveyExpMetaMem,3.2.3,MacIntel,60
,,,,,,,,,,,,,,,,,,,,7,1.259000063,3,0.131999969,1,0,1200,961,1,1199,crucify,11140,2019-10-21_20h04.04.446,SurveyExpMetaMem,3.2.3,MacIntel,60
,,,,,,,,,,,,,,,,,,,,5,2.630000114,5,0.184999943,1,0,1200,545,1,1199,tar,11140,2019-10-21_20h04.04.446,SurveyExpMetaMem,3.2.3,MacIntel,60
,,,,,,,,,,,,,,,,,,,,5,2.233999968,5,0.171000004,1,0,1200,726,1,1199,crackers,11140,2019-10-21_20h04.04.446,SurveyExpMetaMem,3.2.3,MacIntel,60
,,,,,,,,,,,,,,,,,,,,4,2.55099988,4,1.236999989,1,0,1200,189,1,1199,thoughtful,11140,2019-10-21_20h04.04.446,SurveyExpMetaMem,3.2.3,MacIntel,60
,,,,,,,,,,,,,,,,,,,,5,2.31099987,5,0.171000004,1,0,1200,571,1,1199,marrow,11140,2019-10-21_20h04.04.446,SurveyExpMetaMem,3.2.3,MacIntel,60
,,,,,,,,,,,,,,,,,,,,5,1.263999939,5,0.187999725,1,0,1200,285,1,1199,gold,11140,2019-10-21_20h04.04.446,SurveyExpMetaMem,3.2.3,MacIntel,60
,,,,,,,,,,,,,,,,,,,,6,1.574999809,4,0.111000061,1,0,1200,1070,1,1199,bleed,11140,2019-10-21_20h04.04.446,SurveyExpMetaMem,3.2.3,MacIntel,60
,,,,,,,,,,,,,,,,,,,,4,1.427000046,6,0.108999968,1,0,1200,784,1,1199,logical,11140,2019-10-21_20h04.04.446,SurveyExpMetaMem,3.2.3,MacIntel,60
,,,,,,,,,,,,,,,,,,,,6,3.468999863,4,0.127999783,1,0,1200,54,1,1199,alcohol,11140,2019-10-21_20h04.04.446,SurveyExpMetaMem,3.2.3,MacIntel,60
,,,,,,,,,,,,,,,,,,,,4,8.638000011,5,0.352999926,1,0,1200,676,1,1199,straighten,11140,2019-10-21_20h04.04.446,SurveyExpMetaMem,3.2.3,MacIntel,60
,,,,,,,,,,,,,,,,,,,,5,3.569000006,5,0.329999924,1,0,1200,1180,1,1199,heat,11140,2019-10-21_20h04.04.446,SurveyExpMetaMem,3.2.3,MacIntel,60
,,,,,,,,,,,,,,,,,,,,6,3.302999973,6,0.208999872,1,0,1200,38,1,1199,cheeseburger,11140,2019-10-21_20h04.04.446,SurveyExpMetaMem,3.2.3,MacIntel,60
,,,,,,,,,,,,,,,,,,,,4,4.392999887,6,0.652999878,1,0,1200,602,1,1199,vegetable,11140,2019-10-21_20h04.04.446,SurveyExpMetaMem,3.2.3,MacIntel,60
,,,,,,,,,,,,,,,,,,,,5,3.00399971,5,0.161999941,1,0,1200,450,1,1199,overcast,11140,2019-10-21_20h04.04.446,SurveyExpMetaMem,3.2.3,MacIntel,60
,,,,,,,,,,,,,,,,,,,,6,3.606999874,4,0.115999937,1,0,1200,427,1,1199,doubt,11140,2019-10-21_20h04.04.446,SurveyExpMetaMem,3.2.3,MacIntel,60
,,,,,,,,,,,,,,,,,,,,7,1.351999998,3,0.11199975,1,0,1200,1049,1,1199,electrocute,11140,2019-10-21_20h04.04.446,SurveyExpMetaMem,3.2.3,MacIntel,60
,,,,,,,,,,,,,,,,,,,,7,1.005999804,3,0.142999887,1,0,1200,983,1,1199,demonic,11140,2019-10-21_20h04.04.446,SurveyExpMetaMem,3.2.3,MacIntel,60
,,,,,,,,,,,,,,,,,,,,5,1.667999744,5,0.183999777,1,0,1200,738,1,1199,horse,11140,2019-10-21_20h04.04.446,SurveyExpMetaMem,3.2.3,MacIntel,60
,,,,,,,,,,,,,,,,,,,,5,1.204999924,5,0.17599988,1,0,1200,1092,1,1199,rattlesnake,11140,2019-10-21_20h04.04.446,SurveyExpMetaMem,3.2.3,MacIntel,60
,,,,,,,,,,,,,,,,,,,,4,3.119999886,6,0.102999926,1,0,1200,724,1,1199,owl,11140,2019-10-21_20h04.04.446,SurveyExpMetaMem,3.2.3,MacIntel,60
,,,,,,,,,,,,,,,,,,,,4,1.212999821,6,0.07400012,1,0,1200,793,1,1199,virtue,11140,2019-10-21_20h04.04.446,SurveyExpMetaMem,3.2.3,MacIntel,60
,,,,,,,,,,,,,,,,,,,,5,1.41899991,5,0.176999807,1,0,1200,582,1,1199,cling,11140,2019-10-21_20h04.04.446,SurveyExpMetaMem,3.2.3,MacIntel,60
,,,,,,,,,,,,,,,,,,,,6,3.635999918,4,0.121000051,1,0,1200,117,1,1199,powerful,11140,2019-10-21_20h04.04.446,SurveyExpMetaMem,3.2.3,MacIntel,60
,,,,,,,,,,,,,,,,,,,,5,1.836999893,5,0.314999819,1,0,1200,474,1,1199,weary,11140,2019-10-21_20h04.04.446,SurveyExpMetaMem,3.2.3,MacIntel,60
,,,,,,,,,,,,,,,,,,,,6,1.506999969,4,0.16899991,1,0,1200,400,1,1199,urine,11140,2019-10-21_20h04.04.446,SurveyExpMetaMem,3.2.3,MacIntel,60
,,,,,,,,,,,,,,,,,,,,5,4.842999935,5,0.190999985,1,0,1200,557,1,1199,class,11140,2019-10-21_20h04.04.446,SurveyExpMetaMem,3.2.3,MacIntel,60
,,,,,,,,,,,,,,,,,,,,6,1.888000011,4,0.116999865,1,0,1200,1035,1,1199,expel,11140,2019-10-21_20h04.04.446,SurveyExpMetaMem,3.2.3,MacIntel,60
,,,,,,,,,,,,,,,,,,,,7,1.111999989,3,0.09499979,1,0,1200,1022,1,1199,creepy,11140,2019-10-21_20h04.04.446,SurveyExpMetaMem,3.2.3,MacIntel,60
,,,,,,,,,,,,,,,,,,,,6,1.123999834,4,0.071999788,1,0,1200,430,1,1199,cancel,11140,2019-10-21_20h04.04.446,SurveyExpMetaMem,3.2.3,MacIntel,60
,,,,,,,,,,,,,,,,,,,,5,2.559000015,5,0.177999973,1,0,1200,1158,1,1199,dentist,11140,2019-10-21_20h04.04.446,SurveyExpMetaMem,3.2.3,MacIntel,60
,,,,,,,,,,,,,,,,,,,,6,3.351999998,4,0.188999891,1,0,1200,499,1,1199,stop,11140,2019-10-21_20h04.04.446,SurveyExpMetaMem,3.2.3,MacIntel,60
,,,,,,,,,,,,,,,,,,,,4,5.62899971,6,0.684000015,1,0,1200,815,1,1199,apple,11140,2019-10-21_20h04.04.446,SurveyExpMetaMem,3.2.3,MacIntel,60
,,,,,,,,,,,,,,,,,,,,5,1.14199996,5,0.161999941,1,0,1200,564,1,1199,wane,11140,2019-10-21_20h04.04.446,SurveyExpMetaMem,3.2.3,MacIntel,60
,,,,,,,,,,,,,,,,,,,,6,2.356999874,4,0.361999989,1,0,1200,687,1,1199,skinny,11140,2019-10-21_20h04.04.446,SurveyExpMetaMem,3.2.3,MacIntel,60
,,,,,,,,,,,,,,,,,,,,7,2.76699996,3,0.075999975,1,0,1200,350,1,1199,inadequate,11140,2019-10-21_20h04.04.446,SurveyExpMetaMem,3.2.3,MacIntel,60
,,,,,,,,,,,,,,,,,,,,6,1.618999958,4,0.070999861,1,0,1200,465,1,1199,void,11140,2019-10-21_20h04.04.446,SurveyExpMetaMem,3.2.3,MacIntel,60
,,,,,,,,,,,,,,,,,,,,6,1.362999916,4,0.109999895,1,0,1200,372,1,1199,inferior,11140,2019-10-21_20h04.04.446,SurveyExpMetaMem,3.2.3,MacIntel,60
,,,,,,,,,,,,,,,,,,,,6,4.220000029,6,0.22300005,1,0,1200,112,1,1199,jaguar,11140,2019-10-21_20h04.04.446,SurveyExpMetaMem,3.2.3,MacIntel,60
,,,,,,,,,,,,,,,,,,,,4,3.274999857,6,0.41899991,1,0,1200,852,1,1199,caring,11140,2019-10-21_20h04.04.446,SurveyExpMetaMem,3.2.3,MacIntel,60
,,,,,,,,,,,,,,,,,,,,5,3.608999968,5,0.170000076,1,0,1200,843,1,1199,garden,11140,2019-10-21_20h04.04.446,SurveyExpMetaMem,3.2.3,MacIntel,60
,,,,,,,,,,,,,,,,,,,,5,4.32799983,5,0.164000034,1,0,1200,605,1,1199,year,11140,2019-10-21_20h04.04.446,SurveyExpMetaMem,3.2.3,MacIntel,60
,,,,,,,,,,,,,,,,,,,,5,1.865999937,5,0.184999943,1,0,1200,6,1,1199,chest,11140,2019-10-21_20h04.04.446,SurveyExpMetaMem,3.2.3,MacIntel,60
,,,,,,,,,,,,,,,,,,,,4,41.58599997,6,0.075000048,1,0,1200,703,1,1199,book,11140,2019-10-21_20h04.04.446,SurveyExpMetaMem,3.2.3,MacIntel,60
,,,,,,,,,,,,,,,,,,,,6,1.490999937,4,0.083999872,1,0,1200,1063,1,1199,quarrel,11140,2019-10-21_20h04.04.446,SurveyExpMetaMem,3.2.3,MacIntel,60
,,,,,,,,,,,,,,,,,,,,5,7.261999846,5,0.184000015,1,0,1200,67,1,1199,penthouse,11140,2019-10-21_20h04.04.446,SurveyExpMetaMem,3.2.3,MacIntel,60
,,,,,,,,,,,,,,,,,,,,7,2.687000036,7,0.534999847,1,0,1200,125,1,1199,dancing,11140,2019-10-21_20h04.04.446,SurveyExpMetaMem,3.2.3,MacIntel,60
,,,,,,,,,,,,,,,,,,,,6,2.11199975,4,0.11899972,1,0,1200,306,1,1199,gloom,11140,2019-10-21_20h04.04.446,SurveyExpMetaMem,3.2.3,MacIntel,60
,,,,,,,,,,,,,,,,,,,,5,3.303999901,5,0.16899991,1,0,1200,744,1,1199,village,11140,2019-10-21_20h04.04.446,SurveyExpMetaMem,3.2.3,MacIntel,60
,,,,,,,,,,,,,,,,,,,,5,1.080999851,5,0.172999859,1,0,1200,461,1,1199,ail,11140,2019-10-21_20h04.04.446,SurveyExpMetaMem,3.2.3,MacIntel,60
,,,,,,,,,,,,,,,,,,,,7,1.950999975,3,0.118999958,1,0,1200,407,1,1199,handicap,11140,2019-10-21_20h04.04.446,SurveyExpMetaMem,3.2.3,MacIntel,60
,,,,,,,,,,,,,,,,,,,,6,2.142999887,4,0.0849998,1,0,1200,156,1,1199,gym,11140,2019-10-21_20h04.04.446,SurveyExpMetaMem,3.2.3,MacIntel,60
,,,,,,,,,,,,,,,,,,,,5,10.27499986,5,0.302999735,1,0,1200,211,1,1199,surfer,11140,2019-10-21_20h04.04.446,SurveyExpMetaMem,3.2.3,MacIntel,60
,,,,,,,,,,,,,,,,,,,,6,2.45299983,4,0.101999998,1,0,1200,1032,1,1199,exam,11140,2019-10-21_20h04.04.446,SurveyExpMetaMem,3.2.3,MacIntel,60
,,,,,,,,,,,,,,,,,,,,7,2.866999865,3,0.092999935,1,0,1200,1007,1,1199,tornado,11140,2019-10-21_20h04.04.446,SurveyExpMetaMem,3.2.3,MacIntel,60
,,,,,,,,,,,,,,,,,,,,5,1.503000021,5,0.165999889,1,0,1200,860,1,1199,silk,11140,2019-10-21_20h04.04.446,SurveyExpMetaMem,3.2.3,MacIntel,60
,,,,,,,,,,,,,,,,,,,,7,1.77699995,3,0.105999947,1,0,1200,910,1,1199,abusive,11140,2019-10-21_20h04.04.446,SurveyExpMetaMem,3.2.3,MacIntel,60
,,,,,,,,,,,,,,,,,,,,7,1.471999884,3,0.135999918,1,0,1200,1024,1,1199,burn,11140,2019-10-21_20h04.04.446,SurveyExpMetaMem,3.2.3,MacIntel,60
,,,,,,,,,,,,,,,,,,,,4,2.508999825,6,0.069999933,1,0,1200,722,1,1199,consoled,11140,2019-10-21_20h04.04.446,SurveyExpMetaMem,3.2.3,MacIntel,60
,,,,,,,,,,,,,,,,,,,,7,1.358999968,3,0.078999758,1,0,1200,470,1,1199,cynical,11140,2019-10-21_20h04.04.446,SurveyExpMetaMem,3.2.3,MacIntel,60
,,,,,,,,,,,,,,,,,,,,7,0.973999977,3,0.06799984,1,0,1200,1101,1,1199,scary,11140,2019-10-21_20h04.04.446,SurveyExpMetaMem,3.2.3,MacIntel,60
,,,,,,,,,,,,,,,,,,,,6,1.739000082,4,0.116999865,1,0,1200,583,1,1199,obey,11140,2019-10-21_20h04.04.446,SurveyExpMetaMem,3.2.3,MacIntel,60
,,,,,,,,,,,,,,,,,,,,8,2.41899991,2,0.06799984,1,0,1200,922,1,1199,nightmare,11140,2019-10-21_20h04.04.446,SurveyExpMetaMem,3.2.3,MacIntel,60
,,,,,,,,,,,,,,,,,,,,7,0.9599998,3,0.05099988,1,0,1200,973,1,1199,anger,11140,2019-10-21_20h04.04.446,SurveyExpMetaMem,3.2.3,MacIntel,60
,,,,,,,,,,,,,,,,,,,,3,2.468999863,7,0.004999876,1,0,1200,295,1,1199,passion,11140,2019-10-21_20h04.04.446,SurveyExpMetaMem,3.2.3,MacIntel,60
,,,,,,,,,,,,,,,,,,,,6,2.461999893,4,0.103999853,1,0,1200,455,1,1199,chubby,11140,2019-10-21_20h04.04.446,SurveyExpMetaMem,3.2.3,MacIntel,60
,,,,,,,,,,,,,,,,,,,,4,3.69299984,6,0.076999903,1,0,1200,631,1,1199,delicate,11140,2019-10-21_20h04.04.446,SurveyExpMetaMem,3.2.3,MacIntel,60
,,,,,,,,,,,,,,,,,,,,6,2.536000013,4,0.0849998,1,0,1200,991,1,1199,harass,11140,2019-10-21_20h04.04.446,SurveyExpMetaMem,3.2.3,MacIntel,60
,,,,,,,,,,,,,,,,,,,,3,2.280999899,7,0.065000057,1,0,1200,186,1,1199,holiday,11140,2019-10-21_20h04.04.446,SurveyExpMetaMem,3.2.3,MacIntel,60
,,,,,,,,,,,,,,,,,,,,5,1.603999853,5,0.159999847,1,0,1200,611,1,1199,herring,11140,2019-10-21_20h04.04.446,SurveyExpMetaMem,3.2.3,MacIntel,60
,,,,,,,,,,,,,,,,,,,,7,3.144000053,3,0.121999979,1,0,1200,952,1,1199,troubled,11140,2019-10-21_20h04.04.446,SurveyExpMetaMem,3.2.3,MacIntel,60
,,,,,,,,,,,,,,,,,,,,6,1.080999851,4,0.113999844,1,0,1200,1071,1,1199,uncomfortable,11140,2019-10-21_20h04.04.446,SurveyExpMetaMem,3.2.3,MacIntel,60
,,,,,,,,,,,,,,,,,,,,5,1.769999981,5,0.170999765,1,0,1200,531,1,1199,omit,11140,2019-10-21_20h04.04.446,SurveyExpMetaMem,3.2.3,MacIntel,60
,,,,,,,,,,,,,,,,,,,,5,1.249000072,5,0.173000097,1,0,1200,622,1,1199,revere,11140,2019-10-21_20h04.04.446,SurveyExpMetaMem,3.2.3,MacIntel,60
,,,,,,,,,,,,,,,,,,,,5,1.223999977,5,0.176999807,1,0,1200,1093,1,1199,hive,11140,2019-10-21_20h04.04.446,SurveyExpMetaMem,3.2.3,MacIntel,60
,,,,,,,,,,,,,,,,,,,,3,3.991999865,7,0.13499999,1,0,1200,898,1,1199,kindness,11140,2019-10-21_20h04.04.446,SurveyExpMetaMem,3.2.3,MacIntel,60
,,,,,,,,,,,,,,,,,,,,6,1.392999887,4,0.095000029,1,0,1200,486,1,1199,fool,11140,2019-10-21_20h04.04.446,SurveyExpMetaMem,3.2.3,MacIntel,60
,,,,,,,,,,,,,,,,,,,,6,1.268999815,4,0.078999996,1,0,1200,431,1,1199,itch,11140,2019-10-21_20h04.04.446,SurveyExpMetaMem,3.2.3,MacIntel,60
,,,,,,,,,,,,,,,,,,,,4,1.836999893,6,0.051999807,1,0,1200,664,1,1199,quiet,11140,2019-10-21_20h04.04.446,SurveyExpMetaMem,3.2.3,MacIntel,60
,,,,,,,,,,,,,,,,,,,,7,9.486999989,7,0.191999912,1,0,1200,282,1,1199,luck,11140,2019-10-21_20h04.04.446,SurveyExpMetaMem,3.2.3,MacIntel,60
,,,,,,,,,,,,,,,,,,,,4,34.64199996,6,0.06099987,1,0,1200,1183,1,1199,emotional,11140,2019-10-21_20h04.04.446,SurveyExpMetaMem,3.2.3,MacIntel,60
,,,,,,,,,,,,,,,,,,,,7,1.085999966,3,0.08100009,1,0,1200,949,1,1199,thief,11140,2019-10-21_20h04.04.446,SurveyExpMetaMem,3.2.3,MacIntel,60
,,,,,,,,,,,,,,,,,,,,3,1.155999899,7,0.061000109,1,0,1200,40,1,1199,kissing,11140,2019-10-21_20h04.04.446,SurveyExpMetaMem,3.2.3,MacIntel,60
,,,,,,,,,,,,,,,,,,,,7,5.788999796,3,0.136999846,1,0,1200,1086,1,1199,irritate,11140,2019-10-21_20h04.04.446,SurveyExpMetaMem,3.2.3,MacIntel,60
,,,,,,,,,,,,,,,,,,,,5,1.691999912,5,0.192000151,1,0,1200,665,1,1199,read,11140,2019-10-21_20h04.04.446,SurveyExpMetaMem,3.2.3,MacIntel,60
,,,,,,,,,,,,,,,,,,,,7,1.705999851,3,0.10800004,1,0,1200,1113,1,1199,dagger,11140,2019-10-21_20h04.04.446,SurveyExpMetaMem,3.2.3,MacIntel,60
,,,,,,,,,,,,,,,,,,,,7,4.693000078,7,1.187000036,1,0,1200,58,1,1199,boost,11140,2019-10-21_20h04.04.446,SurveyExpMetaMem,3.2.3,MacIntel,60
,,,,,,,,,,,,,,,,,,,,7,1.470000029,7,0.303999901,1,0,1200,142,1,1199,christmas,11140,2019-10-21_20h04.04.446,SurveyExpMetaMem,3.2.3,MacIntel,60
,,,,,,,,,,,,,,,,,,,,7,4.744999886,3,0.210999966,1,0,1200,1054,1,1199,jealous,11140,2019-10-21_20h04.04.446,SurveyExpMetaMem,3.2.3,MacIntel,60
,,,,,,,,,,,,,,,,,,,,3,2.369999886,6,0.388999939,1,0,1200,862,1,1199,ease,11140,2019-10-21_20h04.04.446,SurveyExpMetaMem,3.2.3,MacIntel,60
,,,,,,,,,,,,,,,,,,,,5,1.25999999,5,0.351000071,1,0,1200,463,1,1199,limp,11140,2019-10-21_20h04.04.446,SurveyExpMetaMem,3.2.3,MacIntel,60
,,,,,,,,,,,,,,,,,,,,4,1.710999966,6,0.655999899,1,0,1200,615,1,1199,lad,11140,2019-10-21_20h04.04.446,SurveyExpMetaMem,3.2.3,MacIntel,60
,,,,,,,,,,,,,,,,,,,,7,2.319000006,7,0.65199995,1,0,1200,289,1,1199,concert,11140,2019-10-21_20h04.04.446,SurveyExpMetaMem,3.2.3,MacIntel,60
