mouse_4.x,mouse_4.y,mouse_4.leftButton,mouse_4.midButton,mouse_4.rightButton,mouse.x,mouse.y,mouse.leftButton,mouse.midButton,mouse.rightButton,mouse_2.x,mouse_2.y,mouse_2.leftButton,mouse_2.midButton,mouse_2.rightButton,mouse_3.x,mouse_3.y,mouse_3.leftButton,mouse_3.midButton,mouse_3.rightButton,A_key_resp.keys,A_key_resp.rt,key_resp.keys,key_resp.rt,trials.thisRepN,trials.thisTrialN,trials.thisN,trials.thisIndex,trials.ran,trials.order,word,ParticipantID,date,expName,psychopyVersion,OS,frameRate
0.164444444,-0.026666667,1,0,0,0.007777778,0.066666667,1,0,0,0.005555556,0.037777778,1,0,0,0.005555556,0.037777778,1,0,0,6,25.50600004,6,5.980000019,1,0,1200,1061,1,1199,difficult,11128,2019-10-21_21h39.42.822,SurveyExpMetaMem,3.2.3,MacIntel,60
,,,,,,,,,,,,,,,,,,,,1,5.924999952,3,5.240999937,1,0,1200,451,1,1199,lame,11128,2019-10-21_21h39.42.822,SurveyExpMetaMem,3.2.3,MacIntel,60
,,,,,,,,,,,,,,,,,,,,5,7.22699976,5,0.862999916,1,0,1200,471,1,1199,chump,11128,2019-10-21_21h39.42.822,SurveyExpMetaMem,3.2.3,MacIntel,60
,,,,,,,,,,,,,,,,,,,,6,3.657999992,7,3.25999999,1,0,1200,25,1,1199,charisma,11128,2019-10-21_21h39.42.822,SurveyExpMetaMem,3.2.3,MacIntel,60
,,,,,,,,,,,,,,,,,,,,8,5.961999893,8,1.955999851,1,0,1200,146,1,1199,congratulations,11128,2019-10-21_21h39.42.822,SurveyExpMetaMem,3.2.3,MacIntel,60
,,,,,,,,,,,,,,,,,,,,5,4.286999941,6,1.631999969,1,0,1200,823,1,1199,nourish,11128,2019-10-21_21h39.42.822,SurveyExpMetaMem,3.2.3,MacIntel,60
,,,,,,,,,,,,,,,,,,,,5,4.926000118,2,4.644000053,1,0,1200,376,1,1199,incompetent,11128,2019-10-21_21h39.42.822,SurveyExpMetaMem,3.2.3,MacIntel,60
,,,,,,,,,,,,,,,,,,,,7,5.389999866,3,4.634000063,1,0,1200,1041,1,1199,sin,11128,2019-10-21_21h39.42.822,SurveyExpMetaMem,3.2.3,MacIntel,60
,,,,,,,,,,,,,,,,,,,,5,2.779999971,6,2.367999792,1,0,1200,774,1,1199,leaves,11128,2019-10-21_21h39.42.822,SurveyExpMetaMem,3.2.3,MacIntel,60
,,,,,,,,,,,,,,,,,,,,5,2.027999878,5,1.404999971,1,0,1200,592,1,1199,sweep,11128,2019-10-21_21h39.42.822,SurveyExpMetaMem,3.2.3,MacIntel,60
,,,,,,,,,,,,,,,,,,,,6,3.137000084,5,0.897999763,1,0,1200,813,1,1199,walking,11128,2019-10-21_21h39.42.822,SurveyExpMetaMem,3.2.3,MacIntel,60
,,,,,,,,,,,,,,,,,,,,5,2.085999966,5,1.586999893,1,0,1200,779,1,1199,shampoo,11128,2019-10-21_21h39.42.822,SurveyExpMetaMem,3.2.3,MacIntel,60
,,,,,,,,,,,,,,,,,,,,5,3.595999956,5,0.364000082,1,0,1200,906,1,1199,syphilis,11128,2019-10-21_21h39.42.822,SurveyExpMetaMem,3.2.3,MacIntel,60
,,,,,,,,,,,,,,,,,,,,6,3.144999981,7,5.750999928,1,0,1200,294,1,1199,confident,11128,2019-10-21_21h39.42.822,SurveyExpMetaMem,3.2.3,MacIntel,60
,,,,,,,,,,,,,,,,,,,,5,1.569999933,5,0.505999804,1,0,1200,756,1,1199,plant,11128,2019-10-21_21h39.42.822,SurveyExpMetaMem,3.2.3,MacIntel,60
,,,,,,,,,,,,,,,,,,,,5,3.312999964,5,0.322999954,1,0,1200,1182,1,1199,pierce,11128,2019-10-21_21h39.42.822,SurveyExpMetaMem,3.2.3,MacIntel,60
,,,,,,,,,,,,,,,,,,,,5,1.903000116,5,0.315000057,1,0,1200,702,1,1199,den,11128,2019-10-21_21h39.42.822,SurveyExpMetaMem,3.2.3,MacIntel,60
,,,,,,,,,,,,,,,,,,,,7,2.654999971,7,0.950999975,1,0,1200,226,1,1199,prize,11128,2019-10-21_21h39.42.822,SurveyExpMetaMem,3.2.3,MacIntel,60
,,,,,,,,,,,,,,,,,,,,5,1.264999866,5,0.40199995,1,0,1200,815,1,1199,apple,11128,2019-10-21_21h39.42.822,SurveyExpMetaMem,3.2.3,MacIntel,60
,,,,,,,,,,,,,,,,,,,,5,2.962999821,5,0.222000122,1,0,1200,177,1,1199,frosting,11128,2019-10-21_21h39.42.822,SurveyExpMetaMem,3.2.3,MacIntel,60
,,,,,,,,,,,,,,,,,,,,5,2.717999935,5,0.250999928,1,0,1200,738,1,1199,horse,11128,2019-10-21_21h39.42.822,SurveyExpMetaMem,3.2.3,MacIntel,60
,,,,,,,,,,,,,,,,,,,,5,2.795999765,5,0.230999947,1,0,1200,1010,1,1199,arson,11128,2019-10-21_21h39.42.822,SurveyExpMetaMem,3.2.3,MacIntel,60
,,,,,,,,,,,,,,,,,,,,4,5.638000011,7,1.177999735,1,0,1200,782,1,1199,open,11128,2019-10-21_21h39.42.822,SurveyExpMetaMem,3.2.3,MacIntel,60
,,,,,,,,,,,,,,,,,,,,4,4.956999779,2,1.563999891,1,0,1200,956,1,1199,crushed,11128,2019-10-21_21h39.42.822,SurveyExpMetaMem,3.2.3,MacIntel,60
,,,,,,,,,,,,,,,,,,,,5,1.046999931,5,0.437999725,1,0,1200,804,1,1199,peach,11128,2019-10-21_21h39.42.822,SurveyExpMetaMem,3.2.3,MacIntel,60
,,,,,,,,,,,,,,,,,,,,7,3.161999941,2,1.203999996,1,0,1200,1046,1,1199,unsafe,11128,2019-10-21_21h39.42.822,SurveyExpMetaMem,3.2.3,MacIntel,60
,,,,,,,,,,,,,,,,,,,,5,1.121999741,5,0.46999979,1,0,1200,466,1,1199,gnaw,11128,2019-10-21_21h39.42.822,SurveyExpMetaMem,3.2.3,MacIntel,60
,,,,,,,,,,,,,,,,,,,,5,1.436999798,5,0.232000113,1,0,1200,695,1,1199,teacher,11128,2019-10-21_21h39.42.822,SurveyExpMetaMem,3.2.3,MacIntel,60
,,,,,,,,,,,,,,,,,,,,7,3.364000082,1,3.13499999,1,0,1200,1012,1,1199,gunshot,11128,2019-10-21_21h39.42.822,SurveyExpMetaMem,3.2.3,MacIntel,60
,,,,,,,,,,,,,,,,,,,,5,1.549999952,5,0.619999886,1,0,1200,153,1,1199,teach,11128,2019-10-21_21h39.42.822,SurveyExpMetaMem,3.2.3,MacIntel,60
,,,,,,,,,,,,,,,,,,,,7,2.171000004,7,0.320999861,1,0,1200,127,1,1199,glamorous,11128,2019-10-21_21h39.42.822,SurveyExpMetaMem,3.2.3,MacIntel,60
,,,,,,,,,,,,,,,,,,,,6,5.105000019,2,1.628999949,1,0,1200,343,1,1199,fever,11128,2019-10-21_21h39.42.822,SurveyExpMetaMem,3.2.3,MacIntel,60
,,,,,,,,,,,,,,,,,,,,5,3.706999779,5,0.328999996,1,0,1200,1117,1,1199,court,11128,2019-10-21_21h39.42.822,SurveyExpMetaMem,3.2.3,MacIntel,60
,,,,,,,,,,,,,,,,,,,,7,2.936000109,1,1.371999741,1,0,1200,955,1,1199,drown,11128,2019-10-21_21h39.42.822,SurveyExpMetaMem,3.2.3,MacIntel,60
,,,,,,,,,,,,,,,,,,,,5,2.461999893,7,2.225999832,1,0,1200,800,1,1199,authentic,11128,2019-10-21_21h39.42.822,SurveyExpMetaMem,3.2.3,MacIntel,60
,,,,,,,,,,,,,,,,,,,,5,1.244999886,5,1.362999916,1,0,1200,1095,1,1199,fright,11128,2019-10-21_21h39.42.822,SurveyExpMetaMem,3.2.3,MacIntel,60
,,,,,,,,,,,,,,,,,,,,7,3.014999866,2,1.529999971,1,0,1200,486,1,1199,fool,11128,2019-10-21_21h39.42.822,SurveyExpMetaMem,3.2.3,MacIntel,60
,,,,,,,,,,,,,,,,,,,,5,3.157999992,2,1.448999882,1,0,1200,998,1,1199,virus,11128,2019-10-21_21h39.42.822,SurveyExpMetaMem,3.2.3,MacIntel,60
,,,,,,,,,,,,,,,,,,,,5,0.852999926,5,0.388000011,1,0,1200,672,1,1199,ketchup,11128,2019-10-21_21h39.42.822,SurveyExpMetaMem,3.2.3,MacIntel,60
,,,,,,,,,,,,,,,,,,,,5,0.867999792,5,0.302000046,1,0,1200,761,1,1199,corn,11128,2019-10-21_21h39.42.822,SurveyExpMetaMem,3.2.3,MacIntel,60
,,,,,,,,,,,,,,,,,,,,8,3.441999912,1,2.911999941,1,0,1200,922,1,1199,nightmare,11128,2019-10-21_21h39.42.822,SurveyExpMetaMem,3.2.3,MacIntel,60
,,,,,,,,,,,,,,,,,,,,7,6.188999891,4,2.491999865,1,0,1200,1051,1,1199,insane,11128,2019-10-21_21h39.42.822,SurveyExpMetaMem,3.2.3,MacIntel,60
,,,,,,,,,,,,,,,,,,,,8,3.767999887,3,3.728999853,1,0,1200,1115,1,1199,invade,11128,2019-10-21_21h39.42.822,SurveyExpMetaMem,3.2.3,MacIntel,60
,,,,,,,,,,,,,,,,,,,,7,4.055999994,3,0.695999861,1,0,1200,510,1,1199,excuse,11128,2019-10-21_21h39.42.822,SurveyExpMetaMem,3.2.3,MacIntel,60
,,,,,,,,,,,,,,,,,,,,5,4.01699996,4,1.664999962,1,0,1200,455,1,1199,chubby,11128,2019-10-21_21h39.42.822,SurveyExpMetaMem,3.2.3,MacIntel,60
,,,,,,,,,,,,,,,,,,,,5,3.25999999,5,0.325999975,1,0,1200,73,1,1199,rhythm,11128,2019-10-21_21h39.42.822,SurveyExpMetaMem,3.2.3,MacIntel,60
,,,,,,,,,,,,,,,,,,,,7,2.253000021,8,1.213999748,1,0,1200,39,1,1199,birth,11128,2019-10-21_21h39.42.822,SurveyExpMetaMem,3.2.3,MacIntel,60
,,,,,,,,,,,,,,,,,,,,5,3.063999891,3,1.360999823,1,0,1200,414,1,1199,pity,11128,2019-10-21_21h39.42.822,SurveyExpMetaMem,3.2.3,MacIntel,60
,,,,,,,,,,,,,,,,,,,,2,4.076999903,2,1.506999969,1,0,1200,481,1,1199,melancholy,11128,2019-10-21_21h39.42.822,SurveyExpMetaMem,3.2.3,MacIntel,60
,,,,,,,,,,,,,,,,,,,,6,2.862999916,2,0.822999954,1,0,1200,1143,1,1199,arrogant,11128,2019-10-21_21h39.42.822,SurveyExpMetaMem,3.2.3,MacIntel,60
,,,,,,,,,,,,,,,,,,,,7,2.129999876,7,0.457000017,1,0,1200,835,1,1199,helpful,11128,2019-10-21_21h39.42.822,SurveyExpMetaMem,3.2.3,MacIntel,60
,,,,,,,,,,,,,,,,,,,,7,3.556999922,2,1.878999949,1,0,1200,1032,1,1199,exam,11128,2019-10-21_21h39.42.822,SurveyExpMetaMem,3.2.3,MacIntel,60
,,,,,,,,,,,,,,,,,,,,2,2.906999826,8,3.926999807,1,0,1200,803,1,1199,tidy,11128,2019-10-21_21h39.42.822,SurveyExpMetaMem,3.2.3,MacIntel,60
,,,,,,,,,,,,,,,,,,,,5,1.666999817,5,0.328999996,1,0,1200,941,1,1199,leprosy,11128,2019-10-21_21h39.42.822,SurveyExpMetaMem,3.2.3,MacIntel,60
,,,,,,,,,,,,,,,,,,,,5,1.661000013,5,0.238999844,1,0,1200,505,1,1199,exhaust,11128,2019-10-21_21h39.42.822,SurveyExpMetaMem,3.2.3,MacIntel,60
,,,,,,,,,,,,,,,,,,,,5,2.261999846,3,1.186999798,1,0,1200,495,1,1199,dust,11128,2019-10-21_21h39.42.822,SurveyExpMetaMem,3.2.3,MacIntel,60
,,,,,,,,,,,,,,,,,,,,5,2.198999882,5,0.381000042,1,0,1200,746,1,1199,proper,11128,2019-10-21_21h39.42.822,SurveyExpMetaMem,3.2.3,MacIntel,60
,,,,,,,,,,,,,,,,,,,,3,2.15199995,5,1.786000013,1,0,1200,527,1,1199,passive,11128,2019-10-21_21h39.42.822,SurveyExpMetaMem,3.2.3,MacIntel,60
,,,,,,,,,,,,,,,,,,,,5,1.010999918,5,0.269999981,1,0,1200,865,1,1199,bliss,11128,2019-10-21_21h39.42.822,SurveyExpMetaMem,3.2.3,MacIntel,60
,,,,,,,,,,,,,,,,,,,,4,3.476999998,7,1.399999857,1,0,1200,287,1,1199,optimistic,11128,2019-10-21_21h39.42.822,SurveyExpMetaMem,3.2.3,MacIntel,60
,,,,,,,,,,,,,,,,,,,,5,1.77699995,5,0.339999914,1,0,1200,11,1,1199,astonished,11128,2019-10-21_21h39.42.822,SurveyExpMetaMem,3.2.3,MacIntel,60
,,,,,,,,,,,,,,,,,,,,5,8.305000067,5,0.211999893,1,0,1200,379,1,1199,slob,11128,2019-10-21_21h39.42.822,SurveyExpMetaMem,3.2.3,MacIntel,60
,,,,,,,,,,,,,,,,,,,,5,3.127000093,3,2.207000017,1,0,1200,392,1,1199,moody,11128,2019-10-21_21h39.42.822,SurveyExpMetaMem,3.2.3,MacIntel,60
,,,,,,,,,,,,,,,,,,,,5,5.518999815,4,1.921999931,1,0,1200,1089,1,1199,ridicule,11128,2019-10-21_21h39.42.822,SurveyExpMetaMem,3.2.3,MacIntel,60
,,,,,,,,,,,,,,,,,,,,2,2.934999943,7,1.130000114,1,0,1200,848,1,1199,graceful,11128,2019-10-21_21h39.42.822,SurveyExpMetaMem,3.2.3,MacIntel,60
,,,,,,,,,,,,,,,,,,,,7,5.095000029,2,0.940000057,1,0,1200,1123,1,1199,haunt,11128,2019-10-21_21h39.42.822,SurveyExpMetaMem,3.2.3,MacIntel,60
,,,,,,,,,,,,,,,,,,,,5,1.599999905,5,0.312999725,1,0,1200,283,1,1199,elated,11128,2019-10-21_21h39.42.822,SurveyExpMetaMem,3.2.3,MacIntel,60
,,,,,,,,,,,,,,,,,,,,5,4.203000069,5,0.252999783,1,0,1200,356,1,1199,mucous,11128,2019-10-21_21h39.42.822,SurveyExpMetaMem,3.2.3,MacIntel,60
,,,,,,,,,,,,,,,,,,,,7,3.635999918,5,0.912999868,1,0,1200,1068,1,1199,riot,11128,2019-10-21_21h39.42.822,SurveyExpMetaMem,3.2.3,MacIntel,60
,,,,,,,,,,,,,,,,,,,,8,5.076999903,2,1.767999887,1,0,1200,924,1,1199,terrible,11128,2019-10-21_21h39.42.822,SurveyExpMetaMem,3.2.3,MacIntel,60
,,,,,,,,,,,,,,,,,,,,2,6.841999769,1,1.253999949,1,0,1200,302,1,1199,loneliness,11128,2019-10-21_21h39.42.822,SurveyExpMetaMem,3.2.3,MacIntel,60
,,,,,,,,,,,,,,,,,,,,3,1.962999821,5,0.931999922,1,0,1200,878,1,1199,sleep,11128,2019-10-21_21h39.42.822,SurveyExpMetaMem,3.2.3,MacIntel,60
,,,,,,,,,,,,,,,,,,,,7,2.536999941,6,1.78399992,1,0,1200,59,1,1199,sports,11128,2019-10-21_21h39.42.822,SurveyExpMetaMem,3.2.3,MacIntel,60
,,,,,,,,,,,,,,,,,,,,5,3.45299983,4,1.522000074,1,0,1200,398,1,1199,handicapped,11128,2019-10-21_21h39.42.822,SurveyExpMetaMem,3.2.3,MacIntel,60
,,,,,,,,,,,,,,,,,,,,7,3.288999796,2,1.426999807,1,0,1200,987,1,1199,disgusted,11128,2019-10-21_21h39.42.822,SurveyExpMetaMem,3.2.3,MacIntel,60
,,,,,,,,,,,,,,,,,,,,7,2.512000084,6,1.713999987,1,0,1200,116,1,1199,carnival,11128,2019-10-21_21h39.42.822,SurveyExpMetaMem,3.2.3,MacIntel,60
,,,,,,,,,,,,,,,,,,,,5,1.31799984,5,0.250999928,1,0,1200,818,1,1199,priest,11128,2019-10-21_21h39.42.822,SurveyExpMetaMem,3.2.3,MacIntel,60
,,,,,,,,,,,,,,,,,,,,7,1.762999773,2,0.924999952,1,0,1200,1065,1,1199,slap,11128,2019-10-21_21h39.42.822,SurveyExpMetaMem,3.2.3,MacIntel,60
,,,,,,,,,,,,,,,,,,,,9,3.144000053,1,1.140999794,1,0,1200,1021,1,1199,attack,11128,2019-10-21_21h39.42.822,SurveyExpMetaMem,3.2.3,MacIntel,60
,,,,,,,,,,,,,,,,,,,,5,2.216999769,5,0.228999853,1,0,1200,757,1,1199,sentiment,11128,2019-10-21_21h39.42.822,SurveyExpMetaMem,3.2.3,MacIntel,60
,,,,,,,,,,,,,,,,,,,,6,2.052000046,5,1.286999941,1,0,1200,114,1,1199,raise,11128,2019-10-21_21h39.42.822,SurveyExpMetaMem,3.2.3,MacIntel,60
,,,,,,,,,,,,,,,,,,,,5,4.700999975,5,0.403999805,1,0,1200,437,1,1199,blubber,11128,2019-10-21_21h39.42.822,SurveyExpMetaMem,3.2.3,MacIntel,60
,,,,,,,,,,,,,,,,,,,,5,1.884000063,5,0.237999916,1,0,1200,273,1,1199,worthwhile,11128,2019-10-21_21h39.42.822,SurveyExpMetaMem,3.2.3,MacIntel,60
,,,,,,,,,,,,,,,,,,,,5,1.341999769,5,0.204999924,1,0,1200,707,1,1199,adapt,11128,2019-10-21_21h39.42.822,SurveyExpMetaMem,3.2.3,MacIntel,60
,,,,,,,,,,,,,,,,,,,,5,0.828999996,5,0.205999851,1,0,1200,412,1,1199,mucus,11128,2019-10-21_21h39.42.822,SurveyExpMetaMem,3.2.3,MacIntel,60
,,,,,,,,,,,,,,,,,,,,5,1.553999901,5,0.262999773,1,0,1200,1103,1,1199,mob,11128,2019-10-21_21h39.42.822,SurveyExpMetaMem,3.2.3,MacIntel,60
,,,,,,,,,,,,,,,,,,,,5,1.054000139,5,0.243999958,1,0,1200,547,1,1199,cellar,11128,2019-10-21_21h39.42.822,SurveyExpMetaMem,3.2.3,MacIntel,60
,,,,,,,,,,,,,,,,,,,,5,1.683999777,5,0.18599987,1,0,1200,599,1,1199,obstinate,11128,2019-10-21_21h39.42.822,SurveyExpMetaMem,3.2.3,MacIntel,60
,,,,,,,,,,,,,,,,,,,,5,1.651000023,5,0.167000055,1,0,1200,468,1,1199,noose,11128,2019-10-21_21h39.42.822,SurveyExpMetaMem,3.2.3,MacIntel,60
,,,,,,,,,,,,,,,,,,,,5,0.885999918,5,0.181999922,1,0,1200,605,1,1199,year,11128,2019-10-21_21h39.42.822,SurveyExpMetaMem,3.2.3,MacIntel,60
,,,,,,,,,,,,,,,,,,,,5,0.996000051,5,0.235999823,1,0,1200,788,1,1199,cook,11128,2019-10-21_21h39.42.822,SurveyExpMetaMem,3.2.3,MacIntel,60
,,,,,,,,,,,,,,,,,,,,6,2.312999964,5,1.31099987,1,0,1200,270,1,1199,toddler,11128,2019-10-21_21h39.42.822,SurveyExpMetaMem,3.2.3,MacIntel,60
,,,,,,,,,,,,,,,,,,,,5,1.341999769,5,0.184999943,1,0,1200,588,1,1199,bandage,11128,2019-10-21_21h39.42.822,SurveyExpMetaMem,3.2.3,MacIntel,60
,,,,,,,,,,,,,,,,,,,,7,2.368999958,7,1.529999971,1,0,1200,181,1,1199,fascinate,11128,2019-10-21_21h39.42.822,SurveyExpMetaMem,3.2.3,MacIntel,60
,,,,,,,,,,,,,,,,,,,,8,2.503000021,2,3.829999924,1,0,1200,1001,1,1199,rude,11128,2019-10-21_21h39.42.822,SurveyExpMetaMem,3.2.3,MacIntel,60
,,,,,,,,,,,,,,,,,,,,5,0.960999727,5,0.410999775,1,0,1200,70,1,1199,cartoon,11128,2019-10-21_21h39.42.822,SurveyExpMetaMem,3.2.3,MacIntel,60
,,,,,,,,,,,,,,,,,,,,5,0.904000044,5,0.204999924,1,0,1200,789,1,1199,green,11128,2019-10-21_21h39.42.822,SurveyExpMetaMem,3.2.3,MacIntel,60
,,,,,,,,,,,,,,,,,,,,7,6.164000034,5,0.885999918,1,0,1200,150,1,1199,vodka,11128,2019-10-21_21h39.42.822,SurveyExpMetaMem,3.2.3,MacIntel,60
,,,,,,,,,,,,,,,,,,,,3,3.187000036,6,1.429999828,1,0,1200,189,1,1199,thoughtful,11128,2019-10-21_21h39.42.822,SurveyExpMetaMem,3.2.3,MacIntel,60
,,,,,,,,,,,,,,,,,,,,2,2.639999866,1,1.042999983,1,0,1200,307,1,1199,sick,11128,2019-10-21_21h39.42.822,SurveyExpMetaMem,3.2.3,MacIntel,60
,,,,,,,,,,,,,,,,,,,,5,1.204999924,5,0.230000019,1,0,1200,598,1,1199,feet,11128,2019-10-21_21h39.42.822,SurveyExpMetaMem,3.2.3,MacIntel,60
,,,,,,,,,,,,,,,,,,,,3,1.747999907,1,1.670999765,1,0,1200,301,1,1199,sad,11128,2019-10-21_21h39.42.822,SurveyExpMetaMem,3.2.3,MacIntel,60
,,,,,,,,,,,,,,,,,,,,5,1.500999928,5,0.243999958,1,0,1200,638,1,1199,quench,11128,2019-10-21_21h39.42.822,SurveyExpMetaMem,3.2.3,MacIntel,60
,,,,,,,,,,,,,,,,,,,,5,1.032999992,5,0.19299984,1,0,1200,725,1,1199,checkerboard,11128,2019-10-21_21h39.42.822,SurveyExpMetaMem,3.2.3,MacIntel,60
,,,,,,,,,,,,,,,,,,,,8,1.889999866,1,1.846999884,1,0,1200,949,1,1199,thief,11128,2019-10-21_21h39.42.822,SurveyExpMetaMem,3.2.3,MacIntel,60
,,,,,,,,,,,,,,,,,,,,5,1.39199996,5,0.198999882,1,0,1200,175,1,1199,playground,11128,2019-10-21_21h39.42.822,SurveyExpMetaMem,3.2.3,MacIntel,60
,,,,,,,,,,,,,,,,,,,,5,0.89199996,5,0.195999861,1,0,1200,996,1,1199,sting,11128,2019-10-21_21h39.42.822,SurveyExpMetaMem,3.2.3,MacIntel,60
,,,,,,,,,,,,,,,,,,,,7,2.121999979,7,1.339999914,1,0,1200,182,1,1199,genius,11128,2019-10-21_21h39.42.822,SurveyExpMetaMem,3.2.3,MacIntel,60
,,,,,,,,,,,,,,,,,,,,5,2.437999964,5,1.152999878,1,0,1200,687,1,1199,skinny,11128,2019-10-21_21h39.42.822,SurveyExpMetaMem,3.2.3,MacIntel,60
,,,,,,,,,,,,,,,,,,,,7,3.375999928,8,1.871999979,1,0,1200,37,1,1199,magnificence,11128,2019-10-21_21h39.42.822,SurveyExpMetaMem,3.2.3,MacIntel,60
,,,,,,,,,,,,,,,,,,,,4,3.196000099,4,1.144999981,1,0,1200,432,1,1199,resign,11128,2019-10-21_21h39.42.822,SurveyExpMetaMem,3.2.3,MacIntel,60
,,,,,,,,,,,,,,,,,,,,5,1.404000044,5,0.197999954,1,0,1200,849,1,1199,blue,11128,2019-10-21_21h39.42.822,SurveyExpMetaMem,3.2.3,MacIntel,60
,,,,,,,,,,,,,,,,,,,,5,1.502999783,5,0.279999971,1,0,1200,961,1,1199,crucify,11128,2019-10-21_21h39.42.822,SurveyExpMetaMem,3.2.3,MacIntel,60
,,,,,,,,,,,,,,,,,,,,5,0.964999914,5,0.275000095,1,0,1200,155,1,1199,ignite,11128,2019-10-21_21h39.42.822,SurveyExpMetaMem,3.2.3,MacIntel,60
,,,,,,,,,,,,,,,,,,,,5,1.272000074,5,0.233999968,1,0,1200,659,1,1199,hair,11128,2019-10-21_21h39.42.822,SurveyExpMetaMem,3.2.3,MacIntel,60
,,,,,,,,,,,,,,,,,,,,7,2.296000004,5,0.878999949,1,0,1200,243,1,1199,fame,11128,2019-10-21_21h39.42.822,SurveyExpMetaMem,3.2.3,MacIntel,60
,,,,,,,,,,,,,,,,,,,,8,2.477999926,3,1.946999788,1,0,1200,1098,1,1199,confused,11128,2019-10-21_21h39.42.822,SurveyExpMetaMem,3.2.3,MacIntel,60
,,,,,,,,,,,,,,,,,,,,5,1.207000017,5,0.430999994,1,0,1200,712,1,1199,harvest,11128,2019-10-21_21h39.42.822,SurveyExpMetaMem,3.2.3,MacIntel,60
,,,,,,,,,,,,,,,,,,,,5,0.728999853,5,0.200999975,1,0,1200,993,1,1199,remorse,11128,2019-10-21_21h39.42.822,SurveyExpMetaMem,3.2.3,MacIntel,60
,,,,,,,,,,,,,,,,,,,,6,5.117999792,2,1.296999931,1,0,1200,346,1,1199,alcoholism,11128,2019-10-21_21h39.42.822,SurveyExpMetaMem,3.2.3,MacIntel,60
,,,,,,,,,,,,,,,,,,,,5,1.109999895,5,0.253000021,1,0,1200,474,1,1199,weary,11128,2019-10-21_21h39.42.822,SurveyExpMetaMem,3.2.3,MacIntel,60
,,,,,,,,,,,,,,,,,,,,3,3.417000055,8,2.388000011,1,0,1200,218,1,1199,charming,11128,2019-10-21_21h39.42.822,SurveyExpMetaMem,3.2.3,MacIntel,60
,,,,,,,,,,,,,,,,,,,,5,1.062999964,5,0.197999954,1,0,1200,1127,1,1199,spank,11128,2019-10-21_21h39.42.822,SurveyExpMetaMem,3.2.3,MacIntel,60
,,,,,,,,,,,,,,,,,,,,5,2.286000013,5,0.23300004,1,0,1200,205,1,1199,outspoken,11128,2019-10-21_21h39.42.822,SurveyExpMetaMem,3.2.3,MacIntel,60
,,,,,,,,,,,,,,,,,,,,3,2.760999918,7,1.651000023,1,0,1200,862,1,1199,ease,11128,2019-10-21_21h39.42.822,SurveyExpMetaMem,3.2.3,MacIntel,60
,,,,,,,,,,,,,,,,,,,,5,0.851000071,5,0.335999727,1,0,1200,623,1,1199,suburban,11128,2019-10-21_21h39.42.822,SurveyExpMetaMem,3.2.3,MacIntel,60
,,,,,,,,,,,,,,,,,,,,5,2.976999998,5,0.212999821,1,0,1200,1178,1,1199,weight,11128,2019-10-21_21h39.42.822,SurveyExpMetaMem,3.2.3,MacIntel,60
,,,,,,,,,,,,,,,,,,,,5,2.56099987,7,1.106999874,1,0,1200,876,1,1199,politeness,11128,2019-10-21_21h39.42.822,SurveyExpMetaMem,3.2.3,MacIntel,60
,,,,,,,,,,,,,,,,,,,,5,0.952000141,5,0.196000099,1,0,1200,1154,1,1199,politics,11128,2019-10-21_21h39.42.822,SurveyExpMetaMem,3.2.3,MacIntel,60
,,,,,,,,,,,,,,,,,,,,8,2.494999886,1,1.414000034,1,0,1200,904,1,1199,murderer,11128,2019-10-21_21h39.42.822,SurveyExpMetaMem,3.2.3,MacIntel,60
,,,,,,,,,,,,,,,,,,,,8,2.049000025,9,2.200999975,1,0,1200,195,1,1199,laughing,11128,2019-10-21_21h39.42.822,SurveyExpMetaMem,3.2.3,MacIntel,60
,,,,,,,,,,,,,,,,,,,,5,1.50999999,5,0.227999926,1,0,1200,657,1,1199,peanut,11128,2019-10-21_21h39.42.822,SurveyExpMetaMem,3.2.3,MacIntel,60
,,,,,,,,,,,,,,,,,,,,5,0.796999931,5,0.221999884,1,0,1200,755,1,1199,soap,11128,2019-10-21_21h39.42.822,SurveyExpMetaMem,3.2.3,MacIntel,60
,,,,,,,,,,,,,,,,,,,,5,1.102999926,5,0.197000027,1,0,1200,750,1,1199,porpoise,11128,2019-10-21_21h39.42.822,SurveyExpMetaMem,3.2.3,MacIntel,60
,,,,,,,,,,,,,,,,,,,,5,0.815999746,5,0.206999779,1,0,1200,110,1,1199,animal,11128,2019-10-21_21h39.42.822,SurveyExpMetaMem,3.2.3,MacIntel,60
,,,,,,,,,,,,,,,,,,,,5,1.75,5,0.243999958,1,0,1200,211,1,1199,surfer,11128,2019-10-21_21h39.42.822,SurveyExpMetaMem,3.2.3,MacIntel,60
,,,,,,,,,,,,,,,,,,,,5,3.734999895,5,0.200999975,1,0,1200,870,1,1199,safe,11128,2019-10-21_21h39.42.822,SurveyExpMetaMem,3.2.3,MacIntel,60
,,,,,,,,,,,,,,,,,,,,6,6.80099988,3,0.967999935,1,0,1200,1088,1,1199,forbid,11128,2019-10-21_21h39.42.822,SurveyExpMetaMem,3.2.3,MacIntel,60
,,,,,,,,,,,,,,,,,,,,5,1.344000101,5,0.230999947,1,0,1200,1114,1,1199,foe,11128,2019-10-21_21h39.42.822,SurveyExpMetaMem,3.2.3,MacIntel,60
,,,,,,,,,,,,,,,,,,,,5,0.960999966,5,0.201999903,1,0,1200,1113,1,1199,dagger,11128,2019-10-21_21h39.42.822,SurveyExpMetaMem,3.2.3,MacIntel,60
,,,,,,,,,,,,,,,,,,,,5,1.286000013,5,0.188999891,1,0,1200,850,1,1199,lake,11128,2019-10-21_21h39.42.822,SurveyExpMetaMem,3.2.3,MacIntel,60
,,,,,,,,,,,,,,,,,,,,5,1.230000019,5,0.218999863,1,0,1200,667,1,1199,dew,11128,2019-10-21_21h39.42.822,SurveyExpMetaMem,3.2.3,MacIntel,60
,,,,,,,,,,,,,,,,,,,,7,2.970000029,9,1.552999973,1,0,1200,77,1,1199,adore,11128,2019-10-21_21h39.42.822,SurveyExpMetaMem,3.2.3,MacIntel,60
,,,,,,,,,,,,,,,,,,,,5,2.713000059,8,0.724999905,1,0,1200,886,1,1199,sunflower,11128,2019-10-21_21h39.42.822,SurveyExpMetaMem,3.2.3,MacIntel,60
,,,,,,,,,,,,,,,,,,,,5,2.178999901,5,0.247999907,1,0,1200,20,1,1199,climax,11128,2019-10-21_21h39.42.822,SurveyExpMetaMem,3.2.3,MacIntel,60
,,,,,,,,,,,,,,,,,,,,2,2.673000097,7,3.29399991,1,0,1200,895,1,1199,peace,11128,2019-10-21_21h39.42.822,SurveyExpMetaMem,3.2.3,MacIntel,60
,,,,,,,,,,,,,,,,,,,,5,2.556999922,5,0.194999933,1,0,1200,1153,1,1199,mangle,11128,2019-10-21_21h39.42.822,SurveyExpMetaMem,3.2.3,MacIntel,60
,,,,,,,,,,,,,,,,,,,,2,2.818000078,8,0.885999918,1,0,1200,577,1,1199,retreat,11128,2019-10-21_21h39.42.822,SurveyExpMetaMem,3.2.3,MacIntel,60
,,,,,,,,,,,,,,,,,,,,7,1.802999735,6,3.385999918,1,0,1200,21,1,1199,game,11128,2019-10-21_21h39.42.822,SurveyExpMetaMem,3.2.3,MacIntel,60
,,,,,,,,,,,,,,,,,,,,5,0.996999979,5,0.263000011,1,0,1200,1136,1,1199,appall,11128,2019-10-21_21h39.42.822,SurveyExpMetaMem,3.2.3,MacIntel,60
,,,,,,,,,,,,,,,,,,,,5,0.69299984,5,0.178999901,1,0,1200,655,1,1199,name,11128,2019-10-21_21h39.42.822,SurveyExpMetaMem,3.2.3,MacIntel,60
,,,,,,,,,,,,,,,,,,,,5,1.190999985,5,0.234999895,1,0,1200,1082,1,1199,hazard,11128,2019-10-21_21h39.42.822,SurveyExpMetaMem,3.2.3,MacIntel,60
,,,,,,,,,,,,,,,,,,,,7,1.296000004,6,1.036000013,1,0,1200,184,1,1199,surprised,11128,2019-10-21_21h39.42.822,SurveyExpMetaMem,3.2.3,MacIntel,60
,,,,,,,,,,,,,,,,,,,,3,2.195999861,7,2.828000069,1,0,1200,852,1,1199,caring,11128,2019-10-21_21h39.42.822,SurveyExpMetaMem,3.2.3,MacIntel,60
,,,,,,,,,,,,,,,,,,,,5,2.044999838,5,1.641000032,1,0,1200,1002,1,1199,wounds,11128,2019-10-21_21h39.42.822,SurveyExpMetaMem,3.2.3,MacIntel,60
,,,,,,,,,,,,,,,,,,,,6,2.479999781,3,2.722000122,1,0,1200,975,1,1199,insecure,11128,2019-10-21_21h39.42.822,SurveyExpMetaMem,3.2.3,MacIntel,60
,,,,,,,,,,,,,,,,,,,,5,2.734999895,5,0.228999853,1,0,1200,1145,1,1199,officer,11128,2019-10-21_21h39.42.822,SurveyExpMetaMem,3.2.3,MacIntel,60
,,,,,,,,,,,,,,,,,,,,5,1.055000067,5,0.238999844,1,0,1200,1034,1,1199,pester,11128,2019-10-21_21h39.42.822,SurveyExpMetaMem,3.2.3,MacIntel,60
,,,,,,,,,,,,,,,,,,,,7,1.980999947,5,1.270999908,1,0,1200,522,1,1199,cleft,11128,2019-10-21_21h39.42.822,SurveyExpMetaMem,3.2.3,MacIntel,60
,,,,,,,,,,,,,,,,,,,,7,2.335999966,2,1.845999956,1,0,1200,939,1,1199,vomit,11128,2019-10-21_21h39.42.822,SurveyExpMetaMem,3.2.3,MacIntel,60
,,,,,,,,,,,,,,,,,,,,5,1.010999918,5,0.210000038,1,0,1200,266,1,1199,juice,11128,2019-10-21_21h39.42.822,SurveyExpMetaMem,3.2.3,MacIntel,60
,,,,,,,,,,,,,,,,,,,,5,2.881999969,4,1.43599987,1,0,1200,391,1,1199,detach,11128,2019-10-21_21h39.42.822,SurveyExpMetaMem,3.2.3,MacIntel,60
,,,,,,,,,,,,,,,,,,,,5,1.190999985,5,0.233999968,1,0,1200,351,1,1199,germs,11128,2019-10-21_21h39.42.822,SurveyExpMetaMem,3.2.3,MacIntel,60
,,,,,,,,,,,,,,,,,,,,5,1.112999916,5,0.221999884,1,0,1200,792,1,1199,moral,11128,2019-10-21_21h39.42.822,SurveyExpMetaMem,3.2.3,MacIntel,60
,,,,,,,,,,,,,,,,,,,,5,0.805999994,5,0.203999996,1,0,1200,1107,1,1199,snake,11128,2019-10-21_21h39.42.822,SurveyExpMetaMem,3.2.3,MacIntel,60
,,,,,,,,,,,,,,,,,,,,5,1.229999781,5,0.253000021,1,0,1200,769,1,1199,relate,11128,2019-10-21_21h39.42.822,SurveyExpMetaMem,3.2.3,MacIntel,60
,,,,,,,,,,,,,,,,,,,,7,1.598999977,8,1.130000114,1,0,1200,138,1,1199,blessings,11128,2019-10-21_21h39.42.822,SurveyExpMetaMem,3.2.3,MacIntel,60
,,,,,,,,,,,,,,,,,,,,5,3.301999807,6,1.070999861,1,0,1200,890,1,1199,carefree,11128,2019-10-21_21h39.42.822,SurveyExpMetaMem,3.2.3,MacIntel,60
,,,,,,,,,,,,,,,,,,,,6,4.146999836,5,2.980999947,1,0,1200,1187,1,1199,drill,11128,2019-10-21_21h39.42.822,SurveyExpMetaMem,3.2.3,MacIntel,60
,,,,,,,,,,,,,,,,,,,,8,7.041999817,8,1.20299983,1,0,1200,187,1,1199,excite,11128,2019-10-21_21h39.42.822,SurveyExpMetaMem,3.2.3,MacIntel,60
,,,,,,,,,,,,,,,,,,,,5,4.461999893,7,0.437000036,1,0,1200,33,1,1199,sister,11128,2019-10-21_21h39.42.822,SurveyExpMetaMem,3.2.3,MacIntel,60
,,,,,,,,,,,,,,,,,,,,5,1.429000139,5,1.105999947,1,0,1200,512,1,1199,insect,11128,2019-10-21_21h39.42.822,SurveyExpMetaMem,3.2.3,MacIntel,60
,,,,,,,,,,,,,,,,,,,,5,2.031999826,7,0.838999748,1,0,1200,820,1,1199,oxygen,11128,2019-10-21_21h39.42.822,SurveyExpMetaMem,3.2.3,MacIntel,60
,,,,,,,,,,,,,,,,,,,,8,1.75999999,7,1.396999836,1,0,1200,268,1,1199,tickle,11128,2019-10-21_21h39.42.822,SurveyExpMetaMem,3.2.3,MacIntel,60
,,,,,,,,,,,,,,,,,,,,5,1.329999924,5,0.250999928,1,0,1200,220,1,1199,reef,11128,2019-10-21_21h39.42.822,SurveyExpMetaMem,3.2.3,MacIntel,60
,,,,,,,,,,,,,,,,,,,,4,2.36199975,7,0.835999966,1,0,1200,231,1,1199,cherish,11128,2019-10-21_21h39.42.822,SurveyExpMetaMem,3.2.3,MacIntel,60
,,,,,,,,,,,,,,,,,,,,3,2.368000031,6,1.708999872,1,0,1200,856,1,1199,leisurely,11128,2019-10-21_21h39.42.822,SurveyExpMetaMem,3.2.3,MacIntel,60
,,,,,,,,,,,,,,,,,,,,5,1.215999842,5,0.252999783,1,0,1200,13,1,1199,mingle,11128,2019-10-21_21h39.42.822,SurveyExpMetaMem,3.2.3,MacIntel,60
,,,,,,,,,,,,,,,,,,,,5,4.010999918,5,0.260999918,1,0,1200,776,1,1199,doll,11128,2019-10-21_21h39.42.822,SurveyExpMetaMem,3.2.3,MacIntel,60
,,,,,,,,,,,,,,,,,,,,5,0.768999815,5,0.227999926,1,0,1200,480,1,1199,hinder,11128,2019-10-21_21h39.42.822,SurveyExpMetaMem,3.2.3,MacIntel,60
,,,,,,,,,,,,,,,,,,,,5,1.129999876,5,0.227999926,1,0,1200,836,1,1199,lounge,11128,2019-10-21_21h39.42.822,SurveyExpMetaMem,3.2.3,MacIntel,60
,,,,,,,,,,,,,,,,,,,,3,1.81099987,5,1.324999809,1,0,1200,406,1,1199,tired,11128,2019-10-21_21h39.42.822,SurveyExpMetaMem,3.2.3,MacIntel,60
,,,,,,,,,,,,,,,,,,,,7,2.110000134,2,3.081999779,1,0,1200,1185,1,1199,shotgun,11128,2019-10-21_21h39.42.822,SurveyExpMetaMem,3.2.3,MacIntel,60
,,,,,,,,,,,,,,,,,,,,3,1.667000055,8,3.204999924,1,0,1200,898,1,1199,kindness,11128,2019-10-21_21h39.42.822,SurveyExpMetaMem,3.2.3,MacIntel,60
,,,,,,,,,,,,,,,,,,,,2,2.809999943,1,0.777999878,1,0,1200,304,1,1199,depression,11128,2019-10-21_21h39.42.822,SurveyExpMetaMem,3.2.3,MacIntel,60
,,,,,,,,,,,,,,,,,,,,7,2.445999861,2,0.579999924,1,0,1200,411,1,1199,bitter,11128,2019-10-21_21h39.42.822,SurveyExpMetaMem,3.2.3,MacIntel,60
,,,,,,,,,,,,,,,,,,,,8,1.846999884,2,0.911000013,1,0,1200,1099,1,1199,fire,11128,2019-10-21_21h39.42.822,SurveyExpMetaMem,3.2.3,MacIntel,60
,,,,,,,,,,,,,,,,,,,,5,1.106999874,5,0.493999958,1,0,1200,615,1,1199,lad,11128,2019-10-21_21h39.42.822,SurveyExpMetaMem,3.2.3,MacIntel,60
,,,,,,,,,,,,,,,,,,,,2,3.013999939,2,0.298000097,1,0,1200,926,1,1199,dead,11128,2019-10-21_21h39.42.822,SurveyExpMetaMem,3.2.3,MacIntel,60
,,,,,,,,,,,,,,,,,,,,5,2.539000034,5,0.286999941,1,0,1200,501,1,1199,dustpan,11128,2019-10-21_21h39.42.822,SurveyExpMetaMem,3.2.3,MacIntel,60
,,,,,,,,,,,,,,,,,,,,5,1.087000132,5,0.21999979,1,0,1200,214,1,1199,revive,11128,2019-10-21_21h39.42.822,SurveyExpMetaMem,3.2.3,MacIntel,60
,,,,,,,,,,,,,,,,,,,,5,1.22300005,5,0.196999788,1,0,1200,256,1,1199,galaxy,11128,2019-10-21_21h39.42.822,SurveyExpMetaMem,3.2.3,MacIntel,60
,,,,,,,,,,,,,,,,,,,,9,2.731999874,1,1.478999853,1,0,1200,1161,1,1199,shock,11128,2019-10-21_21h39.42.822,SurveyExpMetaMem,3.2.3,MacIntel,60
,,,,,,,,,,,,,,,,,,,,7,1.746999979,8,0.494999886,1,0,1200,78,1,1199,energetic,11128,2019-10-21_21h39.42.822,SurveyExpMetaMem,3.2.3,MacIntel,60
,,,,,,,,,,,,,,,,,,,,5,1.786000013,5,0.187000036,1,0,1200,532,1,1199,recede,11128,2019-10-21_21h39.42.822,SurveyExpMetaMem,3.2.3,MacIntel,60
,,,,,,,,,,,,,,,,,,,,8,2.367000103,1,0.671999931,1,0,1200,914,1,1199,fail,11128,2019-10-21_21h39.42.822,SurveyExpMetaMem,3.2.3,MacIntel,60
,,,,,,,,,,,,,,,,,,,,7,5.34499979,7,0.733999968,1,0,1200,631,1,1199,delicate,11128,2019-10-21_21h39.42.822,SurveyExpMetaMem,3.2.3,MacIntel,60
,,,,,,,,,,,,,,,,,,,,5,1.342000008,5,0.280999899,1,0,1200,407,1,1199,handicap,11128,2019-10-21_21h39.42.822,SurveyExpMetaMem,3.2.3,MacIntel,60
,,,,,,,,,,,,,,,,,,,,5,2.705999851,5,0.230000019,1,0,1200,649,1,1199,donkey,11128,2019-10-21_21h39.42.822,SurveyExpMetaMem,3.2.3,MacIntel,60
,,,,,,,,,,,,,,,,,,,,6,2.080999851,6,0.494999886,1,0,1200,990,1,1199,enraged,11128,2019-10-21_21h39.42.822,SurveyExpMetaMem,3.2.3,MacIntel,60
,,,,,,,,,,,,,,,,,,,,5,3.443999767,5,0.241999865,1,0,1200,690,1,1199,similar,11128,2019-10-21_21h39.42.822,SurveyExpMetaMem,3.2.3,MacIntel,60
,,,,,,,,,,,,,,,,,,,,5,0.694000006,5,0.212000132,1,0,1200,1067,1,1199,wicked,11128,2019-10-21_21h39.42.822,SurveyExpMetaMem,3.2.3,MacIntel,60
,,,,,,,,,,,,,,,,,,,,5,0.962999821,5,0.233999968,1,0,1200,361,1,1199,glum,11128,2019-10-21_21h39.42.822,SurveyExpMetaMem,3.2.3,MacIntel,60
,,,,,,,,,,,,,,,,,,,,5,0.650999784,5,0.203000069,1,0,1200,460,1,1199,rag,11128,2019-10-21_21h39.42.822,SurveyExpMetaMem,3.2.3,MacIntel,60
,,,,,,,,,,,,,,,,,,,,5,0.928999901,5,0.238999844,1,0,1200,685,1,1199,makeup,11128,2019-10-21_21h39.42.822,SurveyExpMetaMem,3.2.3,MacIntel,60
,,,,,,,,,,,,,,,,,,,,7,1.445999861,7,0.844000101,1,0,1200,281,1,1199,summer,11128,2019-10-21_21h39.42.822,SurveyExpMetaMem,3.2.3,MacIntel,60
,,,,,,,,,,,,,,,,,,,,5,0.972999811,5,0.211999893,1,0,1200,722,1,1199,consoled,11128,2019-10-21_21h39.42.822,SurveyExpMetaMem,3.2.3,MacIntel,60
,,,,,,,,,,,,,,,,,,,,5,1.180999994,5,0.235000134,1,0,1200,645,1,1199,telescope,11128,2019-10-21_21h39.42.822,SurveyExpMetaMem,3.2.3,MacIntel,60
,,,,,,,,,,,,,,,,,,,,5,1.173999786,5,0.170000076,1,0,1200,6,1,1199,chest,11128,2019-10-21_21h39.42.822,SurveyExpMetaMem,3.2.3,MacIntel,60
,,,,,,,,,,,,,,,,,,,,7,4.150000095,2,1.319999933,1,0,1200,969,1,1199,whore,11128,2019-10-21_21h39.42.822,SurveyExpMetaMem,3.2.3,MacIntel,60
,,,,,,,,,,,,,,,,,,,,5,1.517999887,5,0.200999975,1,0,1200,2,1,1199,zealous,11128,2019-10-21_21h39.42.822,SurveyExpMetaMem,3.2.3,MacIntel,60
,,,,,,,,,,,,,,,,,,,,5,7.566999912,5,0.184000015,1,0,1200,385,1,1199,tiresome,11128,2019-10-21_21h39.42.822,SurveyExpMetaMem,3.2.3,MacIntel,60
,,,,,,,,,,,,,,,,,,,,6,2.089999914,6,1.096999884,1,0,1200,157,1,1199,reveal,11128,2019-10-21_21h39.42.822,SurveyExpMetaMem,3.2.3,MacIntel,60
,,,,,,,,,,,,,,,,,,,,5,1.358999968,5,0.205999851,1,0,1200,368,1,1199,dreary,11128,2019-10-21_21h39.42.822,SurveyExpMetaMem,3.2.3,MacIntel,60
,,,,,,,,,,,,,,,,,,,,3,2.335000038,1,0.904000044,1,0,1200,300,1,1199,unhappy,11128,2019-10-21_21h39.42.822,SurveyExpMetaMem,3.2.3,MacIntel,60
,,,,,,,,,,,,,,,,,,,,6,3.784999847,3,1.004999876,1,0,1200,457,1,1199,confuse,11128,2019-10-21_21h39.42.822,SurveyExpMetaMem,3.2.3,MacIntel,60
,,,,,,,,,,,,,,,,,,,,7,2.401000023,5,0.921000004,1,0,1200,58,1,1199,boost,11128,2019-10-21_21h39.42.822,SurveyExpMetaMem,3.2.3,MacIntel,60
,,,,,,,,,,,,,,,,,,,,5,1.438999891,5,0.486999989,1,0,1200,483,1,1199,condescension,11128,2019-10-21_21h39.42.822,SurveyExpMetaMem,3.2.3,MacIntel,60
,,,,,,,,,,,,,,,,,,,,7,2.082000017,2,0.828000069,1,0,1200,1100,1,1199,evil,11128,2019-10-21_21h39.42.822,SurveyExpMetaMem,3.2.3,MacIntel,60
,,,,,,,,,,,,,,,,,,,,5,1.134999752,5,0.245999813,1,0,1200,24,1,1199,model,11128,2019-10-21_21h39.42.822,SurveyExpMetaMem,3.2.3,MacIntel,60
,,,,,,,,,,,,,,,,,,,,5,0.902999878,5,0.196000099,1,0,1200,557,1,1199,class,11128,2019-10-21_21h39.42.822,SurveyExpMetaMem,3.2.3,MacIntel,60
,,,,,,,,,,,,,,,,,,,,6,3.32799983,7,1.226999998,1,0,1200,45,1,1199,sex,11128,2019-10-21_21h39.42.822,SurveyExpMetaMem,3.2.3,MacIntel,60
,,,,,,,,,,,,,,,,,,,,7,5.381000042,7,0.586999893,1,0,1200,93,1,1199,smiling,11128,2019-10-21_21h39.42.822,SurveyExpMetaMem,3.2.3,MacIntel,60
,,,,,,,,,,,,,,,,,,,,5,3.03399992,3,0.95299983,1,0,1200,1077,1,1199,unsure,11128,2019-10-21_21h39.42.822,SurveyExpMetaMem,3.2.3,MacIntel,60
,,,,,,,,,,,,,,,,,,,,5,1.289999962,5,0.236000061,1,0,1200,825,1,1199,swan,11128,2019-10-21_21h39.42.822,SurveyExpMetaMem,3.2.3,MacIntel,60
,,,,,,,,,,,,,,,,,,,,5,0.674999952,5,0.214999914,1,0,1200,387,1,1199,tax,11128,2019-10-21_21h39.42.822,SurveyExpMetaMem,3.2.3,MacIntel,60
,,,,,,,,,,,,,,,,,,,,5,3.305999756,5,0.243999958,1,0,1200,1158,1,1199,dentist,11128,2019-10-21_21h39.42.822,SurveyExpMetaMem,3.2.3,MacIntel,60
,,,,,,,,,,,,,,,,,,,,6,1.619999886,5,1.100999832,1,0,1200,1197,1,1199,command,11128,2019-10-21_21h39.42.822,SurveyExpMetaMem,3.2.3,MacIntel,60
,,,,,,,,,,,,,,,,,,,,6,7.855000019,4,1.745999813,1,0,1200,5,1,1199,drunk,11128,2019-10-21_21h39.42.822,SurveyExpMetaMem,3.2.3,MacIntel,60
,,,,,,,,,,,,,,,,,,,,7,4.220000029,6,3.128000021,1,0,1200,1170,1,1199,police,11128,2019-10-21_21h39.42.822,SurveyExpMetaMem,3.2.3,MacIntel,60
,,,,,,,,,,,,,,,,,,,,7,7.359999895,2,1.196000099,1,0,1200,909,1,1199,terrified,11128,2019-10-21_21h39.42.822,SurveyExpMetaMem,3.2.3,MacIntel,60
,,,,,,,,,,,,,,,,,,,,3,2.152999878,1,1.028000116,1,0,1200,916,1,1199,starvation,11128,2019-10-21_21h39.42.822,SurveyExpMetaMem,3.2.3,MacIntel,60
,,,,,,,,,,,,,,,,,,,,9,2.93599987,5,3.22300005,1,0,1200,1152,1,1199,scream,11128,2019-10-21_21h39.42.822,SurveyExpMetaMem,3.2.3,MacIntel,60
,,,,,,,,,,,,,,,,,,,,5,1.470000029,5,0.230999947,1,0,1200,274,1,1199,song,11128,2019-10-21_21h39.42.822,SurveyExpMetaMem,3.2.3,MacIntel,60
,,,,,,,,,,,,,,,,,,,,5,1.019999981,5,0.200999975,1,0,1200,484,1,1199,leave,11128,2019-10-21_21h39.42.822,SurveyExpMetaMem,3.2.3,MacIntel,60
,,,,,,,,,,,,,,,,,,,,5,1.128000021,5,0.201999903,1,0,1200,594,1,1199,moss,11128,2019-10-21_21h39.42.822,SurveyExpMetaMem,3.2.3,MacIntel,60
,,,,,,,,,,,,,,,,,,,,5,1.103999853,5,0.194000006,1,0,1200,619,1,1199,pulpit,11128,2019-10-21_21h39.42.822,SurveyExpMetaMem,3.2.3,MacIntel,60
,,,,,,,,,,,,,,,,,,,,5,1.119999886,5,0.244999886,1,0,1200,507,1,1199,smudge,11128,2019-10-21_21h39.42.822,SurveyExpMetaMem,3.2.3,MacIntel,60
,,,,,,,,,,,,,,,,,,,,7,3.198999882,8,1.437000036,1,0,1200,152,1,1199,hire,11128,2019-10-21_21h39.42.822,SurveyExpMetaMem,3.2.3,MacIntel,60
,,,,,,,,,,,,,,,,,,,,8,2.347999811,8,0.930000067,1,0,1200,190,1,1199,rescue,11128,2019-10-21_21h39.42.822,SurveyExpMetaMem,3.2.3,MacIntel,60
,,,,,,,,,,,,,,,,,,,,5,1.196999788,5,0.20299983,1,0,1200,232,1,1199,prosper,11128,2019-10-21_21h39.42.822,SurveyExpMetaMem,3.2.3,MacIntel,60
,,,,,,,,,,,,,,,,,,,,5,1.174000025,5,0.262999773,1,0,1200,840,1,1199,cuisine,11128,2019-10-21_21h39.42.822,SurveyExpMetaMem,3.2.3,MacIntel,60
,,,,,,,,,,,,,,,,,,,,5,1.390000105,5,0.401000023,1,0,1200,61,1,1199,zoom,11128,2019-10-21_21h39.42.822,SurveyExpMetaMem,3.2.3,MacIntel,60
,,,,,,,,,,,,,,,,,,,,8,1.635999918,2,0.759000063,1,0,1200,1087,1,1199,affair,11128,2019-10-21_21h39.42.822,SurveyExpMetaMem,3.2.3,MacIntel,60
,,,,,,,,,,,,,,,,,,,,3,2.2099998,5,1.431999922,1,0,1200,396,1,1199,unpopular,11128,2019-10-21_21h39.42.822,SurveyExpMetaMem,3.2.3,MacIntel,60
,,,,,,,,,,,,,,,,,,,,5,4.161999941,5,0.240999937,1,0,1200,714,1,1199,courtyard,11128,2019-10-21_21h39.42.822,SurveyExpMetaMem,3.2.3,MacIntel,60
,,,,,,,,,,,,,,,,,,,,7,2.095000029,2,1.048999786,1,0,1200,980,1,1199,liar,11128,2019-10-21_21h39.42.822,SurveyExpMetaMem,3.2.3,MacIntel,60
,,,,,,,,,,,,,,,,,,,,5,1.302999735,5,0.447999954,1,0,1200,929,1,1199,mutilation,11128,2019-10-21_21h39.42.822,SurveyExpMetaMem,3.2.3,MacIntel,60
,,,,,,,,,,,,,,,,,,,,5,0.777999878,5,0.219000101,1,0,1200,669,1,1199,plaza,11128,2019-10-21_21h39.42.822,SurveyExpMetaMem,3.2.3,MacIntel,60
,,,,,,,,,,,,,,,,,,,,5,2.100999832,5,0.337999821,1,0,1200,499,1,1199,stop,11128,2019-10-21_21h39.42.822,SurveyExpMetaMem,3.2.3,MacIntel,60
,,,,,,,,,,,,,,,,,,,,2,2.570999861,3,1.01699996,1,0,1200,381,1,1199,sloppy,11128,2019-10-21_21h39.42.822,SurveyExpMetaMem,3.2.3,MacIntel,60
,,,,,,,,,,,,,,,,,,,,5,0.991999865,5,0.295999765,1,0,1200,154,1,1199,race,11128,2019-10-21_21h39.42.822,SurveyExpMetaMem,3.2.3,MacIntel,60
,,,,,,,,,,,,,,,,,,,,5,2.345999956,5,0.213999987,1,0,1200,462,1,1199,shallow,11128,2019-10-21_21h39.42.822,SurveyExpMetaMem,3.2.3,MacIntel,60
,,,,,,,,,,,,,,,,,,,,7,2.360999823,5,0.773000002,1,0,1200,1148,1,1199,suspicious,11128,2019-10-21_21h39.42.822,SurveyExpMetaMem,3.2.3,MacIntel,60
,,,,,,,,,,,,,,,,,,,,8,1.868999958,2,0.93599987,1,0,1200,1058,1,1199,bloody,11128,2019-10-21_21h39.42.822,SurveyExpMetaMem,3.2.3,MacIntel,60
,,,,,,,,,,,,,,,,,,,,5,1.138000011,5,0.269999743,1,0,1200,489,1,1199,timid,11128,2019-10-21_21h39.42.822,SurveyExpMetaMem,3.2.3,MacIntel,60
,,,,,,,,,,,,,,,,,,,,5,1.419999838,5,0.203000069,1,0,1200,494,1,1199,butcher,11128,2019-10-21_21h39.42.822,SurveyExpMetaMem,3.2.3,MacIntel,60
,,,,,,,,,,,,,,,,,,,,5,1.651000023,5,0.190999985,1,0,1200,621,1,1199,chew,11128,2019-10-21_21h39.42.822,SurveyExpMetaMem,3.2.3,MacIntel,60
,,,,,,,,,,,,,,,,,,,,5,0.90199995,5,0.204999924,1,0,1200,176,1,1199,champ,11128,2019-10-21_21h39.42.822,SurveyExpMetaMem,3.2.3,MacIntel,60
,,,,,,,,,,,,,,,,,,,,5,1.095000029,5,0.200999737,1,0,1200,773,1,1199,rational,11128,2019-10-21_21h39.42.822,SurveyExpMetaMem,3.2.3,MacIntel,60
,,,,,,,,,,,,,,,,,,,,8,1.717999697,9,1.053999901,1,0,1200,295,1,1199,passion,11128,2019-10-21_21h39.42.822,SurveyExpMetaMem,3.2.3,MacIntel,60
,,,,,,,,,,,,,,,,,,,,5,1.336999893,5,0.200999975,1,0,1200,476,1,1199,warden,11128,2019-10-21_21h39.42.822,SurveyExpMetaMem,3.2.3,MacIntel,60
,,,,,,,,,,,,,,,,,,,,5,1.796000004,5,0.212999821,1,0,1200,632,1,1199,avenue,11128,2019-10-21_21h39.42.822,SurveyExpMetaMem,3.2.3,MacIntel,60
,,,,,,,,,,,,,,,,,,,,7,3.003999949,7,0.200999975,1,0,1200,106,1,1199,voyage,11128,2019-10-21_21h39.42.822,SurveyExpMetaMem,3.2.3,MacIntel,60
,,,,,,,,,,,,,,,,,,,,8,1.295999765,8,0.422999859,1,0,1200,186,1,1199,holiday,11128,2019-10-21_21h39.42.822,SurveyExpMetaMem,3.2.3,MacIntel,60
,,,,,,,,,,,,,,,,,,,,5,4.500999928,5,0.228999853,1,0,1200,827,1,1199,saint,11128,2019-10-21_21h39.42.822,SurveyExpMetaMem,3.2.3,MacIntel,60
,,,,,,,,,,,,,,,,,,,,5,0.860999823,5,0.230000019,1,0,1200,1063,1,1199,quarrel,11128,2019-10-21_21h39.42.822,SurveyExpMetaMem,3.2.3,MacIntel,60
,,,,,,,,,,,,,,,,,,,,5,2.179999828,5,0.20299983,1,0,1200,666,1,1199,verify,11128,2019-10-21_21h39.42.822,SurveyExpMetaMem,3.2.3,MacIntel,60
,,,,,,,,,,,,,,,,,,,,5,1.656999826,5,0.262000084,1,0,1200,942,1,1199,aggravation,11128,2019-10-21_21h39.42.822,SurveyExpMetaMem,3.2.3,MacIntel,60
,,,,,,,,,,,,,,,,,,,,5,2.864000082,2,1.32799983,1,0,1200,1132,1,1199,anarchy,11128,2019-10-21_21h39.42.822,SurveyExpMetaMem,3.2.3,MacIntel,60
,,,,,,,,,,,,,,,,,,,,7,10.41400003,1,1.035999775,1,0,1200,1044,1,1199,lost,11128,2019-10-21_21h39.42.822,SurveyExpMetaMem,3.2.3,MacIntel,60
,,,,,,,,,,,,,,,,,,,,7,2.116999865,5,2.349999905,1,0,1200,837,1,1199,responsible,11128,2019-10-21_21h39.42.822,SurveyExpMetaMem,3.2.3,MacIntel,60
,,,,,,,,,,,,,,,,,,,,8,1.596999884,8,0.999999762,1,0,1200,86,1,1199,talent,11128,2019-10-21_21h39.42.822,SurveyExpMetaMem,3.2.3,MacIntel,60
,,,,,,,,,,,,,,,,,,,,7,6.213000059,2,1.059000015,1,0,1200,1139,1,1199,scare,11128,2019-10-21_21h39.42.822,SurveyExpMetaMem,3.2.3,MacIntel,60
,,,,,,,,,,,,,,,,,,,,5,1.334000111,5,0.319000006,1,0,1200,305,1,1199,frown,11128,2019-10-21_21h39.42.822,SurveyExpMetaMem,3.2.3,MacIntel,60
,,,,,,,,,,,,,,,,,,,,5,3.967000008,3,1.263000011,1,0,1200,1025,1,1199,deadly,11128,2019-10-21_21h39.42.822,SurveyExpMetaMem,3.2.3,MacIntel,60
,,,,,,,,,,,,,,,,,,,,5,3.111999989,3,0.703999996,1,0,1200,358,1,1199,waste,11128,2019-10-21_21h39.42.822,SurveyExpMetaMem,3.2.3,MacIntel,60
,,,,,,,,,,,,,,,,,,,,5,2.22300005,5,0.236999989,1,0,1200,79,1,1199,dazzle,11128,2019-10-21_21h39.42.822,SurveyExpMetaMem,3.2.3,MacIntel,60
,,,,,,,,,,,,,,,,,,,,5,0.782000065,5,0.263000011,1,0,1200,331,1,1199,casket,11128,2019-10-21_21h39.42.822,SurveyExpMetaMem,3.2.3,MacIntel,60
,,,,,,,,,,,,,,,,,,,,8,1.786999941,7,1.350999832,1,0,1200,271,1,1199,applaud,11128,2019-10-21_21h39.42.822,SurveyExpMetaMem,3.2.3,MacIntel,60
,,,,,,,,,,,,,,,,,,,,8,1.43599987,8,0.360999823,1,0,1200,298,1,1199,success,11128,2019-10-21_21h39.42.822,SurveyExpMetaMem,3.2.3,MacIntel,60
,,,,,,,,,,,,,,,,,,,,5,3.984999895,5,0.246999979,1,0,1200,1177,1,1199,pang,11128,2019-10-21_21h39.42.822,SurveyExpMetaMem,3.2.3,MacIntel,60
,,,,,,,,,,,,,,,,,,,,5,0.779999971,5,0.254999876,1,0,1200,498,1,1199,alimony,11128,2019-10-21_21h39.42.822,SurveyExpMetaMem,3.2.3,MacIntel,60
,,,,,,,,,,,,,,,,,,,,8,2.428999901,2,1.102999926,1,0,1200,1031,1,1199,fear,11128,2019-10-21_21h39.42.822,SurveyExpMetaMem,3.2.3,MacIntel,60
,,,,,,,,,,,,,,,,,,,,5,0.845999718,5,0.255000114,1,0,1200,521,1,1199,laundry,11128,2019-10-21_21h39.42.822,SurveyExpMetaMem,3.2.3,MacIntel,60
,,,,,,,,,,,,,,,,,,,,6,2.619999886,7,1.133999825,1,0,1200,875,1,1199,fluffy,11128,2019-10-21_21h39.42.822,SurveyExpMetaMem,3.2.3,MacIntel,60
,,,,,,,,,,,,,,,,,,,,2,2.184000015,8,1.77699995,1,0,1200,894,1,1199,sunset,11128,2019-10-21_21h39.42.822,SurveyExpMetaMem,3.2.3,MacIntel,60
,,,,,,,,,,,,,,,,,,,,5,0.934000015,5,0.22300005,1,0,1200,737,1,1199,lamb,11128,2019-10-21_21h39.42.822,SurveyExpMetaMem,3.2.3,MacIntel,60
,,,,,,,,,,,,,,,,,,,,5,5.694999933,3,1.784999847,1,0,1200,345,1,1199,unfortunate,11128,2019-10-21_21h39.42.822,SurveyExpMetaMem,3.2.3,MacIntel,60
,,,,,,,,,,,,,,,,,,,,5,1.001999855,5,0.585000038,1,0,1200,1091,1,1199,cram,11128,2019-10-21_21h39.42.822,SurveyExpMetaMem,3.2.3,MacIntel,60
,,,,,,,,,,,,,,,,,,,,3,2.912999868,5,1.322000027,1,0,1200,4,1,1199,night,11128,2019-10-21_21h39.42.822,SurveyExpMetaMem,3.2.3,MacIntel,60
,,,,,,,,,,,,,,,,,,,,6,4.625999928,3,0.812999964,1,0,1200,1121,1,1199,ban,11128,2019-10-21_21h39.42.822,SurveyExpMetaMem,3.2.3,MacIntel,60
,,,,,,,,,,,,,,,,,,,,5,1.166000128,5,0.230000019,1,0,1200,793,1,1199,virtue,11128,2019-10-21_21h39.42.822,SurveyExpMetaMem,3.2.3,MacIntel,60
,,,,,,,,,,,,,,,,,,,,5,1.024999857,5,0.220000029,1,0,1200,255,1,1199,ass,11128,2019-10-21_21h39.42.822,SurveyExpMetaMem,3.2.3,MacIntel,60
,,,,,,,,,,,,,,,,,,,,5,0.68900013,5,0.210999966,1,0,1200,699,1,1199,leg,11128,2019-10-21_21h39.42.822,SurveyExpMetaMem,3.2.3,MacIntel,60
,,,,,,,,,,,,,,,,,,,,5,0.867999792,5,0.212999821,1,0,1200,913,1,1199,ulcer,11128,2019-10-21_21h39.42.822,SurveyExpMetaMem,3.2.3,MacIntel,60
,,,,,,,,,,,,,,,,,,,,5,1.563999891,5,0.247999907,1,0,1200,678,1,1199,lightbulb,11128,2019-10-21_21h39.42.822,SurveyExpMetaMem,3.2.3,MacIntel,60
,,,,,,,,,,,,,,,,,,,,7,2.851999998,2,0.250999928,1,0,1200,1036,1,1199,anxiety,11128,2019-10-21_21h39.42.822,SurveyExpMetaMem,3.2.3,MacIntel,60
,,,,,,,,,,,,,,,,,,,,8,2.681999922,2,0.462999821,1,0,1200,1005,1,1199,pissed,11128,2019-10-21_21h39.42.822,SurveyExpMetaMem,3.2.3,MacIntel,60
,,,,,,,,,,,,,,,,,,,,5,1.139999866,5,0.217999935,1,0,1200,830,1,1199,pear,11128,2019-10-21_21h39.42.822,SurveyExpMetaMem,3.2.3,MacIntel,60
,,,,,,,,,,,,,,,,,,,,5,3.969000101,5,0.250999928,1,0,1200,676,1,1199,straighten,11128,2019-10-21_21h39.42.822,SurveyExpMetaMem,3.2.3,MacIntel,60
,,,,,,,,,,,,,,,,,,,,5,1.582000017,5,0.252000093,1,0,1200,315,1,1199,zit,11128,2019-10-21_21h39.42.822,SurveyExpMetaMem,3.2.3,MacIntel,60
,,,,,,,,,,,,,,,,,,,,7,2.309999943,3,1.117999792,1,0,1200,1199,1,1199,expensive,11128,2019-10-21_21h39.42.822,SurveyExpMetaMem,3.2.3,MacIntel,60
,,,,,,,,,,,,,,,,,,,,6,2.871999979,4,0.485999823,1,0,1200,423,1,1199,stain,11128,2019-10-21_21h39.42.822,SurveyExpMetaMem,3.2.3,MacIntel,60
,,,,,,,,,,,,,,,,,,,,5,1.029000044,5,0.24399972,1,0,1200,763,1,1199,vegetables,11128,2019-10-21_21h39.42.822,SurveyExpMetaMem,3.2.3,MacIntel,60
,,,,,,,,,,,,,,,,,,,,5,1.203000069,5,0.250999928,1,0,1200,563,1,1199,stupor,11128,2019-10-21_21h39.42.822,SurveyExpMetaMem,3.2.3,MacIntel,60
,,,,,,,,,,,,,,,,,,,,3,2.284999847,6,1.286999941,1,0,1200,680,1,1199,candle,11128,2019-10-21_21h39.42.822,SurveyExpMetaMem,3.2.3,MacIntel,60
,,,,,,,,,,,,,,,,,,,,5,2.644000053,5,1.345000029,1,0,1200,322,1,1199,widow,11128,2019-10-21_21h39.42.822,SurveyExpMetaMem,3.2.3,MacIntel,60
,,,,,,,,,,,,,,,,,,,,5,8.40199995,6,1.402999878,1,0,1200,169,1,1199,aid,11128,2019-10-21_21h39.42.822,SurveyExpMetaMem,3.2.3,MacIntel,60
,,,,,,,,,,,,,,,,,,,,6,3.562999725,5,1.114000082,1,0,1200,132,1,1199,silly,11128,2019-10-21_21h39.42.822,SurveyExpMetaMem,3.2.3,MacIntel,60
,,,,,,,,,,,,,,,,,,,,3,2.644999743,1,2.252999783,1,0,1200,314,1,1199,hopeless,11128,2019-10-21_21h39.42.822,SurveyExpMetaMem,3.2.3,MacIntel,60
,,,,,,,,,,,,,,,,,,,,7,2.129999876,2,1.161999941,1,0,1200,938,1,1199,seasick,11128,2019-10-21_21h39.42.822,SurveyExpMetaMem,3.2.3,MacIntel,60
,,,,,,,,,,,,,,,,,,,,5,1.278999805,5,0.296999931,1,0,1200,760,1,1199,shrimp,11128,2019-10-21_21h39.42.822,SurveyExpMetaMem,3.2.3,MacIntel,60
,,,,,,,,,,,,,,,,,,,,5,3.09499979,5,0.260999918,1,0,1200,606,1,1199,easel,11128,2019-10-21_21h39.42.822,SurveyExpMetaMem,3.2.3,MacIntel,60
,,,,,,,,,,,,,,,,,,,,7,1.579999924,3,0.975999832,1,0,1200,341,1,1199,stinky,11128,2019-10-21_21h39.42.822,SurveyExpMetaMem,3.2.3,MacIntel,60
,,,,,,,,,,,,,,,,,,,,9,2.095999956,1,1.013999939,1,0,1200,1052,1,1199,angry,11128,2019-10-21_21h39.42.822,SurveyExpMetaMem,3.2.3,MacIntel,60
,,,,,,,,,,,,,,,,,,,,8,1.977999926,3,1.505999804,1,0,1200,1007,1,1199,tornado,11128,2019-10-21_21h39.42.822,SurveyExpMetaMem,3.2.3,MacIntel,60
,,,,,,,,,,,,,,,,,,,,7,2.33100009,7,0.552999735,1,0,1200,286,1,1199,superstar,11128,2019-10-21_21h39.42.822,SurveyExpMetaMem,3.2.3,MacIntel,60
,,,,,,,,,,,,,,,,,,,,8,1.612999916,8,1.290999889,1,0,1200,290,1,1199,enthusiasm,11128,2019-10-21_21h39.42.822,SurveyExpMetaMem,3.2.3,MacIntel,60
,,,,,,,,,,,,,,,,,,,,5,1.413999796,5,0.650999784,1,0,1200,821,1,1199,cottage,11128,2019-10-21_21h39.42.822,SurveyExpMetaMem,3.2.3,MacIntel,60
,,,,,,,,,,,,,,,,,,,,5,1.130999804,5,0.218999863,1,0,1200,650,1,1199,native,11128,2019-10-21_21h39.42.822,SurveyExpMetaMem,3.2.3,MacIntel,60
,,,,,,,,,,,,,,,,,,,,5,0.784000158,5,0.229999781,1,0,1200,775,1,1199,pancakes,11128,2019-10-21_21h39.42.822,SurveyExpMetaMem,3.2.3,MacIntel,60
,,,,,,,,,,,,,,,,,,,,5,1.913999796,5,0.917999983,1,0,1200,399,1,1199,withdrawn,11128,2019-10-21_21h39.42.822,SurveyExpMetaMem,3.2.3,MacIntel,60
,,,,,,,,,,,,,,,,,,,,5,2.129999876,7,1.605999947,1,0,1200,12,1,1199,mountain,11128,2019-10-21_21h39.42.822,SurveyExpMetaMem,3.2.3,MacIntel,60
,,,,,,,,,,,,,,,,,,,,5,2.684000015,7,1.235000134,1,0,1200,122,1,1199,prince,11128,2019-10-21_21h39.42.822,SurveyExpMetaMem,3.2.3,MacIntel,60
,,,,,,,,,,,,,,,,,,,,7,2.769000053,2,0.345999956,1,0,1200,1101,1,1199,scary,11128,2019-10-21_21h39.42.822,SurveyExpMetaMem,3.2.3,MacIntel,60
,,,,,,,,,,,,,,,,,,,,6,2.946999788,6,1.914000034,1,0,1200,137,1,1199,money,11128,2019-10-21_21h39.42.822,SurveyExpMetaMem,3.2.3,MacIntel,60
,,,,,,,,,,,,,,,,,,,,7,2.795999765,2,1.222999811,1,0,1200,1146,1,1199,bug,11128,2019-10-21_21h39.42.822,SurveyExpMetaMem,3.2.3,MacIntel,60
,,,,,,,,,,,,,,,,,,,,5,2.135999918,2,0.934000015,1,0,1200,456,1,1199,piss,11128,2019-10-21_21h39.42.822,SurveyExpMetaMem,3.2.3,MacIntel,60
,,,,,,,,,,,,,,,,,,,,8,2.993999958,3,1.389999866,1,0,1200,1055,1,1199,alarm,11128,2019-10-21_21h39.42.822,SurveyExpMetaMem,3.2.3,MacIntel,60
,,,,,,,,,,,,,,,,,,,,3,1.855000019,5,1.415999889,1,0,1200,438,1,1199,dull,11128,2019-10-21_21h39.42.822,SurveyExpMetaMem,3.2.3,MacIntel,60
,,,,,,,,,,,,,,,,,,,,5,1.305000067,5,0.510999918,1,0,1200,549,1,1199,beet,11128,2019-10-21_21h39.42.822,SurveyExpMetaMem,3.2.3,MacIntel,60
,,,,,,,,,,,,,,,,,,,,5,3.219000101,5,0.301999807,1,0,1200,1017,1,1199,aggravated,11128,2019-10-21_21h39.42.822,SurveyExpMetaMem,3.2.3,MacIntel,60
,,,,,,,,,,,,,,,,,,,,5,0.830999851,5,0.215999842,1,0,1200,736,1,1199,hawk,11128,2019-10-21_21h39.42.822,SurveyExpMetaMem,3.2.3,MacIntel,60
,,,,,,,,,,,,,,,,,,,,3,1.840999842,2,0.943999767,1,0,1200,316,1,1199,sorrow,11128,2019-10-21_21h39.42.822,SurveyExpMetaMem,3.2.3,MacIntel,60
,,,,,,,,,,,,,,,,,,,,5,1.811000109,5,0.427000046,1,0,1200,880,1,1199,security,11128,2019-10-21_21h39.42.822,SurveyExpMetaMem,3.2.3,MacIntel,60
,,,,,,,,,,,,,,,,,,,,5,1.346999884,5,0.33100009,1,0,1200,72,1,1199,attract,11128,2019-10-21_21h39.42.822,SurveyExpMetaMem,3.2.3,MacIntel,60
,,,,,,,,,,,,,,,,,,,,5,1.232999802,5,0.18599987,1,0,1200,531,1,1199,omit,11128,2019-10-21_21h39.42.822,SurveyExpMetaMem,3.2.3,MacIntel,60
,,,,,,,,,,,,,,,,,,,,7,2.479999781,3,0.414000034,1,0,1200,319,1,1199,malaria,11128,2019-10-21_21h39.42.822,SurveyExpMetaMem,3.2.3,MacIntel,60
,,,,,,,,,,,,,,,,,,,,5,1.561999798,5,0.247999907,1,0,1200,388,1,1199,mildew,11128,2019-10-21_21h39.42.822,SurveyExpMetaMem,3.2.3,MacIntel,60
,,,,,,,,,,,,,,,,,,,,5,1.981999874,5,0.213000059,1,0,1200,1133,1,1199,slip,11128,2019-10-21_21h39.42.822,SurveyExpMetaMem,3.2.3,MacIntel,60
,,,,,,,,,,,,,,,,,,,,5,0.90199995,5,0.244999886,1,0,1200,873,1,1199,useful,11128,2019-10-21_21h39.42.822,SurveyExpMetaMem,3.2.3,MacIntel,60
,,,,,,,,,,,,,,,,,,,,5,1.761999846,5,0.210000038,1,0,1200,18,1,1199,mail,11128,2019-10-21_21h39.42.822,SurveyExpMetaMem,3.2.3,MacIntel,60
,,,,,,,,,,,,,,,,,,,,6,2.03399992,6,0.736000061,1,0,1200,814,1,1199,dress,11128,2019-10-21_21h39.42.822,SurveyExpMetaMem,3.2.3,MacIntel,60
,,,,,,,,,,,,,,,,,,,,3,2.746999979,2,0.620999813,1,0,1200,473,1,1199,senseless,11128,2019-10-21_21h39.42.822,SurveyExpMetaMem,3.2.3,MacIntel,60
,,,,,,,,,,,,,,,,,,,,3,3.816999912,2,1.150999784,1,0,1200,333,1,1199,weak,11128,2019-10-21_21h39.42.822,SurveyExpMetaMem,3.2.3,MacIntel,60
,,,,,,,,,,,,,,,,,,,,6,3.519999743,7,0.937000036,1,0,1200,196,1,1199,smile,11128,2019-10-21_21h39.42.822,SurveyExpMetaMem,3.2.3,MacIntel,60
,,,,,,,,,,,,,,,,,,,,5,3.554999828,3,0.999999762,1,0,1200,487,1,1199,junk,11128,2019-10-21_21h39.42.822,SurveyExpMetaMem,3.2.3,MacIntel,60
,,,,,,,,,,,,,,,,,,,,7,7.507999897,5,1.04399991,1,0,1200,1183,1,1199,emotional,11128,2019-10-21_21h39.42.822,SurveyExpMetaMem,3.2.3,MacIntel,60
,,,,,,,,,,,,,,,,,,,,3,1.944999933,1,1.000999928,1,0,1200,303,1,1199,death,11128,2019-10-21_21h39.42.822,SurveyExpMetaMem,3.2.3,MacIntel,60
,,,,,,,,,,,,,,,,,,,,4,3.732000113,4,0.736000061,1,0,1200,905,1,1199,suffocate,11128,2019-10-21_21h39.42.822,SurveyExpMetaMem,3.2.3,MacIntel,60
,,,,,,,,,,,,,,,,,,,,5,1.129999876,5,0.393999815,1,0,1200,665,1,1199,read,11128,2019-10-21_21h39.42.822,SurveyExpMetaMem,3.2.3,MacIntel,60
,,,,,,,,,,,,,,,,,,,,2,1.900999784,8,2.017999887,1,0,1200,897,1,1199,peaceful,11128,2019-10-21_21h39.42.822,SurveyExpMetaMem,3.2.3,MacIntel,60
,,,,,,,,,,,,,,,,,,,,5,1.944999933,6,1.355999708,1,0,1200,744,1,1199,village,11128,2019-10-21_21h39.42.822,SurveyExpMetaMem,3.2.3,MacIntel,60
,,,,,,,,,,,,,,,,,,,,5,1.877999783,5,0.342999935,1,0,1200,354,1,1199,cowardice,11128,2019-10-21_21h39.42.822,SurveyExpMetaMem,3.2.3,MacIntel,60
,,,,,,,,,,,,,,,,,,,,5,2.292999983,7,0.979999781,1,0,1200,674,1,1199,fitting,11128,2019-10-21_21h39.42.822,SurveyExpMetaMem,3.2.3,MacIntel,60
,,,,,,,,,,,,,,,,,,,,7,3.125999928,3,0.917999983,1,0,1200,330,1,1199,sunburn,11128,2019-10-21_21h39.42.822,SurveyExpMetaMem,3.2.3,MacIntel,60
,,,,,,,,,,,,,,,,,,,,5,2.360999823,5,0.657000065,1,0,1200,586,1,1199,cab,11128,2019-10-21_21h39.42.822,SurveyExpMetaMem,3.2.3,MacIntel,60
,,,,,,,,,,,,,,,,,,,,7,1.878999949,2,0.523000002,1,0,1200,1047,1,1199,psycho,11128,2019-10-21_21h39.42.822,SurveyExpMetaMem,3.2.3,MacIntel,60
,,,,,,,,,,,,,,,,,,,,7,4.01699996,2,0.140999794,1,0,1200,908,1,1199,suffer,11128,2019-10-21_21h39.42.822,SurveyExpMetaMem,3.2.3,MacIntel,60
,,,,,,,,,,,,,,,,,,,,7,3.929999828,7,0.596999884,1,0,1200,109,1,1199,new,11128,2019-10-21_21h39.42.822,SurveyExpMetaMem,3.2.3,MacIntel,60
,,,,,,,,,,,,,,,,,,,,7,3.588000059,4,0.170999765,1,0,1200,1122,1,1199,gossip,11128,2019-10-21_21h39.42.822,SurveyExpMetaMem,3.2.3,MacIntel,60
,,,,,,,,,,,,,,,,,,,,5,3.316999912,5,0.38499999,1,0,1200,172,1,1199,potential,11128,2019-10-21_21h39.42.822,SurveyExpMetaMem,3.2.3,MacIntel,60
,,,,,,,,,,,,,,,,,,,,6,15.97799993,3,4.404000044,1,0,1200,1000,1,1199,threat,11128,2019-10-21_21h39.42.822,SurveyExpMetaMem,3.2.3,MacIntel,60
,,,,,,,,,,,,,,,,,,,,3,2.106999874,7,0.726999998,1,0,1200,847,1,1199,moon,11128,2019-10-21_21h39.42.822,SurveyExpMetaMem,3.2.3,MacIntel,60
,,,,,,,,,,,,,,,,,,,,6,1.483999968,3,2.927999973,1,0,1200,960,1,1199,irritated,11128,2019-10-21_21h39.42.822,SurveyExpMetaMem,3.2.3,MacIntel,60
,,,,,,,,,,,,,,,,,,,,5,1.69299984,5,0.429999828,1,0,1200,988,1,1199,deserter,11128,2019-10-21_21h39.42.822,SurveyExpMetaMem,3.2.3,MacIntel,60
,,,,,,,,,,,,,,,,,,,,7,1.728999853,2,0.750999928,1,0,1200,923,1,1199,punish,11128,2019-10-21_21h39.42.822,SurveyExpMetaMem,3.2.3,MacIntel,60
,,,,,,,,,,,,,,,,,,,,6,2.128999949,6,1.437999964,1,0,1200,15,1,1199,curiosity,11128,2019-10-21_21h39.42.822,SurveyExpMetaMem,3.2.3,MacIntel,60
,,,,,,,,,,,,,,,,,,,,5,1.201999903,5,0.945999861,1,0,1200,748,1,1199,town,11128,2019-10-21_21h39.42.822,SurveyExpMetaMem,3.2.3,MacIntel,60
,,,,,,,,,,,,,,,,,,,,5,1.842999935,5,0.304999828,1,0,1200,503,1,1199,sludge,11128,2019-10-21_21h39.42.822,SurveyExpMetaMem,3.2.3,MacIntel,60
,,,,,,,,,,,,,,,,,,,,7,1.996000051,3,1.016000032,1,0,1200,1142,1,1199,disturb,11128,2019-10-21_21h39.42.822,SurveyExpMetaMem,3.2.3,MacIntel,60
,,,,,,,,,,,,,,,,,,,,5,1.243000031,5,0.31799984,1,0,1200,742,1,1199,window,11128,2019-10-21_21h39.42.822,SurveyExpMetaMem,3.2.3,MacIntel,60
,,,,,,,,,,,,,,,,,,,,5,0.789000034,6,1.338999987,1,0,1200,65,1,1199,restaurant,11128,2019-10-21_21h39.42.822,SurveyExpMetaMem,3.2.3,MacIntel,60
,,,,,,,,,,,,,,,,,,,,5,3.167999983,3,0.536999941,1,0,1200,1131,1,1199,envious,11128,2019-10-21_21h39.42.822,SurveyExpMetaMem,3.2.3,MacIntel,60
,,,,,,,,,,,,,,,,,,,,5,0.90199995,5,0.351000071,1,0,1200,612,1,1199,propeller,11128,2019-10-21_21h39.42.822,SurveyExpMetaMem,3.2.3,MacIntel,60
,,,,,,,,,,,,,,,,,,,,5,1.42599988,5,0.492999792,1,0,1200,479,1,1199,period,11128,2019-10-21_21h39.42.822,SurveyExpMetaMem,3.2.3,MacIntel,60
,,,,,,,,,,,,,,,,,,,,5,1.387999773,5,1.782999992,1,0,1200,372,1,1199,inferior,11128,2019-10-21_21h39.42.822,SurveyExpMetaMem,3.2.3,MacIntel,60
,,,,,,,,,,,,,,,,,,,,5,0.700999975,5,0.233999968,1,0,1200,701,1,1199,telephone,11128,2019-10-21_21h39.42.822,SurveyExpMetaMem,3.2.3,MacIntel,60
,,,,,,,,,,,,,,,,,,,,5,2.260999918,5,1.605000019,1,0,1200,22,1,1199,doughnut,11128,2019-10-21_21h39.42.822,SurveyExpMetaMem,3.2.3,MacIntel,60
,,,,,,,,,,,,,,,,,,,,5,4.953999996,3,0.679999828,1,0,1200,937,1,1199,prison,11128,2019-10-21_21h39.42.822,SurveyExpMetaMem,3.2.3,MacIntel,60
,,,,,,,,,,,,,,,,,,,,3,3.11500001,2,1.470000029,1,0,1200,373,1,1199,ignorance,11128,2019-10-21_21h39.42.822,SurveyExpMetaMem,3.2.3,MacIntel,60
,,,,,,,,,,,,,,,,,,,,7,2.969000101,1,0.469000101,1,0,1200,1038,1,1199,pervert,11128,2019-10-21_21h39.42.822,SurveyExpMetaMem,3.2.3,MacIntel,60
,,,,,,,,,,,,,,,,,,,,5,2.592999935,6,1.342999935,1,0,1200,692,1,1199,medicine,11128,2019-10-21_21h39.42.822,SurveyExpMetaMem,3.2.3,MacIntel,60
,,,,,,,,,,,,,,,,,,,,5,1.66899991,5,0.361000061,1,0,1200,668,1,1199,unit,11128,2019-10-21_21h39.42.822,SurveyExpMetaMem,3.2.3,MacIntel,60
,,,,,,,,,,,,,,,,,,,,5,1.090999842,5,0.328999996,1,0,1200,566,1,1199,obscure,11128,2019-10-21_21h39.42.822,SurveyExpMetaMem,3.2.3,MacIntel,60
,,,,,,,,,,,,,,,,,,,,7,2.723999977,3,0.428999901,1,0,1200,1105,1,1199,flee,11128,2019-10-21_21h39.42.822,SurveyExpMetaMem,3.2.3,MacIntel,60
,,,,,,,,,,,,,,,,,,,,3,2.05099988,2,0.621999979,1,0,1200,427,1,1199,doubt,11128,2019-10-21_21h39.42.822,SurveyExpMetaMem,3.2.3,MacIntel,60
,,,,,,,,,,,,,,,,,,,,4,3.670000076,4,0.805000067,1,0,1200,446,1,1199,greedy,11128,2019-10-21_21h39.42.822,SurveyExpMetaMem,3.2.3,MacIntel,60
,,,,,,,,,,,,,,,,,,,,3,3.152999878,7,1.678999901,1,0,1200,884,1,1199,grateful,11128,2019-10-21_21h39.42.822,SurveyExpMetaMem,3.2.3,MacIntel,60
,,,,,,,,,,,,,,,,,,,,5,3.514999866,5,0.398999929,1,0,1200,131,1,1199,treat,11128,2019-10-21_21h39.42.822,SurveyExpMetaMem,3.2.3,MacIntel,60
,,,,,,,,,,,,,,,,,,,,6,2.069000006,2,0.388999939,1,0,1200,1156,1,1199,weapon,11128,2019-10-21_21h39.42.822,SurveyExpMetaMem,3.2.3,MacIntel,60
,,,,,,,,,,,,,,,,,,,,6,2.816999912,7,0.904999971,1,0,1200,60,1,1199,bikini,11128,2019-10-21_21h39.42.822,SurveyExpMetaMem,3.2.3,MacIntel,60
,,,,,,,,,,,,,,,,,,,,5,1.309999943,5,0.313999891,1,0,1200,50,1,1199,bolt,11128,2019-10-21_21h39.42.822,SurveyExpMetaMem,3.2.3,MacIntel,60
,,,,,,,,,,,,,,,,,,,,6,1.203000069,6,0.463000059,1,0,1200,874,1,1199,butterfly,11128,2019-10-21_21h39.42.822,SurveyExpMetaMem,3.2.3,MacIntel,60
,,,,,,,,,,,,,,,,,,,,7,1.98300004,7,0.229999781,1,0,1200,306,1,1199,gloom,11128,2019-10-21_21h39.42.822,SurveyExpMetaMem,3.2.3,MacIntel,60
,,,,,,,,,,,,,,,,,,,,5,2.888999939,5,0.487999916,1,0,1200,694,1,1199,pecan,11128,2019-10-21_21h39.42.822,SurveyExpMetaMem,3.2.3,MacIntel,60
,,,,,,,,,,,,,,,,,,,,5,1.010999918,5,0.221999884,1,0,1200,809,1,1199,boy,11128,2019-10-21_21h39.42.822,SurveyExpMetaMem,3.2.3,MacIntel,60
,,,,,,,,,,,,,,,,,,,,5,2.108999729,5,0.204999924,1,0,1200,1144,1,1199,yelp,11128,2019-10-21_21h39.42.822,SurveyExpMetaMem,3.2.3,MacIntel,60
,,,,,,,,,,,,,,,,,,,,5,1.629999876,5,0.285999775,1,0,1200,165,1,1199,sizzle,11128,2019-10-21_21h39.42.822,SurveyExpMetaMem,3.2.3,MacIntel,60
,,,,,,,,,,,,,,,,,,,,5,1.276999712,5,0.250999928,1,0,1200,671,1,1199,windmill,11128,2019-10-21_21h39.42.822,SurveyExpMetaMem,3.2.3,MacIntel,60
,,,,,,,,,,,,,,,,,,,,7,1.662999868,3,0.289999962,1,0,1200,982,1,1199,robbery,11128,2019-10-21_21h39.42.822,SurveyExpMetaMem,3.2.3,MacIntel,60
,,,,,,,,,,,,,,,,,,,,6,2.003999949,6,0.786999702,1,0,1200,89,1,1199,cruiseship,11128,2019-10-21_21h39.42.822,SurveyExpMetaMem,3.2.3,MacIntel,60
,,,,,,,,,,,,,,,,,,,,5,2.116999865,5,0.244999886,1,0,1200,816,1,1199,hippotamus,11128,2019-10-21_21h39.42.822,SurveyExpMetaMem,3.2.3,MacIntel,60
,,,,,,,,,,,,,,,,,,,,2,2.226000071,3,0.487999916,1,0,1200,374,1,1199,sluggish,11128,2019-10-21_21h39.42.822,SurveyExpMetaMem,3.2.3,MacIntel,60
,,,,,,,,,,,,,,,,,,,,3,4.020999908,3,0.193000078,1,0,1200,981,1,1199,rage,11128,2019-10-21_21h39.42.822,SurveyExpMetaMem,3.2.3,MacIntel,60
,,,,,,,,,,,,,,,,,,,,3,1.654999971,2,0.350999832,1,0,1200,362,1,1199,despair,11128,2019-10-21_21h39.42.822,SurveyExpMetaMem,3.2.3,MacIntel,60
,,,,,,,,,,,,,,,,,,,,6,1.700999975,6,0.723999977,1,0,1200,88,1,1199,ambitious,11128,2019-10-21_21h39.42.822,SurveyExpMetaMem,3.2.3,MacIntel,60
,,,,,,,,,,,,,,,,,,,,6,2.467000008,5,1.333999872,1,0,1200,251,1,1199,meteor,11128,2019-10-21_21h39.42.822,SurveyExpMetaMem,3.2.3,MacIntel,60
,,,,,,,,,,,,,,,,,,,,5,0.79399991,5,0.256000042,1,0,1200,579,1,1199,bus,11128,2019-10-21_21h39.42.822,SurveyExpMetaMem,3.2.3,MacIntel,60
,,,,,,,,,,,,,,,,,,,,6,1.853999853,6,0.262999773,1,0,1200,170,1,1199,entertainment,11128,2019-10-21_21h39.42.822,SurveyExpMetaMem,3.2.3,MacIntel,60
,,,,,,,,,,,,,,,,,,,,7,1.744999886,8,0.850999832,1,0,1200,69,1,1199,special,11128,2019-10-21_21h39.42.822,SurveyExpMetaMem,3.2.3,MacIntel,60
,,,,,,,,,,,,,,,,,,,,5,1.441999912,5,0.444000006,1,0,1200,1137,1,1199,knife,11128,2019-10-21_21h39.42.822,SurveyExpMetaMem,3.2.3,MacIntel,60
,,,,,,,,,,,,,,,,,,,,6,1.37899971,6,0.826999903,1,0,1200,845,1,1199,honey,11128,2019-10-21_21h39.42.822,SurveyExpMetaMem,3.2.3,MacIntel,60
,,,,,,,,,,,,,,,,,,,,5,1.088999987,5,0.230000019,1,0,1200,729,1,1199,velvet,11128,2019-10-21_21h39.42.822,SurveyExpMetaMem,3.2.3,MacIntel,60
,,,,,,,,,,,,,,,,,,,,5,2.207999945,5,0.233999968,1,0,1200,210,1,1199,elephant,11128,2019-10-21_21h39.42.822,SurveyExpMetaMem,3.2.3,MacIntel,60
,,,,,,,,,,,,,,,,,,,,5,0.789999962,5,0.207000017,1,0,1200,558,1,1199,punk,11128,2019-10-21_21h39.42.822,SurveyExpMetaMem,3.2.3,MacIntel,60
,,,,,,,,,,,,,,,,,,,,6,4.500999928,5,1.16899991,1,0,1200,574,1,1199,distracted,11128,2019-10-21_21h39.42.822,SurveyExpMetaMem,3.2.3,MacIntel,60
,,,,,,,,,,,,,,,,,,,,7,2.294999838,3,0.280999899,1,0,1200,932,1,1199,bankrupt,11128,2019-10-21_21h39.42.822,SurveyExpMetaMem,3.2.3,MacIntel,60
,,,,,,,,,,,,,,,,,,,,6,2.214999914,5,1.972999811,1,0,1200,1176,1,1199,vampire,11128,2019-10-21_21h39.42.822,SurveyExpMetaMem,3.2.3,MacIntel,60
,,,,,,,,,,,,,,,,,,,,5,1.592999935,5,0.728999853,1,0,1200,320,1,1199,deformed,11128,2019-10-21_21h39.42.822,SurveyExpMetaMem,3.2.3,MacIntel,60
,,,,,,,,,,,,,,,,,,,,5,0.906999826,5,0.197999954,1,0,1200,257,1,1199,cockpit,11128,2019-10-21_21h39.42.822,SurveyExpMetaMem,3.2.3,MacIntel,60
,,,,,,,,,,,,,,,,,,,,5,0.987999916,5,0.221999884,1,0,1200,560,1,1199,spurn,11128,2019-10-21_21h39.42.822,SurveyExpMetaMem,3.2.3,MacIntel,60
,,,,,,,,,,,,,,,,,,,,5,0.77699995,5,0.201999903,1,0,1200,1157,1,1199,slayer,11128,2019-10-21_21h39.42.822,SurveyExpMetaMem,3.2.3,MacIntel,60
,,,,,,,,,,,,,,,,,,,,7,1.871999979,7,0.312999964,1,0,1200,178,1,1199,alive,11128,2019-10-21_21h39.42.822,SurveyExpMetaMem,3.2.3,MacIntel,60
,,,,,,,,,,,,,,,,,,,,7,1.397000074,7,1.118999958,1,0,1200,130,1,1199,great,11128,2019-10-21_21h39.42.822,SurveyExpMetaMem,3.2.3,MacIntel,60
,,,,,,,,,,,,,,,,,,,,5,2.082999945,5,0.515999794,1,0,1200,252,1,1199,infatuated,11128,2019-10-21_21h39.42.822,SurveyExpMetaMem,3.2.3,MacIntel,60
,,,,,,,,,,,,,,,,,,,,7,1.684999943,7,0.843999863,1,0,1200,236,1,1199,amaze,11128,2019-10-21_21h39.42.822,SurveyExpMetaMem,3.2.3,MacIntel,60
,,,,,,,,,,,,,,,,,,,,4,3.939999819,6,0.930999756,1,0,1200,71,1,1199,spirit,11128,2019-10-21_21h39.42.822,SurveyExpMetaMem,3.2.3,MacIntel,60
,,,,,,,,,,,,,,,,,,,,7,1.565000057,2,0.802999973,1,0,1200,1033,1,1199,horror,11128,2019-10-21_21h39.42.822,SurveyExpMetaMem,3.2.3,MacIntel,60
,,,,,,,,,,,,,,,,,,,,7,3.106999874,2,0.587000132,1,0,1200,1076,1,1199,embarrassed,11128,2019-10-21_21h39.42.822,SurveyExpMetaMem,3.2.3,MacIntel,60
,,,,,,,,,,,,,,,,,,,,3,3.63499999,7,2.38499999,1,0,1200,817,1,1199,countryside,11128,2019-10-21_21h39.42.822,SurveyExpMetaMem,3.2.3,MacIntel,60
,,,,,,,,,,,,,,,,,,,,5,4.703999996,5,0.478999853,1,0,1200,673,1,1199,bedspread,11128,2019-10-21_21h39.42.822,SurveyExpMetaMem,3.2.3,MacIntel,60
,,,,,,,,,,,,,,,,,,,,7,2.852999926,3,0.860999823,1,0,1200,966,1,1199,regretful,11128,2019-10-21_21h39.42.822,SurveyExpMetaMem,3.2.3,MacIntel,60
,,,,,,,,,,,,,,,,,,,,7,1.503999949,7,0.892999887,1,0,1200,199,1,1199,laughter,11128,2019-10-21_21h39.42.822,SurveyExpMetaMem,3.2.3,MacIntel,60
,,,,,,,,,,,,,,,,,,,,5,2.773999929,5,0.355999947,1,0,1200,44,1,1199,diploma,11128,2019-10-21_21h39.42.822,SurveyExpMetaMem,3.2.3,MacIntel,60
,,,,,,,,,,,,,,,,,,,,5,0.929999828,5,0.197000027,1,0,1200,569,1,1199,onion,11128,2019-10-21_21h39.42.822,SurveyExpMetaMem,3.2.3,MacIntel,60
,,,,,,,,,,,,,,,,,,,,5,1.194000006,5,0.187999964,1,0,1200,206,1,1199,comet,11128,2019-10-21_21h39.42.822,SurveyExpMetaMem,3.2.3,MacIntel,60
,,,,,,,,,,,,,,,,,,,,6,2.451999903,4,0.921999931,1,0,1200,1106,1,1199,pushy,11128,2019-10-21_21h39.42.822,SurveyExpMetaMem,3.2.3,MacIntel,60
,,,,,,,,,,,,,,,,,,,,5,0.81099987,5,0.230999947,1,0,1200,567,1,1199,folly,11128,2019-10-21_21h39.42.822,SurveyExpMetaMem,3.2.3,MacIntel,60
,,,,,,,,,,,,,,,,,,,,3,1.99000001,3,0.267999887,1,0,1200,359,1,1199,bored,11128,2019-10-21_21h39.42.822,SurveyExpMetaMem,3.2.3,MacIntel,60
,,,,,,,,,,,,,,,,,,,,6,4.789999962,4,0.44299984,1,0,1200,537,1,1199,absurd,11128,2019-10-21_21h39.42.822,SurveyExpMetaMem,3.2.3,MacIntel,60
,,,,,,,,,,,,,,,,,,,,5,1.178999901,5,0.190999985,1,0,1200,601,1,1199,roof,11128,2019-10-21_21h39.42.822,SurveyExpMetaMem,3.2.3,MacIntel,60
,,,,,,,,,,,,,,,,,,,,6,2.394000053,7,1.24000001,1,0,1200,83,1,1199,appreciative,11128,2019-10-21_21h39.42.822,SurveyExpMetaMem,3.2.3,MacIntel,60
,,,,,,,,,,,,,,,,,,,,6,2.228999853,4,0.210999966,1,0,1200,1022,1,1199,creepy,11128,2019-10-21_21h39.42.822,SurveyExpMetaMem,3.2.3,MacIntel,60
,,,,,,,,,,,,,,,,,,,,7,5.345999956,3,0.197999954,1,0,1200,997,1,1199,injury,11128,2019-10-21_21h39.42.822,SurveyExpMetaMem,3.2.3,MacIntel,60
,,,,,,,,,,,,,,,,,,,,7,2.792999744,1,1.100999832,1,0,1200,901,1,1199,rape,11128,2019-10-21_21h39.42.822,SurveyExpMetaMem,3.2.3,MacIntel,60
,,,,,,,,,,,,,,,,,,,,6,4.858999729,3,1.511999846,1,0,1200,552,1,1199,shadow,11128,2019-10-21_21h39.42.822,SurveyExpMetaMem,3.2.3,MacIntel,60
,,,,,,,,,,,,,,,,,,,,5,1.279999971,5,0.444999695,1,0,1200,786,1,1199,afternoon,11128,2019-10-21_21h39.42.822,SurveyExpMetaMem,3.2.3,MacIntel,60
,,,,,,,,,,,,,,,,,,,,7,3.853999853,2,1.05099988,1,0,1200,1108,1,1199,spider,11128,2019-10-21_21h39.42.822,SurveyExpMetaMem,3.2.3,MacIntel,60
,,,,,,,,,,,,,,,,,,,,6,6.921999931,3,0.270999908,1,0,1200,1040,1,1199,communism,11128,2019-10-21_21h39.42.822,SurveyExpMetaMem,3.2.3,MacIntel,60
,,,,,,,,,,,,,,,,,,,,5,1.062000036,5,0.256999969,1,0,1200,1006,1,1199,rash,11128,2019-10-21_21h39.42.822,SurveyExpMetaMem,3.2.3,MacIntel,60
,,,,,,,,,,,,,,,,,,,,5,0.795999765,5,0.187000036,1,0,1200,934,1,1199,sob,11128,2019-10-21_21h39.42.822,SurveyExpMetaMem,3.2.3,MacIntel,60
,,,,,,,,,,,,,,,,,,,,5,1.035999775,5,0.195999861,1,0,1200,617,1,1199,tomato,11128,2019-10-21_21h39.42.822,SurveyExpMetaMem,3.2.3,MacIntel,60
,,,,,,,,,,,,,,,,,,,,5,1.724999905,5,0.263000011,1,0,1200,469,1,1199,resent,11128,2019-10-21_21h39.42.822,SurveyExpMetaMem,3.2.3,MacIntel,60
,,,,,,,,,,,,,,,,,,,,5,1.455999851,5,0.255000114,1,0,1200,951,1,1199,castrate,11128,2019-10-21_21h39.42.822,SurveyExpMetaMem,3.2.3,MacIntel,60
,,,,,,,,,,,,,,,,,,,,6,5.361000061,7,0.66899991,1,0,1200,239,1,1199,compassionate,11128,2019-10-21_21h39.42.822,SurveyExpMetaMem,3.2.3,MacIntel,60
,,,,,,,,,,,,,,,,,,,,6,2.554000139,6,0.399999857,1,0,1200,242,1,1199,triumph,11128,2019-10-21_21h39.42.822,SurveyExpMetaMem,3.2.3,MacIntel,60
,,,,,,,,,,,,,,,,,,,,5,1.211999893,5,0.470000029,1,0,1200,624,1,1199,tower,11128,2019-10-21_21h39.42.822,SurveyExpMetaMem,3.2.3,MacIntel,60
,,,,,,,,,,,,,,,,,,,,5,2.694999933,6,0.769999743,1,0,1200,771,1,1199,practical,11128,2019-10-21_21h39.42.822,SurveyExpMetaMem,3.2.3,MacIntel,60
,,,,,,,,,,,,,,,,,,,,5,2.677999973,5,0.480999947,1,0,1200,1024,1,1199,burn,11128,2019-10-21_21h39.42.822,SurveyExpMetaMem,3.2.3,MacIntel,60
,,,,,,,,,,,,,,,,,,,,5,1.119999886,5,0.221999884,1,0,1200,1195,1,1199,speech,11128,2019-10-21_21h39.42.822,SurveyExpMetaMem,3.2.3,MacIntel,60
,,,,,,,,,,,,,,,,,,,,6,1.545000076,4,1.351999998,1,0,1200,1171,1,1199,chaos,11128,2019-10-21_21h39.42.822,SurveyExpMetaMem,3.2.3,MacIntel,60
,,,,,,,,,,,,,,,,,,,,6,1.974999905,5,0.768999815,1,0,1200,230,1,1199,eager,11128,2019-10-21_21h39.42.822,SurveyExpMetaMem,3.2.3,MacIntel,60
,,,,,,,,,,,,,,,,,,,,5,1.102999926,5,0.277999878,1,0,1200,644,1,1199,farm,11128,2019-10-21_21h39.42.822,SurveyExpMetaMem,3.2.3,MacIntel,60
,,,,,,,,,,,,,,,,,,,,7,1.421999693,6,1.519000053,1,0,1200,97,1,1199,enthusiastic,11128,2019-10-21_21h39.42.822,SurveyExpMetaMem,3.2.3,MacIntel,60
,,,,,,,,,,,,,,,,,,,,4,2.302000046,3,0.664999962,1,0,1200,963,1,1199,dreadful,11128,2019-10-21_21h39.42.822,SurveyExpMetaMem,3.2.3,MacIntel,60
,,,,,,,,,,,,,,,,,,,,5,1.018999815,5,0.434000015,1,0,1200,464,1,1199,tick,11128,2019-10-21_21h39.42.822,SurveyExpMetaMem,3.2.3,MacIntel,60
,,,,,,,,,,,,,,,,,,,,5,0.717000008,5,0.204999924,1,0,1200,425,1,1199,crutch,11128,2019-10-21_21h39.42.822,SurveyExpMetaMem,3.2.3,MacIntel,60
,,,,,,,,,,,,,,,,,,,,3,1.786000013,3,0.674000025,1,0,1200,405,1,1199,fatigued,11128,2019-10-21_21h39.42.822,SurveyExpMetaMem,3.2.3,MacIntel,60
,,,,,,,,,,,,,,,,,,,,4,3.735999823,6,1.477999926,1,0,1200,732,1,1199,humble,11128,2019-10-21_21h39.42.822,SurveyExpMetaMem,3.2.3,MacIntel,60
,,,,,,,,,,,,,,,,,,,,5,2.539999962,5,0.379999876,1,0,1200,555,1,1199,school,11128,2019-10-21_21h39.42.822,SurveyExpMetaMem,3.2.3,MacIntel,60
,,,,,,,,,,,,,,,,,,,,6,2.694000006,3,0.39199996,1,0,1200,329,1,1199,worse,11128,2019-10-21_21h39.42.822,SurveyExpMetaMem,3.2.3,MacIntel,60
,,,,,,,,,,,,,,,,,,,,2,2.225999832,5,1.027999878,1,0,1200,794,1,1199,pray,11128,2019-10-21_21h39.42.822,SurveyExpMetaMem,3.2.3,MacIntel,60
,,,,,,,,,,,,,,,,,,,,5,1.31099987,5,0.207000017,1,0,1200,1020,1,1199,malice,11128,2019-10-21_21h39.42.822,SurveyExpMetaMem,3.2.3,MacIntel,60
,,,,,,,,,,,,,,,,,,,,4,1.753999949,6,0.871999741,1,0,1200,843,1,1199,garden,11128,2019-10-21_21h39.42.822,SurveyExpMetaMem,3.2.3,MacIntel,60
,,,,,,,,,,,,,,,,,,,,6,2.869999886,3,0.211999893,1,0,1200,429,1,1199,cough,11128,2019-10-21_21h39.42.822,SurveyExpMetaMem,3.2.3,MacIntel,60
,,,,,,,,,,,,,,,,,,,,4,4.096999884,7,1.345999956,1,0,1200,881,1,1199,protected,11128,2019-10-21_21h39.42.822,SurveyExpMetaMem,3.2.3,MacIntel,60
,,,,,,,,,,,,,,,,,,,,5,2.054999828,5,0.233999968,1,0,1200,994,1,1199,repulsed,11128,2019-10-21_21h39.42.822,SurveyExpMetaMem,3.2.3,MacIntel,60
,,,,,,,,,,,,,,,,,,,,5,0.983999968,5,0.200999975,1,0,1200,754,1,1199,reflection,11128,2019-10-21_21h39.42.822,SurveyExpMetaMem,3.2.3,MacIntel,60
,,,,,,,,,,,,,,,,,,,,5,0.78399992,5,0.169999838,1,0,1200,596,1,1199,factory,11128,2019-10-21_21h39.42.822,SurveyExpMetaMem,3.2.3,MacIntel,60
,,,,,,,,,,,,,,,,,,,,5,1.19299984,5,0.217999935,1,0,1200,568,1,1199,therapy,11128,2019-10-21_21h39.42.822,SurveyExpMetaMem,3.2.3,MacIntel,60
,,,,,,,,,,,,,,,,,,,,5,2.002000093,5,0.217999935,1,0,1200,743,1,1199,herbal,11128,2019-10-21_21h39.42.822,SurveyExpMetaMem,3.2.3,MacIntel,60
,,,,,,,,,,,,,,,,,,,,5,1.327000141,5,0.218999863,1,0,1200,682,1,1199,camel,11128,2019-10-21_21h39.42.822,SurveyExpMetaMem,3.2.3,MacIntel,60
,,,,,,,,,,,,,,,,,,,,6,2.433999777,2,0.226999998,1,0,1200,978,1,1199,starving,11128,2019-10-21_21h39.42.822,SurveyExpMetaMem,3.2.3,MacIntel,60
,,,,,,,,,,,,,,,,,,,,5,3.184000015,6,0.655999899,1,0,1200,846,1,1199,able,11128,2019-10-21_21h39.42.822,SurveyExpMetaMem,3.2.3,MacIntel,60
,,,,,,,,,,,,,,,,,,,,6,2.233999968,7,0.623999834,1,0,1200,858,1,1199,donate,11128,2019-10-21_21h39.42.822,SurveyExpMetaMem,3.2.3,MacIntel,60
,,,,,,,,,,,,,,,,,,,,5,2.103999853,6,0.721999884,1,0,1200,715,1,1199,sheltered,11128,2019-10-21_21h39.42.822,SurveyExpMetaMem,3.2.3,MacIntel,60
,,,,,,,,,,,,,,,,,,,,7,2.233999968,2,0.585999727,1,0,1200,921,1,1199,humiliation,11128,2019-10-21_21h39.42.822,SurveyExpMetaMem,3.2.3,MacIntel,60
,,,,,,,,,,,,,,,,,,,,5,1.108999968,5,0.183999777,1,0,1200,564,1,1199,wane,11128,2019-10-21_21h39.42.822,SurveyExpMetaMem,3.2.3,MacIntel,60
,,,,,,,,,,,,,,,,,,,,5,1.480999947,5,0.212999821,1,0,1200,204,1,1199,crazy,11128,2019-10-21_21h39.42.822,SurveyExpMetaMem,3.2.3,MacIntel,60
,,,,,,,,,,,,,,,,,,,,6,2.80700016,3,0.667999983,1,0,1200,970,1,1199,worry,11128,2019-10-21_21h39.42.822,SurveyExpMetaMem,3.2.3,MacIntel,60
,,,,,,,,,,,,,,,,,,,,6,1.866999865,2,0.302999735,1,0,1200,920,1,1199,hurt,11128,2019-10-21_21h39.42.822,SurveyExpMetaMem,3.2.3,MacIntel,60
,,,,,,,,,,,,,,,,,,,,5,1.099999905,5,0.241999865,1,0,1200,718,1,1199,flow,11128,2019-10-21_21h39.42.822,SurveyExpMetaMem,3.2.3,MacIntel,60
,,,,,,,,,,,,,,,,,,,,5,0.934000015,7,1.019999981,1,0,1200,247,1,1199,graduate,11128,2019-10-21_21h39.42.822,SurveyExpMetaMem,3.2.3,MacIntel,60
,,,,,,,,,,,,,,,,,,,,4,2.994999886,6,1.729999781,1,0,1200,166,1,1199,unite,11128,2019-10-21_21h39.42.822,SurveyExpMetaMem,3.2.3,MacIntel,60
,,,,,,,,,,,,,,,,,,,,7,1.928999901,5,1.044000149,1,0,1200,1196,1,1199,breathless,11128,2019-10-21_21h39.42.822,SurveyExpMetaMem,3.2.3,MacIntel,60
,,,,,,,,,,,,,,,,,,,,5,1.017999887,5,0.254999876,1,0,1200,222,1,1199,waterskiing,11128,2019-10-21_21h39.42.822,SurveyExpMetaMem,3.2.3,MacIntel,60
,,,,,,,,,,,,,,,,,,,,5,1.733999968,5,0.21999979,1,0,1200,1074,1,1199,detain,11128,2019-10-21_21h39.42.822,SurveyExpMetaMem,3.2.3,MacIntel,60
,,,,,,,,,,,,,,,,,,,,6,1.753000021,3,0.388000011,1,0,1200,907,1,1199,terrorist,11128,2019-10-21_21h39.42.822,SurveyExpMetaMem,3.2.3,MacIntel,60
,,,,,,,,,,,,,,,,,,,,5,5.740999937,5,0.219000101,1,0,1200,436,1,1199,mediocre,11128,2019-10-21_21h39.42.822,SurveyExpMetaMem,3.2.3,MacIntel,60
,,,,,,,,,,,,,,,,,,,,6,7.718999863,2,1.302999973,1,0,1200,1086,1,1199,irritate,11128,2019-10-21_21h39.42.822,SurveyExpMetaMem,3.2.3,MacIntel,60
,,,,,,,,,,,,,,,,,,,,5,1.269999981,5,0.268999815,1,0,1200,637,1,1199,flock,11128,2019-10-21_21h39.42.822,SurveyExpMetaMem,3.2.3,MacIntel,60
,,,,,,,,,,,,,,,,,,,,6,5.301999807,7,0.296999931,1,0,1200,62,1,1199,interested,11128,2019-10-21_21h39.42.822,SurveyExpMetaMem,3.2.3,MacIntel,60
,,,,,,,,,,,,,,,,,,,,5,3.445999861,1,2.787999868,1,0,1200,308,1,1199,worthless,11128,2019-10-21_21h39.42.822,SurveyExpMetaMem,3.2.3,MacIntel,60
,,,,,,,,,,,,,,,,,,,,5,4.27699995,5,0.184999943,1,0,1200,691,1,1199,circle,11128,2019-10-21_21h39.42.822,SurveyExpMetaMem,3.2.3,MacIntel,60
,,,,,,,,,,,,,,,,,,,,5,1.055000067,5,0.252000093,1,0,1200,609,1,1199,candlestick,11128,2019-10-21_21h39.42.822,SurveyExpMetaMem,3.2.3,MacIntel,60
,,,,,,,,,,,,,,,,,,,,5,1.426000118,5,0.226999998,1,0,1200,447,1,1199,dishes,11128,2019-10-21_21h39.42.822,SurveyExpMetaMem,3.2.3,MacIntel,60
,,,,,,,,,,,,,,,,,,,,7,1.782999992,7,0.463000059,1,0,1200,80,1,1199,wonderful,11128,2019-10-21_21h39.42.822,SurveyExpMetaMem,3.2.3,MacIntel,60
,,,,,,,,,,,,,,,,,,,,5,1.046000004,5,0.205999851,1,0,1200,465,1,1199,void,11128,2019-10-21_21h39.42.822,SurveyExpMetaMem,3.2.3,MacIntel,60
,,,,,,,,,,,,,,,,,,,,6,2.901000023,2,0.227999926,1,0,1200,490,1,1199,detached,11128,2019-10-21_21h39.42.822,SurveyExpMetaMem,3.2.3,MacIntel,60
,,,,,,,,,,,,,,,,,,,,6,1.570999861,2,0.101999998,1,0,1200,442,1,1199,foolish,11128,2019-10-21_21h39.42.822,SurveyExpMetaMem,3.2.3,MacIntel,60
,,,,,,,,,,,,,,,,,,,,7,1.604999781,1,0.484999895,1,0,1200,1015,1,1199,frighten,11128,2019-10-21_21h39.42.822,SurveyExpMetaMem,3.2.3,MacIntel,60
,,,,,,,,,,,,,,,,,,,,6,3.544999838,2,1.023999929,1,0,1200,925,1,1199,disloyal,11128,2019-10-21_21h39.42.822,SurveyExpMetaMem,3.2.3,MacIntel,60
,,,,,,,,,,,,,,,,,,,,6,1.736999989,4,2.273000002,1,0,1200,9,1,1199,try,11128,2019-10-21_21h39.42.822,SurveyExpMetaMem,3.2.3,MacIntel,60
,,,,,,,,,,,,,,,,,,,,7,3.131999969,7,1.06799984,1,0,1200,888,1,1199,refreshment,11128,2019-10-21_21h39.42.822,SurveyExpMetaMem,3.2.3,MacIntel,60
,,,,,,,,,,,,,,,,,,,,6,1.77699995,2,0.34800005,1,0,1200,979,1,1199,harassment,11128,2019-10-21_21h39.42.822,SurveyExpMetaMem,3.2.3,MacIntel,60
,,,,,,,,,,,,,,,,,,,,5,1.284999847,5,0.263999939,1,0,1200,571,1,1199,marrow,11128,2019-10-21_21h39.42.822,SurveyExpMetaMem,3.2.3,MacIntel,60
,,,,,,,,,,,,,,,,,,,,5,1.21999979,5,0.214999914,1,0,1200,234,1,1199,redeem,11128,2019-10-21_21h39.42.822,SurveyExpMetaMem,3.2.3,MacIntel,60
,,,,,,,,,,,,,,,,,,,,2,2.131000042,6,0.70299983,1,0,1200,841,1,1199,bathtub,11128,2019-10-21_21h39.42.822,SurveyExpMetaMem,3.2.3,MacIntel,60
,,,,,,,,,,,,,,,,,,,,5,1.036000013,5,0.251999855,1,0,1200,34,1,1199,personality,11128,2019-10-21_21h39.42.822,SurveyExpMetaMem,3.2.3,MacIntel,60
,,,,,,,,,,,,,,,,,,,,6,2.375999928,4,0.921999931,1,0,1200,523,1,1199,witch,11128,2019-10-21_21h39.42.822,SurveyExpMetaMem,3.2.3,MacIntel,60
,,,,,,,,,,,,,,,,,,,,5,0.828999758,5,0.26699996,1,0,1200,630,1,1199,website,11128,2019-10-21_21h39.42.822,SurveyExpMetaMem,3.2.3,MacIntel,60
,,,,,,,,,,,,,,,,,,,,7,1.65199995,5,1.163000107,1,0,1200,144,1,1199,aroused,11128,2019-10-21_21h39.42.822,SurveyExpMetaMem,3.2.3,MacIntel,60
,,,,,,,,,,,,,,,,,,,,5,1.075999737,6,0.789000034,1,0,1200,708,1,1199,nursery,11128,2019-10-21_21h39.42.822,SurveyExpMetaMem,3.2.3,MacIntel,60
,,,,,,,,,,,,,,,,,,,,5,26.25399995,5,0.256999969,1,0,1200,402,1,1199,dismissive,11128,2019-10-21_21h39.42.822,SurveyExpMetaMem,3.2.3,MacIntel,60
,,,,,,,,,,,,,,,,,,,,5,1.11500001,5,0.214999914,1,0,1200,66,1,1199,zest,11128,2019-10-21_21h39.42.822,SurveyExpMetaMem,3.2.3,MacIntel,60
,,,,,,,,,,,,,,,,,,,,5,0.90199995,5,0.167999983,1,0,1200,654,1,1199,brief,11128,2019-10-21_21h39.42.822,SurveyExpMetaMem,3.2.3,MacIntel,60
,,,,,,,,,,,,,,,,,,,,7,1.618999958,7,0.427000046,1,0,1200,74,1,1199,explore,11128,2019-10-21_21h39.42.822,SurveyExpMetaMem,3.2.3,MacIntel,60
,,,,,,,,,,,,,,,,,,,,5,0.828999996,5,0.178999901,1,0,1200,575,1,1199,paragraph,11128,2019-10-21_21h39.42.822,SurveyExpMetaMem,3.2.3,MacIntel,60
,,,,,,,,,,,,,,,,,,,,6,1.688999891,7,0.710999966,1,0,1200,842,1,1199,breathe,11128,2019-10-21_21h39.42.822,SurveyExpMetaMem,3.2.3,MacIntel,60
,,,,,,,,,,,,,,,,,,,,5,1.194999933,5,0.222999811,1,0,1200,203,1,1199,seal,11128,2019-10-21_21h39.42.822,SurveyExpMetaMem,3.2.3,MacIntel,60
,,,,,,,,,,,,,,,,,,,,5,0.718999863,5,0.183999777,1,0,1200,279,1,1199,bargain,11128,2019-10-21_21h39.42.822,SurveyExpMetaMem,3.2.3,MacIntel,60
,,,,,,,,,,,,,,,,,,,,4,3.123999834,5,1.035999775,1,0,1200,382,1,1199,vulnerable,11128,2019-10-21_21h39.42.822,SurveyExpMetaMem,3.2.3,MacIntel,60
,,,,,,,,,,,,,,,,,,,,7,1.86199975,5,0.859999895,1,0,1200,1125,1,1199,outrage,11128,2019-10-21_21h39.42.822,SurveyExpMetaMem,3.2.3,MacIntel,60
,,,,,,,,,,,,,,,,,,,,5,1.196000099,5,0.229999781,1,0,1200,542,1,1199,loose,11128,2019-10-21_21h39.42.822,SurveyExpMetaMem,3.2.3,MacIntel,60
,,,,,,,,,,,,,,,,,,,,5,0.803999901,5,0.167999983,1,0,1200,720,1,1199,stable,11128,2019-10-21_21h39.42.822,SurveyExpMetaMem,3.2.3,MacIntel,60
,,,,,,,,,,,,,,,,,,,,5,1.268999815,5,0.210000038,1,0,1200,826,1,1199,poem,11128,2019-10-21_21h39.42.822,SurveyExpMetaMem,3.2.3,MacIntel,60
,,,,,,,,,,,,,,,,,,,,5,2.244999886,5,1.052999973,1,0,1200,409,1,1199,old,11128,2019-10-21_21h39.42.822,SurveyExpMetaMem,3.2.3,MacIntel,60
,,,,,,,,,,,,,,,,,,,,4,3.410000086,4,0.270999908,1,0,1200,478,1,1199,numb,11128,2019-10-21_21h39.42.822,SurveyExpMetaMem,3.2.3,MacIntel,60
,,,,,,,,,,,,,,,,,,,,6,1.612999916,3,0.602999926,1,0,1200,1126,1,1199,offensive,11128,2019-10-21_21h39.42.822,SurveyExpMetaMem,3.2.3,MacIntel,60
,,,,,,,,,,,,,,,,,,,,7,2.678999901,1,0.261999846,1,0,1200,944,1,1199,kill,11128,2019-10-21_21h39.42.822,SurveyExpMetaMem,3.2.3,MacIntel,60
,,,,,,,,,,,,,,,,,,,,5,1.527999878,5,0.463999987,1,0,1200,452,1,1199,scapegoat,11128,2019-10-21_21h39.42.822,SurveyExpMetaMem,3.2.3,MacIntel,60
,,,,,,,,,,,,,,,,,,,,5,1.088999748,5,0.244999886,1,0,1200,554,1,1199,label,11128,2019-10-21_21h39.42.822,SurveyExpMetaMem,3.2.3,MacIntel,60
,,,,,,,,,,,,,,,,,,,,5,1.030999899,5,0.198999882,1,0,1200,241,1,1199,car,11128,2019-10-21_21h39.42.822,SurveyExpMetaMem,3.2.3,MacIntel,60
,,,,,,,,,,,,,,,,,,,,5,1.141000032,5,1.18599987,1,0,1200,264,1,1199,thong,11128,2019-10-21_21h39.42.822,SurveyExpMetaMem,3.2.3,MacIntel,60
,,,,,,,,,,,,,,,,,,,,5,1.646000147,5,0.240999937,1,0,1200,530,1,1199,erase,11128,2019-10-21_21h39.42.822,SurveyExpMetaMem,3.2.3,MacIntel,60
,,,,,,,,,,,,,,,,,,,,3,6.835999966,5,0.861999989,1,0,1200,496,1,1199,slow,11128,2019-10-21_21h39.42.822,SurveyExpMetaMem,3.2.3,MacIntel,60
,,,,,,,,,,,,,,,,,,,,7,2.042999983,2,0.934000015,1,0,1200,1128,1,1199,fighting,11128,2019-10-21_21h39.42.822,SurveyExpMetaMem,3.2.3,MacIntel,60
,,,,,,,,,,,,,,,,,,,,8,2.217999935,2,0.162999868,1,0,1200,0,1,1199,dragon,11128,2019-10-21_21h39.42.822,SurveyExpMetaMem,3.2.3,MacIntel,60
,,,,,,,,,,,,,,,,,,,,5,2.194000006,5,0.198999882,1,0,1200,525,1,1199,stagnant,11128,2019-10-21_21h39.42.822,SurveyExpMetaMem,3.2.3,MacIntel,60
,,,,,,,,,,,,,,,,,,,,7,1.677999973,2,1.377999783,1,0,1200,948,1,1199,pain,11128,2019-10-21_21h39.42.822,SurveyExpMetaMem,3.2.3,MacIntel,60
,,,,,,,,,,,,,,,,,,,,5,1.092999935,6,1.210000038,1,0,1200,276,1,1199,pastry,11128,2019-10-21_21h39.42.822,SurveyExpMetaMem,3.2.3,MacIntel,60
,,,,,,,,,,,,,,,,,,,,5,1.73699975,5,0.181999922,1,0,1200,328,1,1199,disgrace,11128,2019-10-21_21h39.42.822,SurveyExpMetaMem,3.2.3,MacIntel,60
,,,,,,,,,,,,,,,,,,,,7,1.210999727,2,0.446999788,1,0,1200,936,1,1199,assault,11128,2019-10-21_21h39.42.822,SurveyExpMetaMem,3.2.3,MacIntel,60
,,,,,,,,,,,,,,,,,,,,7,3.321000099,3,2.578999996,1,0,1200,323,1,1199,ungrateful,11128,2019-10-21_21h39.42.822,SurveyExpMetaMem,3.2.3,MacIntel,60
,,,,,,,,,,,,,,,,,,,,8,1.654000044,9,0.61199975,1,0,1200,123,1,1199,favorite,11128,2019-10-21_21h39.42.822,SurveyExpMetaMem,3.2.3,MacIntel,60
,,,,,,,,,,,,,,,,,,,,6,2.911000013,7,0.638999939,1,0,1200,27,1,1199,gourmet,11128,2019-10-21_21h39.42.822,SurveyExpMetaMem,3.2.3,MacIntel,60
,,,,,,,,,,,,,,,,,,,,4,3.542000055,6,2.50999999,1,0,1200,733,1,1199,poetry,11128,2019-10-21_21h39.42.822,SurveyExpMetaMem,3.2.3,MacIntel,60
,,,,,,,,,,,,,,,,,,,,4,3.06799984,7,0.253000021,1,0,1200,587,1,1199,dissolve,11128,2019-10-21_21h39.42.822,SurveyExpMetaMem,3.2.3,MacIntel,60
,,,,,,,,,,,,,,,,,,,,5,1.004999876,5,0.26699996,1,0,1200,1043,1,1199,scold,11128,2019-10-21_21h39.42.822,SurveyExpMetaMem,3.2.3,MacIntel,60
,,,,,,,,,,,,,,,,,,,,5,1.279000044,5,0.269000053,1,0,1200,472,1,1199,bald,11128,2019-10-21_21h39.42.822,SurveyExpMetaMem,3.2.3,MacIntel,60
,,,,,,,,,,,,,,,,,,,,7,1.319000006,6,0.775000095,1,0,1200,32,1,1199,festival,11128,2019-10-21_21h39.42.822,SurveyExpMetaMem,3.2.3,MacIntel,60
,,,,,,,,,,,,,,,,,,,,6,2.399999857,6,0.954999924,1,0,1200,784,1,1199,logical,11128,2019-10-21_21h39.42.822,SurveyExpMetaMem,3.2.3,MacIntel,60
,,,,,,,,,,,,,,,,,,,,5,1.43599987,5,0.273000002,1,0,1200,653,1,1199,detail,11128,2019-10-21_21h39.42.822,SurveyExpMetaMem,3.2.3,MacIntel,60
,,,,,,,,,,,,,,,,,,,,5,0.946000099,5,0.260999918,1,0,1200,357,1,1199,whine,11128,2019-10-21_21h39.42.822,SurveyExpMetaMem,3.2.3,MacIntel,60
,,,,,,,,,,,,,,,,,,,,5,3.913000107,4,1.162999868,1,0,1200,1181,1,1199,blade,11128,2019-10-21_21h39.42.822,SurveyExpMetaMem,3.2.3,MacIntel,60
,,,,,,,,,,,,,,,,,,,,5,1.411999941,5,0.342000008,1,0,1200,795,1,1199,soup,11128,2019-10-21_21h39.42.822,SurveyExpMetaMem,3.2.3,MacIntel,60
,,,,,,,,,,,,,,,,,,,,5,1.085999966,5,0.29399991,1,0,1200,280,1,1199,cookout,11128,2019-10-21_21h39.42.822,SurveyExpMetaMem,3.2.3,MacIntel,60
,,,,,,,,,,,,,,,,,,,,5,0.894999981,5,0.693999767,1,0,1200,797,1,1199,hamburger,11128,2019-10-21_21h39.42.822,SurveyExpMetaMem,3.2.3,MacIntel,60
,,,,,,,,,,,,,,,,,,,,6,2.312999964,3,0.930999994,1,0,1200,365,1,1199,discouraged,11128,2019-10-21_21h39.42.822,SurveyExpMetaMem,3.2.3,MacIntel,60
,,,,,,,,,,,,,,,,,,,,6,2.707000017,3,1.595999956,1,0,1200,378,1,1199,dislike,11128,2019-10-21_21h39.42.822,SurveyExpMetaMem,3.2.3,MacIntel,60
,,,,,,,,,,,,,,,,,,,,3,1.893000126,3,0.390000105,1,0,1200,416,1,1199,boring,11128,2019-10-21_21h39.42.822,SurveyExpMetaMem,3.2.3,MacIntel,60
,,,,,,,,,,,,,,,,,,,,5,1.91899991,6,0.588999748,1,0,1200,223,1,1199,fashion,11128,2019-10-21_21h39.42.822,SurveyExpMetaMem,3.2.3,MacIntel,60
,,,,,,,,,,,,,,,,,,,,4,1.961999893,6,1.575000048,1,0,1200,703,1,1199,book,11128,2019-10-21_21h39.42.822,SurveyExpMetaMem,3.2.3,MacIntel,60
,,,,,,,,,,,,,,,,,,,,7,1.804999828,1,1.055000067,1,0,1200,991,1,1199,harass,11128,2019-10-21_21h39.42.822,SurveyExpMetaMem,3.2.3,MacIntel,60
,,,,,,,,,,,,,,,,,,,,3,2.343999863,7,0.934999943,1,0,1200,877,1,1199,bless,11128,2019-10-21_21h39.42.822,SurveyExpMetaMem,3.2.3,MacIntel,60
,,,,,,,,,,,,,,,,,,,,5,1.441999912,5,0.272999763,1,0,1200,565,1,1199,frozen,11128,2019-10-21_21h39.42.822,SurveyExpMetaMem,3.2.3,MacIntel,60
,,,,,,,,,,,,,,,,,,,,8,2.509999752,1,0.947999716,1,0,1200,940,1,1199,war,11128,2019-10-21_21h39.42.822,SurveyExpMetaMem,3.2.3,MacIntel,60
,,,,,,,,,,,,,,,,,,,,4,5.360999823,6,0.71999979,1,0,1200,854,1,1199,river,11128,2019-10-21_21h39.42.822,SurveyExpMetaMem,3.2.3,MacIntel,60
,,,,,,,,,,,,,,,,,,,,5,1.439999819,5,0.352999926,1,0,1200,56,1,1199,spice,11128,2019-10-21_21h39.42.822,SurveyExpMetaMem,3.2.3,MacIntel,60
,,,,,,,,,,,,,,,,,,,,5,0.851000071,5,0.234999895,1,0,1200,616,1,1199,coat,11128,2019-10-21_21h39.42.822,SurveyExpMetaMem,3.2.3,MacIntel,60
,,,,,,,,,,,,,,,,,,,,5,1.664000034,5,0.252999783,1,0,1200,730,1,1199,slogan,11128,2019-10-21_21h39.42.822,SurveyExpMetaMem,3.2.3,MacIntel,60
,,,,,,,,,,,,,,,,,,,,5,0.897000074,5,0.253999949,1,0,1200,1168,1,1199,financial,11128,2019-10-21_21h39.42.822,SurveyExpMetaMem,3.2.3,MacIntel,60
,,,,,,,,,,,,,,,,,,,,7,2.927000046,3,0.209000111,1,0,1200,959,1,1199,divorce,11128,2019-10-21_21h39.42.822,SurveyExpMetaMem,3.2.3,MacIntel,60
,,,,,,,,,,,,,,,,,,,,7,1.754999876,7,0.820999861,1,0,1200,19,1,1199,firefighter,11128,2019-10-21_21h39.42.822,SurveyExpMetaMem,3.2.3,MacIntel,60
,,,,,,,,,,,,,,,,,,,,5,1.980000019,5,0.249999762,1,0,1200,369,1,1199,blind,11128,2019-10-21_21h39.42.822,SurveyExpMetaMem,3.2.3,MacIntel,60
,,,,,,,,,,,,,,,,,,,,7,1.377999783,7,0.664000034,1,0,1200,124,1,1199,honeymoon,11128,2019-10-21_21h39.42.822,SurveyExpMetaMem,3.2.3,MacIntel,60
,,,,,,,,,,,,,,,,,,,,7,1.552999973,8,0.41899991,1,0,1200,288,1,1199,tasty,11128,2019-10-21_21h39.42.822,SurveyExpMetaMem,3.2.3,MacIntel,60
,,,,,,,,,,,,,,,,,,,,5,2.750999928,3,0.55099988,1,0,1200,583,1,1199,obey,11128,2019-10-21_21h39.42.822,SurveyExpMetaMem,3.2.3,MacIntel,60
,,,,,,,,,,,,,,,,,,,,5,3.177999973,5,0.461999893,1,0,1200,1141,1,1199,shark,11128,2019-10-21_21h39.42.822,SurveyExpMetaMem,3.2.3,MacIntel,60
,,,,,,,,,,,,,,,,,,,,6,2.801999807,3,0.596999884,1,0,1200,967,1,1199,horrible,11128,2019-10-21_21h39.42.822,SurveyExpMetaMem,3.2.3,MacIntel,60
,,,,,,,,,,,,,,,,,,,,5,2.052999973,5,0.205999851,1,0,1200,475,1,1199,nameless,11128,2019-10-21_21h39.42.822,SurveyExpMetaMem,3.2.3,MacIntel,60
,,,,,,,,,,,,,,,,,,,,5,3.750999928,4,0.640999794,1,0,1200,562,1,1199,average,11128,2019-10-21_21h39.42.822,SurveyExpMetaMem,3.2.3,MacIntel,60
,,,,,,,,,,,,,,,,,,,,4,3.046000004,2,1.056999922,1,0,1200,964,1,1199,grieve,11128,2019-10-21_21h39.42.822,SurveyExpMetaMem,3.2.3,MacIntel,60
,,,,,,,,,,,,,,,,,,,,5,2.056999922,5,0.277999878,1,0,1200,822,1,1199,clearer,11128,2019-10-21_21h39.42.822,SurveyExpMetaMem,3.2.3,MacIntel,60
,,,,,,,,,,,,,,,,,,,,5,1.150999784,5,0.347999811,1,0,1200,49,1,1199,ecstatic,11128,2019-10-21_21h39.42.822,SurveyExpMetaMem,3.2.3,MacIntel,60
,,,,,,,,,,,,,,,,,,,,6,1.738999844,3,0.596999884,1,0,1200,928,1,1199,cruel,11128,2019-10-21_21h39.42.822,SurveyExpMetaMem,3.2.3,MacIntel,60
,,,,,,,,,,,,,,,,,,,,5,2.272000074,4,0.431999922,1,0,1200,335,1,1199,decay,11128,2019-10-21_21h39.42.822,SurveyExpMetaMem,3.2.3,MacIntel,60
,,,,,,,,,,,,,,,,,,,,5,1.246999979,5,0.342999935,1,0,1200,261,1,1199,windsurfers,11128,2019-10-21_21h39.42.822,SurveyExpMetaMem,3.2.3,MacIntel,60
,,,,,,,,,,,,,,,,,,,,5,1.105999947,5,0.207999945,1,0,1200,726,1,1199,crackers,11128,2019-10-21_21h39.42.822,SurveyExpMetaMem,3.2.3,MacIntel,60
,,,,,,,,,,,,,,,,,,,,5,1.3349998,5,0.204999924,1,0,1200,790,1,1199,binoculars,11128,2019-10-21_21h39.42.822,SurveyExpMetaMem,3.2.3,MacIntel,60
,,,,,,,,,,,,,,,,,,,,6,2.076999903,3,0.714999914,1,0,1200,1019,1,1199,fraud,11128,2019-10-21_21h39.42.822,SurveyExpMetaMem,3.2.3,MacIntel,60
,,,,,,,,,,,,,,,,,,,,3,2.236999989,6,1.011999846,1,0,1200,882,1,1199,gentle,11128,2019-10-21_21h39.42.822,SurveyExpMetaMem,3.2.3,MacIntel,60
,,,,,,,,,,,,,,,,,,,,8,2.359999895,8,0.207999945,1,0,1200,299,1,1199,champion,11128,2019-10-21_21h39.42.822,SurveyExpMetaMem,3.2.3,MacIntel,60
,,,,,,,,,,,,,,,,,,,,7,3.609999895,4,2.32799983,1,0,1200,1194,1,1199,obsession,11128,2019-10-21_21h39.42.822,SurveyExpMetaMem,3.2.3,MacIntel,60
,,,,,,,,,,,,,,,,,,,,5,2.220999956,3,0.978999853,1,0,1200,443,1,1199,incorrect,11128,2019-10-21_21h39.42.822,SurveyExpMetaMem,3.2.3,MacIntel,60
,,,,,,,,,,,,,,,,,,,,5,1.653999805,5,0.270999908,1,0,1200,1189,1,1199,lava,11128,2019-10-21_21h39.42.822,SurveyExpMetaMem,3.2.3,MacIntel,60
,,,,,,,,,,,,,,,,,,,,5,1.076999903,6,0.979000092,1,0,1200,798,1,1199,crystal,11128,2019-10-21_21h39.42.822,SurveyExpMetaMem,3.2.3,MacIntel,60
,,,,,,,,,,,,,,,,,,,,5,1.484999895,5,0.218999863,1,0,1200,945,1,1199,demon,11128,2019-10-21_21h39.42.822,SurveyExpMetaMem,3.2.3,MacIntel,60
,,,,,,,,,,,,,,,,,,,,6,2.090000153,5,0.335999966,1,0,1200,100,1,1199,intense,11128,2019-10-21_21h39.42.822,SurveyExpMetaMem,3.2.3,MacIntel,60
,,,,,,,,,,,,,,,,,,,,5,0.917999983,5,0.220999956,1,0,1200,628,1,1199,chess,11128,2019-10-21_21h39.42.822,SurveyExpMetaMem,3.2.3,MacIntel,60
,,,,,,,,,,,,,,,,,,,,5,2.167999744,5,0.520999908,1,0,1200,1175,1,1199,prostitute,11128,2019-10-21_21h39.42.822,SurveyExpMetaMem,3.2.3,MacIntel,60
,,,,,,,,,,,,,,,,,,,,5,1.13499999,5,0.27699995,1,0,1200,652,1,1199,tend,11128,2019-10-21_21h39.42.822,SurveyExpMetaMem,3.2.3,MacIntel,60
,,,,,,,,,,,,,,,,,,,,5,0.493999958,5,0.076999903,1,0,1200,1018,1,1199,distress,11128,2019-10-21_21h39.42.822,SurveyExpMetaMem,3.2.3,MacIntel,60
,,,,,,,,,,,,,,,,,,,,5,0.078000069,5,0.07799983,1,0,1200,420,1,1199,smoke,11128,2019-10-21_21h39.42.822,SurveyExpMetaMem,3.2.3,MacIntel,60
,,,,,,,,,,,,,,,,,,,,5,0.078999996,5,0.078999758,1,0,1200,796,1,1199,rose,11128,2019-10-21_21h39.42.822,SurveyExpMetaMem,3.2.3,MacIntel,60
,,,,,,,,,,,,,,,,,,,,5,0.078999996,5,0.078999996,1,0,1200,313,1,1199,rotten,11128,2019-10-21_21h39.42.822,SurveyExpMetaMem,3.2.3,MacIntel,60
,,,,,,,,,,,,,,,,,,,,5,20.86299992,5,0.228999853,1,0,1200,551,1,1199,coal,11128,2019-10-21_21h39.42.822,SurveyExpMetaMem,3.2.3,MacIntel,60
,,,,,,,,,,,,,,,,,,,,5,18.50099993,4,0.89199996,1,0,1200,1084,1,1199,uneasy,11128,2019-10-21_21h39.42.822,SurveyExpMetaMem,3.2.3,MacIntel,60
,,,,,,,,,,,,,,,,,,,,5,1.083999872,5,0.417999744,1,0,1200,401,1,1199,feeble,11128,2019-10-21_21h39.42.822,SurveyExpMetaMem,3.2.3,MacIntel,60
,,,,,,,,,,,,,,,,,,,,5,1.088999987,5,0.218999863,1,0,1200,332,1,1199,sewage,11128,2019-10-21_21h39.42.822,SurveyExpMetaMem,3.2.3,MacIntel,60
,,,,,,,,,,,,,,,,,,,,5,0.903999805,5,0.197999954,1,0,1200,545,1,1199,tar,11128,2019-10-21_21h39.42.822,SurveyExpMetaMem,3.2.3,MacIntel,60
,,,,,,,,,,,,,,,,,,,,6,4.869999886,7,0.519999743,1,0,1200,23,1,1199,earn,11128,2019-10-21_21h39.42.822,SurveyExpMetaMem,3.2.3,MacIntel,60
,,,,,,,,,,,,,,,,,,,,6,1.86199975,3,0.16899991,1,0,1200,1066,1,1199,annoy,11128,2019-10-21_21h39.42.822,SurveyExpMetaMem,3.2.3,MacIntel,60
,,,,,,,,,,,,,,,,,,,,6,2.17599988,7,0.540999889,1,0,1200,224,1,1199,strengthen,11128,2019-10-21_21h39.42.822,SurveyExpMetaMem,3.2.3,MacIntel,60
,,,,,,,,,,,,,,,,,,,,6,2.724999905,3,0.212999821,1,0,1200,1083,1,1199,delayed,11128,2019-10-21_21h39.42.822,SurveyExpMetaMem,3.2.3,MacIntel,60
,,,,,,,,,,,,,,,,,,,,5,0.871000051,5,0.299000025,1,0,1200,1092,1,1199,rattlesnake,11128,2019-10-21_21h39.42.822,SurveyExpMetaMem,3.2.3,MacIntel,60
,,,,,,,,,,,,,,,,,,,,5,1.467000008,5,0.214999914,1,0,1200,509,1,1199,ash,11128,2019-10-21_21h39.42.822,SurveyExpMetaMem,3.2.3,MacIntel,60
,,,,,,,,,,,,,,,,,,,,6,1.613999844,7,0.451999903,1,0,1200,142,1,1199,christmas,11128,2019-10-21_21h39.42.822,SurveyExpMetaMem,3.2.3,MacIntel,60
,,,,,,,,,,,,,,,,,,,,5,0.995999813,5,0.272000074,1,0,1200,1045,1,1199,scalding,11128,2019-10-21_21h39.42.822,SurveyExpMetaMem,3.2.3,MacIntel,60
,,,,,,,,,,,,,,,,,,,,7,2.261999846,7,0.585999966,1,0,1200,42,1,1199,accomplish,11128,2019-10-21_21h39.42.822,SurveyExpMetaMem,3.2.3,MacIntel,60
,,,,,,,,,,,,,,,,,,,,5,0.993999958,5,0.463999987,1,0,1200,618,1,1199,ceiling,11128,2019-10-21_21h39.42.822,SurveyExpMetaMem,3.2.3,MacIntel,60
,,,,,,,,,,,,,,,,,,,,4,1.88499999,2,0.539000034,1,0,1200,433,1,1199,uninteresting,11128,2019-10-21_21h39.42.822,SurveyExpMetaMem,3.2.3,MacIntel,60
,,,,,,,,,,,,,,,,,,,,5,2.377999783,5,0.417999983,1,0,1200,593,1,1199,errand,11128,2019-10-21_21h39.42.822,SurveyExpMetaMem,3.2.3,MacIntel,60
,,,,,,,,,,,,,,,,,,,,6,1.65899992,6,0.2099998,1,0,1200,389,1,1199,gloomy,11128,2019-10-21_21h39.42.822,SurveyExpMetaMem,3.2.3,MacIntel,60
,,,,,,,,,,,,,,,,,,,,6,1.410999775,6,0.934999943,1,0,1200,103,1,1199,conquest,11128,2019-10-21_21h39.42.822,SurveyExpMetaMem,3.2.3,MacIntel,60
,,,,,,,,,,,,,,,,,,,,6,2.311999798,6,0.251999855,1,0,1200,851,1,1199,cool,11128,2019-10-21_21h39.42.822,SurveyExpMetaMem,3.2.3,MacIntel,60
,,,,,,,,,,,,,,,,,,,,5,1.620000124,5,0.199999809,1,0,1200,493,1,1199,little,11128,2019-10-21_21h39.42.822,SurveyExpMetaMem,3.2.3,MacIntel,60
,,,,,,,,,,,,,,,,,,,,6,1.538999796,3,1.018999815,1,0,1200,902,1,1199,rejected,11128,2019-10-21_21h39.42.822,SurveyExpMetaMem,3.2.3,MacIntel,60
,,,,,,,,,,,,,,,,,,,,5,2.565999985,5,0.187999964,1,0,1200,819,1,1199,sheep,11128,2019-10-21_21h39.42.822,SurveyExpMetaMem,3.2.3,MacIntel,60
,,,,,,,,,,,,,,,,,,,,5,0.833999872,5,0.213000059,1,0,1200,660,1,1199,rock,11128,2019-10-21_21h39.42.822,SurveyExpMetaMem,3.2.3,MacIntel,60
,,,,,,,,,,,,,,,,,,,,5,1.661000013,5,0.447000027,1,0,1200,10,1,1199,cheerleader,11128,2019-10-21_21h39.42.822,SurveyExpMetaMem,3.2.3,MacIntel,60
,,,,,,,,,,,,,,,,,,,,6,1.407000065,3,0.616999865,1,0,1200,1011,1,1199,robber,11128,2019-10-21_21h39.42.822,SurveyExpMetaMem,3.2.3,MacIntel,60
,,,,,,,,,,,,,,,,,,,,5,1.45299983,5,0.228999853,1,0,1200,625,1,1199,hat,11128,2019-10-21_21h39.42.822,SurveyExpMetaMem,3.2.3,MacIntel,60
,,,,,,,,,,,,,,,,,,,,6,1.229000092,3,0.680000067,1,0,1200,1110,1,1199,bastard,11128,2019-10-21_21h39.42.822,SurveyExpMetaMem,3.2.3,MacIntel,60
,,,,,,,,,,,,,,,,,,,,5,1.802999973,5,0.250999928,1,0,1200,581,1,1199,dork,11128,2019-10-21_21h39.42.822,SurveyExpMetaMem,3.2.3,MacIntel,60
,,,,,,,,,,,,,,,,,,,,5,1.111999989,5,0.236999989,1,0,1200,400,1,1199,urine,11128,2019-10-21_21h39.42.822,SurveyExpMetaMem,3.2.3,MacIntel,60
,,,,,,,,,,,,,,,,,,,,6,3.379999876,6,0.263999939,1,0,1200,285,1,1199,gold,11128,2019-10-21_21h39.42.822,SurveyExpMetaMem,3.2.3,MacIntel,60
,,,,,,,,,,,,,,,,,,,,5,1.863999844,5,0.439999819,1,0,1200,620,1,1199,spray,11128,2019-10-21_21h39.42.822,SurveyExpMetaMem,3.2.3,MacIntel,60
,,,,,,,,,,,,,,,,,,,,5,1.020999908,5,0.276000023,1,0,1200,1118,1,1199,frantic,11128,2019-10-21_21h39.42.822,SurveyExpMetaMem,3.2.3,MacIntel,60
,,,,,,,,,,,,,,,,,,,,5,0.929999828,5,0.252000093,1,0,1200,639,1,1199,outlet,11128,2019-10-21_21h39.42.822,SurveyExpMetaMem,3.2.3,MacIntel,60
,,,,,,,,,,,,,,,,,,,,7,2.268999815,2,0.156999826,1,0,1200,1042,1,1199,brutal,11128,2019-10-21_21h39.42.822,SurveyExpMetaMem,3.2.3,MacIntel,60
,,,,,,,,,,,,,,,,,,,,5,1.893999815,5,0.180999994,1,0,1200,595,1,1199,vacuum,11128,2019-10-21_21h39.42.822,SurveyExpMetaMem,3.2.3,MacIntel,60
,,,,,,,,,,,,,,,,,,,,5,1.496999741,5,0.229999781,1,0,1200,1179,1,1199,nerves,11128,2019-10-21_21h39.42.822,SurveyExpMetaMem,3.2.3,MacIntel,60
,,,,,,,,,,,,,,,,,,,,5,1.513000011,5,0.189999819,1,0,1200,1147,1,1199,demand,11128,2019-10-21_21h39.42.822,SurveyExpMetaMem,3.2.3,MacIntel,60
,,,,,,,,,,,,,,,,,,,,5,0.852999926,5,0.209000111,1,0,1200,81,1,1199,best,11128,2019-10-21_21h39.42.822,SurveyExpMetaMem,3.2.3,MacIntel,60
,,,,,,,,,,,,,,,,,,,,5,3.160000086,5,0.230000019,1,0,1200,801,1,1199,noon,11128,2019-10-21_21h39.42.822,SurveyExpMetaMem,3.2.3,MacIntel,60
,,,,,,,,,,,,,,,,,,,,7,2.244999886,3,0.195999861,1,0,1200,918,1,1199,gunpoint,11128,2019-10-21_21h39.42.822,SurveyExpMetaMem,3.2.3,MacIntel,60
,,,,,,,,,,,,,,,,,,,,5,1.224999905,5,0.236000061,1,0,1200,1104,1,1199,avalanche,11128,2019-10-21_21h39.42.822,SurveyExpMetaMem,3.2.3,MacIntel,60
,,,,,,,,,,,,,,,,,,,,4,1.736999989,2,0.378999949,1,0,1200,1080,1,1199,broken,11128,2019-10-21_21h39.42.822,SurveyExpMetaMem,3.2.3,MacIntel,60
,,,,,,,,,,,,,,,,,,,,5,1.910999775,5,0.204999924,1,0,1200,1060,1,1199,dent,11128,2019-10-21_21h39.42.822,SurveyExpMetaMem,3.2.3,MacIntel,60
,,,,,,,,,,,,,,,,,,,,5,11.52699995,5,0.235000134,1,0,1200,1075,1,1199,apprehension,11128,2019-10-21_21h39.42.822,SurveyExpMetaMem,3.2.3,MacIntel,60
,,,,,,,,,,,,,,,,,,,,5,1.052999735,5,0.213999748,1,0,1200,731,1,1199,decency,11128,2019-10-21_21h39.42.822,SurveyExpMetaMem,3.2.3,MacIntel,60
,,,,,,,,,,,,,,,,,,,,5,0.877000093,5,0.186999798,1,0,1200,912,1,1199,rabies,11128,2019-10-21_21h39.42.822,SurveyExpMetaMem,3.2.3,MacIntel,60
,,,,,,,,,,,,,,,,,,,,6,1.585999966,6,0.575999975,1,0,1200,158,1,1199,engage,11128,2019-10-21_21h39.42.822,SurveyExpMetaMem,3.2.3,MacIntel,60
,,,,,,,,,,,,,,,,,,,,5,0.838999748,5,0.207000017,1,0,1200,983,1,1199,demonic,11128,2019-10-21_21h39.42.822,SurveyExpMetaMem,3.2.3,MacIntel,60
,,,,,,,,,,,,,,,,,,,,5,1.041999817,5,0.203999996,1,0,1200,721,1,1199,contemporary,11128,2019-10-21_21h39.42.822,SurveyExpMetaMem,3.2.3,MacIntel,60
,,,,,,,,,,,,,,,,,,,,7,1.461999893,7,1.486000061,1,0,1200,28,1,1199,energy,11128,2019-10-21_21h39.42.822,SurveyExpMetaMem,3.2.3,MacIntel,60
,,,,,,,,,,,,,,,,,,,,7,1.285999775,7,0.217000008,1,0,1200,47,1,1199,enjoy,11128,2019-10-21_21h39.42.822,SurveyExpMetaMem,3.2.3,MacIntel,60
,,,,,,,,,,,,,,,,,,,,5,2.52699995,3,1.409999847,1,0,1200,931,1,1199,overweight,11128,2019-10-21_21h39.42.822,SurveyExpMetaMem,3.2.3,MacIntel,60
,,,,,,,,,,,,,,,,,,,,5,0.913999796,5,0.263999939,1,0,1200,134,1,1199,dollar,11128,2019-10-21_21h39.42.822,SurveyExpMetaMem,3.2.3,MacIntel,60
,,,,,,,,,,,,,,,,,,,,5,0.812999964,5,0.258000135,1,0,1200,67,1,1199,penthouse,11128,2019-10-21_21h39.42.822,SurveyExpMetaMem,3.2.3,MacIntel,60
,,,,,,,,,,,,,,,,,,,,5,11.46599984,5,0.292000055,1,0,1200,14,1,1199,attain,11128,2019-10-21_21h39.42.822,SurveyExpMetaMem,3.2.3,MacIntel,60
,,,,,,,,,,,,,,,,,,,,5,0.923999786,5,0.245999813,1,0,1200,321,1,1199,wart,11128,2019-10-21_21h39.42.822,SurveyExpMetaMem,3.2.3,MacIntel,60
,,,,,,,,,,,,,,,,,,,,5,0.970000029,5,0.25,1,0,1200,698,1,1199,oven,11128,2019-10-21_21h39.42.822,SurveyExpMetaMem,3.2.3,MacIntel,60
,,,,,,,,,,,,,,,,,,,,7,1.427999735,7,0.16899991,1,0,1200,91,1,1199,pretty,11128,2019-10-21_21h39.42.822,SurveyExpMetaMem,3.2.3,MacIntel,60
,,,,,,,,,,,,,,,,,,,,7,1.597999811,7,0.569000006,1,0,1200,828,1,1199,cooperative,11128,2019-10-21_21h39.42.822,SurveyExpMetaMem,3.2.3,MacIntel,60
,,,,,,,,,,,,,,,,,,,,5,2.41899991,5,0.195999861,1,0,1200,1193,1,1199,damn,11128,2019-10-21_21h39.42.822,SurveyExpMetaMem,3.2.3,MacIntel,60
,,,,,,,,,,,,,,,,,,,,5,0.770999908,5,0.207999945,1,0,1200,1093,1,1199,hive,11128,2019-10-21_21h39.42.822,SurveyExpMetaMem,3.2.3,MacIntel,60
,,,,,,,,,,,,,,,,,,,,4,3.792999983,6,0.131000042,1,0,1200,829,1,1199,innocent,11128,2019-10-21_21h39.42.822,SurveyExpMetaMem,3.2.3,MacIntel,60
,,,,,,,,,,,,,,,,,,,,5,1.470999718,5,0.501999855,1,0,1200,253,1,1199,soldier,11128,2019-10-21_21h39.42.822,SurveyExpMetaMem,3.2.3,MacIntel,60
,,,,,,,,,,,,,,,,,,,,5,1.03399992,5,0.220999956,1,0,1200,133,1,1199,prosperous,11128,2019-10-21_21h39.42.822,SurveyExpMetaMem,3.2.3,MacIntel,60
,,,,,,,,,,,,,,,,,,,,5,0.921000004,5,0.217999697,1,0,1200,538,1,1199,crumbs,11128,2019-10-21_21h39.42.822,SurveyExpMetaMem,3.2.3,MacIntel,60
,,,,,,,,,,,,,,,,,,,,5,3.24000001,5,2.052999735,1,0,1200,578,1,1199,govern,11128,2019-10-21_21h39.42.822,SurveyExpMetaMem,3.2.3,MacIntel,60
,,,,,,,,,,,,,,,,,,,,4,3.093999863,7,0.769999981,1,0,1200,202,1,1199,mercy,11128,2019-10-21_21h39.42.822,SurveyExpMetaMem,3.2.3,MacIntel,60
,,,,,,,,,,,,,,,,,,,,5,1.395999908,5,0.272999763,1,0,1200,528,1,1199,dirt,11128,2019-10-21_21h39.42.822,SurveyExpMetaMem,3.2.3,MacIntel,60
,,,,,,,,,,,,,,,,,,,,5,4,5,0.268999815,1,0,1200,477,1,1199,separate,11128,2019-10-21_21h39.42.822,SurveyExpMetaMem,3.2.3,MacIntel,60
,,,,,,,,,,,,,,,,,,,,5,0.835000038,5,0.279000044,1,0,1200,684,1,1199,send,11128,2019-10-21_21h39.42.822,SurveyExpMetaMem,3.2.3,MacIntel,60
,,,,,,,,,,,,,,,,,,,,6,2.329999924,6,0.638999939,1,0,1200,244,1,1199,sexy,11128,2019-10-21_21h39.42.822,SurveyExpMetaMem,3.2.3,MacIntel,60
,,,,,,,,,,,,,,,,,,,,5,1.18599987,5,0.342999935,1,0,1200,772,1,1199,ornament,11128,2019-10-21_21h39.42.822,SurveyExpMetaMem,3.2.3,MacIntel,60
,,,,,,,,,,,,,,,,,,,,4,2.263000011,7,0.701999903,1,0,1200,810,1,1199,polite,11128,2019-10-21_21h39.42.822,SurveyExpMetaMem,3.2.3,MacIntel,60
,,,,,,,,,,,,,,,,,,,,5,1.325999975,5,0.311999798,1,0,1200,600,1,1199,parlor,11128,2019-10-21_21h39.42.822,SurveyExpMetaMem,3.2.3,MacIntel,60
,,,,,,,,,,,,,,,,,,,,6,4.056999922,3,0.221999884,1,0,1200,325,1,1199,disability,11128,2019-10-21_21h39.42.822,SurveyExpMetaMem,3.2.3,MacIntel,60
,,,,,,,,,,,,,,,,,,,,7,2.001999855,7,0.241999865,1,0,1200,41,1,1199,progress,11128,2019-10-21_21h39.42.822,SurveyExpMetaMem,3.2.3,MacIntel,60
,,,,,,,,,,,,,,,,,,,,5,0.826999903,5,0.237999916,1,0,1200,216,1,1199,vigorous,11128,2019-10-21_21h39.42.822,SurveyExpMetaMem,3.2.3,MacIntel,60
,,,,,,,,,,,,,,,,,,,,8,3.928999901,1,0.246000051,1,0,1200,915,1,1199,abuse,11128,2019-10-21_21h39.42.822,SurveyExpMetaMem,3.2.3,MacIntel,60
,,,,,,,,,,,,,,,,,,,,6,4.051000118,4,0.527999878,1,0,1200,397,1,1199,complaint,11128,2019-10-21_21h39.42.822,SurveyExpMetaMem,3.2.3,MacIntel,60
,,,,,,,,,,,,,,,,,,,,5,1.478999853,5,0.328999996,1,0,1200,543,1,1199,gloat,11128,2019-10-21_21h39.42.822,SurveyExpMetaMem,3.2.3,MacIntel,60
,,,,,,,,,,,,,,,,,,,,4,2.454999924,7,0.444999933,1,0,1200,213,1,1199,fair,11128,2019-10-21_21h39.42.822,SurveyExpMetaMem,3.2.3,MacIntel,60
,,,,,,,,,,,,,,,,,,,,5,1.244999886,5,0.542000055,1,0,1200,778,1,1199,adorn,11128,2019-10-21_21h39.42.822,SurveyExpMetaMem,3.2.3,MacIntel,60
,,,,,,,,,,,,,,,,,,,,6,1.672999859,6,0.52699995,1,0,1200,113,1,1199,bridesmaid,11128,2019-10-21_21h39.42.822,SurveyExpMetaMem,3.2.3,MacIntel,60
,,,,,,,,,,,,,,,,,,,,6,2.558999777,3,0.571999788,1,0,1200,1070,1,1199,bleed,11128,2019-10-21_21h39.42.822,SurveyExpMetaMem,3.2.3,MacIntel,60
,,,,,,,,,,,,,,,,,,,,7,2.687999964,7,0.480999947,1,0,1200,238,1,1199,sunshine,11128,2019-10-21_21h39.42.822,SurveyExpMetaMem,3.2.3,MacIntel,60
,,,,,,,,,,,,,,,,,,,,6,2.621999979,2,0.377000093,1,0,1200,919,1,1199,loss,11128,2019-10-21_21h39.42.822,SurveyExpMetaMem,3.2.3,MacIntel,60
,,,,,,,,,,,,,,,,,,,,4,3.605000019,7,1.194999933,1,0,1200,173,1,1199,hope,11128,2019-10-21_21h39.42.822,SurveyExpMetaMem,3.2.3,MacIntel,60
,,,,,,,,,,,,,,,,,,,,5,0.885999918,5,0.195999861,1,0,1200,689,1,1199,land,11128,2019-10-21_21h39.42.822,SurveyExpMetaMem,3.2.3,MacIntel,60
,,,,,,,,,,,,,,,,,,,,5,0.796999931,5,0.237999916,1,0,1200,540,1,1199,derelict,11128,2019-10-21_21h39.42.822,SurveyExpMetaMem,3.2.3,MacIntel,60
