mouse_4.x,mouse_4.y,mouse_4.leftButton,mouse_4.midButton,mouse_4.rightButton,mouse.x,mouse.y,mouse.leftButton,mouse.midButton,mouse.rightButton,mouse_2.x,mouse_2.y,mouse_2.leftButton,mouse_2.midButton,mouse_2.rightButton,mouse_3.x,mouse_3.y,mouse_3.leftButton,mouse_3.midButton,mouse_3.rightButton,A_key_resp.keys,A_key_resp.rt,key_resp.keys,key_resp.rt,trials.thisRepN,trials.thisTrialN,trials.thisN,trials.thisIndex,trials.ran,trials.order,word,ParticipantID,date,expName,psychopyVersion,OS,frameRate
0.17,0.154444444,1,0,0,0.36,0.125555556,1,0,0,0.258888889,-0.133333333,1,0,0,0.254444444,-0.14,1,0,0,8,15.46600008,2,4.817000151,1,0,1200,1090,1,1199,destruction,11138,2019-11-03_18h21.08.141,SurveyExpMetaMem,3.2.3,Win32,60
,,,,,,,,,,,,,,,,,,,,8,9.192000151,3,11.17900014,1,0,1200,1157,1,1199,slayer,11138,2019-11-03_18h21.08.141,SurveyExpMetaMem,3.2.3,Win32,60
,,,,,,,,,,,,,,,,,,,,7,3.907000303,3,3.075000286,1,0,1200,1129,1,1199,spanking,11138,2019-11-03_18h21.08.141,SurveyExpMetaMem,3.2.3,Win32,60
,,,,,,,,,,,,,,,,,,,,2,29.45400023,5,1.745000362,1,0,1200,673,1,1199,bedspread,11138,2019-11-03_18h21.08.141,SurveyExpMetaMem,3.2.3,Win32,60
,,,,,,,,,,,,,,,,,,,,5,1.84100008,5,0.827000141,1,0,1200,50,1,1199,bolt,11138,2019-11-03_18h21.08.141,SurveyExpMetaMem,3.2.3,Win32,60
,,,,,,,,,,,,,,,,,,,,6,6.552000284,5,1.068000078,1,0,1200,1102,1,1199,nuclear,11138,2019-11-03_18h21.08.141,SurveyExpMetaMem,3.2.3,Win32,60
,,,,,,,,,,,,,,,,,,,,5,7.181000233,5,0.582000256,1,0,1200,387,1,1199,tax,11138,2019-11-03_18h21.08.141,SurveyExpMetaMem,3.2.3,Win32,60
,,,,,,,,,,,,,,,,,,,,5,4.561000109,5,0.505000114,1,0,1200,527,1,1199,passive,11138,2019-11-03_18h21.08.141,SurveyExpMetaMem,3.2.3,Win32,60
,,,,,,,,,,,,,,,,,,,,5,33.45800018,5,0.305000305,1,0,1200,203,1,1199,seal,11138,2019-11-03_18h21.08.141,SurveyExpMetaMem,3.2.3,Win32,60
,,,,,,,,,,,,,,,,,,,,6,3.102000237,2,1.943000317,1,0,1200,964,1,1199,grieve,11138,2019-11-03_18h21.08.141,SurveyExpMetaMem,3.2.3,Win32,60
,,,,,,,,,,,,,,,,,,,,6,4.12100029,8,3.552000046,1,0,1200,865,1,1199,bliss,11138,2019-11-03_18h21.08.141,SurveyExpMetaMem,3.2.3,Win32,60
,,,,,,,,,,,,,,,,,,,,5,1.368000031,5,0.542999983,1,0,1200,1146,1,1199,bug,11138,2019-11-03_18h21.08.141,SurveyExpMetaMem,3.2.3,Win32,60
,,,,,,,,,,,,,,,,,,,,5,1.587000132,5,0.670000315,1,0,1200,618,1,1199,ceiling,11138,2019-11-03_18h21.08.141,SurveyExpMetaMem,3.2.3,Win32,60
,,,,,,,,,,,,,,,,,,,,4,5.764000177,7,6.446000099,1,0,1200,882,1,1199,gentle,11138,2019-11-03_18h21.08.141,SurveyExpMetaMem,3.2.3,Win32,60
,,,,,,,,,,,,,,,,,,,,6,5.861000299,3,2.455000162,1,0,1200,347,1,1199,unpleasant,11138,2019-11-03_18h21.08.141,SurveyExpMetaMem,3.2.3,Win32,60
,,,,,,,,,,,,,,,,,,,,5,1.283000231,5,0.310000181,1,0,1200,650,1,1199,native,11138,2019-11-03_18h21.08.141,SurveyExpMetaMem,3.2.3,Win32,60
,,,,,,,,,,,,,,,,,,,,6,3.203000069,2,1.609000206,1,0,1200,928,1,1199,cruel,11138,2019-11-03_18h21.08.141,SurveyExpMetaMem,3.2.3,Win32,60
,,,,,,,,,,,,,,,,,,,,6,7.202000141,3,2.567000151,1,0,1200,1138,1,1199,wail,11138,2019-11-03_18h21.08.141,SurveyExpMetaMem,3.2.3,Win32,60
,,,,,,,,,,,,,,,,,,,,3,7.309000254,2,1.639000177,1,0,1200,308,1,1199,worthless,11138,2019-11-03_18h21.08.141,SurveyExpMetaMem,3.2.3,Win32,60
,,,,,,,,,,,,,,,,,,,,6,2.282000303,4,4.875000238,1,0,1200,118,1,1199,conquer,11138,2019-11-03_18h21.08.141,SurveyExpMetaMem,3.2.3,Win32,60
,,,,,,,,,,,,,,,,,,,,5,3.748000145,5,0.344000101,1,0,1200,589,1,1199,coarse,11138,2019-11-03_18h21.08.141,SurveyExpMetaMem,3.2.3,Win32,60
,,,,,,,,,,,,,,,,,,,,6,3.265000105,3,2.136000156,1,0,1200,1061,1,1199,difficult,11138,2019-11-03_18h21.08.141,SurveyExpMetaMem,3.2.3,Win32,60
,,,,,,,,,,,,,,,,,,,,5,1.266000032,5,0.434000015,1,0,1200,839,1,1199,flower,11138,2019-11-03_18h21.08.141,SurveyExpMetaMem,3.2.3,Win32,60
,,,,,,,,,,,,,,,,,,,,3,1.10400033,3,1.448000193,1,0,1200,502,1,1199,crap,11138,2019-11-03_18h21.08.141,SurveyExpMetaMem,3.2.3,Win32,60
,,,,,,,,,,,,,,,,,,,,5,3.202000141,5,0.292000055,1,0,1200,567,1,1199,folly,11138,2019-11-03_18h21.08.141,SurveyExpMetaMem,3.2.3,Win32,60
,,,,,,,,,,,,,,,,,,,,6,2.204000235,7,1.546000242,1,0,1200,196,1,1199,smile,11138,2019-11-03_18h21.08.141,SurveyExpMetaMem,3.2.3,Win32,60
,,,,,,,,,,,,,,,,,,,,6,2.80700016,3,1.623000145,1,0,1200,1156,1,1199,weapon,11138,2019-11-03_18h21.08.141,SurveyExpMetaMem,3.2.3,Win32,60
,,,,,,,,,,,,,,,,,,,,8,3.509000301,5,0.053000212,1,0,1200,901,1,1199,rape,11138,2019-11-03_18h21.08.141,SurveyExpMetaMem,3.2.3,Win32,60
,,,,,,,,,,,,,,,,,,,,5,3.787000179,5,0.40500021,1,0,1200,653,1,1199,detail,11138,2019-11-03_18h21.08.141,SurveyExpMetaMem,3.2.3,Win32,60
,,,,,,,,,,,,,,,,,,,,8,4.461000204,2,0.985000372,1,0,1200,948,1,1199,pain,11138,2019-11-03_18h21.08.141,SurveyExpMetaMem,3.2.3,Win32,60
,,,,,,,,,,,,,,,,,,,,5,2.185000181,5,0.207000017,1,0,1200,532,1,1199,recede,11138,2019-11-03_18h21.08.141,SurveyExpMetaMem,3.2.3,Win32,60
,,,,,,,,,,,,,,,,,,,,5,2.961000204,5,0.224000216,1,0,1200,55,1,1199,rare,11138,2019-11-03_18h21.08.141,SurveyExpMetaMem,3.2.3,Win32,60
,,,,,,,,,,,,,,,,,,,,6,3.528000116,6,1.408000231,1,0,1200,280,1,1199,cookout,11138,2019-11-03_18h21.08.141,SurveyExpMetaMem,3.2.3,Win32,60
,,,,,,,,,,,,,,,,,,,,4,2.34100008,4,1.251000166,1,0,1200,515,1,1199,blues,11138,2019-11-03_18h21.08.141,SurveyExpMetaMem,3.2.3,Win32,60
,,,,,,,,,,,,,,,,,,,,7,5.468000174,3,0.907999992,1,0,1200,1018,1,1199,distress,11138,2019-11-03_18h21.08.141,SurveyExpMetaMem,3.2.3,Win32,60
,,,,,,,,,,,,,,,,,,,,5,1.910000324,5,0.276000261,1,0,1200,582,1,1199,cling,11138,2019-11-03_18h21.08.141,SurveyExpMetaMem,3.2.3,Win32,60
,,,,,,,,,,,,,,,,,,,,5,1.283000231,5,0.286000252,1,0,1200,410,1,1199,tarnish,11138,2019-11-03_18h21.08.141,SurveyExpMetaMem,3.2.3,Win32,60
,,,,,,,,,,,,,,,,,,,,7,1.829000235,4,0.68900013,1,0,1200,1084,1,1199,uneasy,11138,2019-11-03_18h21.08.141,SurveyExpMetaMem,3.2.3,Win32,60
,,,,,,,,,,,,,,,,,,,,5,1.504000187,5,0.272000313,1,0,1200,68,1,1199,perfect,11138,2019-11-03_18h21.08.141,SurveyExpMetaMem,3.2.3,Win32,60
,,,,,,,,,,,,,,,,,,,,5,5.382000208,5,0.293000221,1,0,1200,600,1,1199,parlor,11138,2019-11-03_18h21.08.141,SurveyExpMetaMem,3.2.3,Win32,60
,,,,,,,,,,,,,,,,,,,,5,3.542000055,5,0.26300025,1,0,1200,426,1,1199,con,11138,2019-11-03_18h21.08.141,SurveyExpMetaMem,3.2.3,Win32,60
,,,,,,,,,,,,,,,,,,,,5,1.619000196,5,0.381999969,1,0,1200,746,1,1199,proper,11138,2019-11-03_18h21.08.141,SurveyExpMetaMem,3.2.3,Win32,60
,,,,,,,,,,,,,,,,,,,,5,0.904999971,5,0.241000175,1,0,1200,1145,1,1199,officer,11138,2019-11-03_18h21.08.141,SurveyExpMetaMem,3.2.3,Win32,60
,,,,,,,,,,,,,,,,,,,,5,0.901000261,5,0.242000103,1,0,1200,804,1,1199,peach,11138,2019-11-03_18h21.08.141,SurveyExpMetaMem,3.2.3,Win32,60
,,,,,,,,,,,,,,,,,,,,4,4.380000114,4,1.027000189,1,0,1200,398,1,1199,handicapped,11138,2019-11-03_18h21.08.141,SurveyExpMetaMem,3.2.3,Win32,60
,,,,,,,,,,,,,,,,,,,,3,2.126000166,3,1.101000309,1,0,1200,316,1,1199,sorrow,11138,2019-11-03_18h21.08.141,SurveyExpMetaMem,3.2.3,Win32,60
,,,,,,,,,,,,,,,,,,,,5,2.309999943,5,0.247000217,1,0,1200,498,1,1199,alimony,11138,2019-11-03_18h21.08.141,SurveyExpMetaMem,3.2.3,Win32,60
,,,,,,,,,,,,,,,,,,,,5,3.025000095,5,0.426000118,1,0,1200,470,1,1199,cynical,11138,2019-11-03_18h21.08.141,SurveyExpMetaMem,3.2.3,Win32,60
,,,,,,,,,,,,,,,,,,,,6,2.609000206,4,0.442000151,1,0,1200,1166,1,1199,compulsive,11138,2019-11-03_18h21.08.141,SurveyExpMetaMem,3.2.3,Win32,60
,,,,,,,,,,,,,,,,,,,,7,2.284000158,2,1.043000221,1,0,1200,940,1,1199,war,11138,2019-11-03_18h21.08.141,SurveyExpMetaMem,3.2.3,Win32,60
,,,,,,,,,,,,,,,,,,,,5,1.945000172,5,0.226999998,1,0,1200,228,1,1199,suite,11138,2019-11-03_18h21.08.141,SurveyExpMetaMem,3.2.3,Win32,60
,,,,,,,,,,,,,,,,,,,,7,2.305000067,3,0.387000084,1,0,1200,1052,1,1199,angry,11138,2019-11-03_18h21.08.141,SurveyExpMetaMem,3.2.3,Win32,60
,,,,,,,,,,,,,,,,,,,,5,1.408000231,5,0.266000032,1,0,1200,455,1,1199,chubby,11138,2019-11-03_18h21.08.141,SurveyExpMetaMem,3.2.3,Win32,60
,,,,,,,,,,,,,,,,,,,,5,4.450000286,5,0.38800025,1,0,1200,955,1,1199,drown,11138,2019-11-03_18h21.08.141,SurveyExpMetaMem,3.2.3,Win32,60
,,,,,,,,,,,,,,,,,,,,6,3.56400013,6,1.395000219,1,0,1200,290,1,1199,enthusiasm,11138,2019-11-03_18h21.08.141,SurveyExpMetaMem,3.2.3,Win32,60
,,,,,,,,,,,,,,,,,,,,5,2.431000233,3,0.867000103,1,0,1200,1141,1,1199,shark,11138,2019-11-03_18h21.08.141,SurveyExpMetaMem,3.2.3,Win32,60
,,,,,,,,,,,,,,,,,,,,6,3.005000114,6,0.351000071,1,0,1200,419,1,1199,immature,11138,2019-11-03_18h21.08.141,SurveyExpMetaMem,3.2.3,Win32,60
,,,,,,,,,,,,,,,,,,,,6,1.902000189,6,0.25600028,1,0,1200,41,1,1199,progress,11138,2019-11-03_18h21.08.141,SurveyExpMetaMem,3.2.3,Win32,60
,,,,,,,,,,,,,,,,,,,,5,2.396000147,5,0.245000124,1,0,1200,67,1,1199,penthouse,11138,2019-11-03_18h21.08.141,SurveyExpMetaMem,3.2.3,Win32,60
,,,,,,,,,,,,,,,,,,,,4,2.712000132,4,0.24600029,1,0,1200,965,1,1199,traffic,11138,2019-11-03_18h21.08.141,SurveyExpMetaMem,3.2.3,Win32,60
,,,,,,,,,,,,,,,,,,,,5,4.527000189,5,0.230000019,1,0,1200,620,1,1199,spray,11138,2019-11-03_18h21.08.141,SurveyExpMetaMem,3.2.3,Win32,60
,,,,,,,,,,,,,,,,,,,,4,4.84100008,4,0.243000269,1,0,1200,1069,1,1199,defeat,11138,2019-11-03_18h21.08.141,SurveyExpMetaMem,3.2.3,Win32,60
,,,,,,,,,,,,,,,,,,,,5,2.213000059,5,0.245000124,1,0,1200,864,1,1199,blanket,11138,2019-11-03_18h21.08.141,SurveyExpMetaMem,3.2.3,Win32,60
,,,,,,,,,,,,,,,,,,,,5,3.863000154,5,0.572000027,1,0,1200,339,1,1199,chore,11138,2019-11-03_18h21.08.141,SurveyExpMetaMem,3.2.3,Win32,60
,,,,,,,,,,,,,,,,,,,,6,2.205000162,3,1.065000296,1,0,1200,319,1,1199,malaria,11138,2019-11-03_18h21.08.141,SurveyExpMetaMem,3.2.3,Win32,60
,,,,,,,,,,,,,,,,,,,,5,1.205000162,5,0.264000177,1,0,1200,737,1,1199,lamb,11138,2019-11-03_18h21.08.141,SurveyExpMetaMem,3.2.3,Win32,60
,,,,,,,,,,,,,,,,,,,,3,3.387000322,7,5.844000101,1,0,1200,894,1,1199,sunset,11138,2019-11-03_18h21.08.141,SurveyExpMetaMem,3.2.3,Win32,60
,,,,,,,,,,,,,,,,,,,,3,3.743000031,7,0.924000025,1,0,1200,266,1,1199,juice,11138,2019-11-03_18h21.08.141,SurveyExpMetaMem,3.2.3,Win32,60
,,,,,,,,,,,,,,,,,,,,3,2.983000278,3,1.027000189,1,0,1200,338,1,1199,obesity,11138,2019-11-03_18h21.08.141,SurveyExpMetaMem,3.2.3,Win32,60
,,,,,,,,,,,,,,,,,,,,7,4.390000105,3,0.647000074,1,0,1200,190,1,1199,rescue,11138,2019-11-03_18h21.08.141,SurveyExpMetaMem,3.2.3,Win32,60
,,,,,,,,,,,,,,,,,,,,7,2.571000338,3,0.433000088,1,0,1200,1045,1,1199,scalding,11138,2019-11-03_18h21.08.141,SurveyExpMetaMem,3.2.3,Win32,60
,,,,,,,,,,,,,,,,,,,,8,1.852000237,2,1.046000242,1,0,1200,905,1,1199,suffocate,11138,2019-11-03_18h21.08.141,SurveyExpMetaMem,3.2.3,Win32,60
,,,,,,,,,,,,,,,,,,,,6,1.929000139,6,0.212000132,1,0,1200,60,1,1199,bikini,11138,2019-11-03_18h21.08.141,SurveyExpMetaMem,3.2.3,Win32,60
,,,,,,,,,,,,,,,,,,,,7,1.963999987,3,0.666000128,1,0,1200,961,1,1199,crucify,11138,2019-11-03_18h21.08.141,SurveyExpMetaMem,3.2.3,Win32,60
,,,,,,,,,,,,,,,,,,,,5,1.82400012,5,0.235000372,1,0,1200,686,1,1199,phone,11138,2019-11-03_18h21.08.141,SurveyExpMetaMem,3.2.3,Win32,60
,,,,,,,,,,,,,,,,,,,,5,1.053000212,5,0.431000233,1,0,1200,84,1,1199,eat,11138,2019-11-03_18h21.08.141,SurveyExpMetaMem,3.2.3,Win32,60
,,,,,,,,,,,,,,,,,,,,8,3.246999979,3,0.185000181,1,0,1200,992,1,1199,addict,11138,2019-11-03_18h21.08.141,SurveyExpMetaMem,3.2.3,Win32,60
,,,,,,,,,,,,,,,,,,,,6,4.508000374,4,0.194000244,1,0,1200,370,1,1199,rodent,11138,2019-11-03_18h21.08.141,SurveyExpMetaMem,3.2.3,Win32,60
,,,,,,,,,,,,,,,,,,,,5,1.664000034,5,0.327000141,1,0,1200,795,1,1199,soup,11138,2019-11-03_18h21.08.141,SurveyExpMetaMem,3.2.3,Win32,60
,,,,,,,,,,,,,,,,,,,,5,1.022000074,5,0.255000114,1,0,1200,859,1,1199,serene,11138,2019-11-03_18h21.08.141,SurveyExpMetaMem,3.2.3,Win32,60
,,,,,,,,,,,,,,,,,,,,5,1.228000164,5,0.226000071,1,0,1200,272,1,1199,confidence,11138,2019-11-03_18h21.08.141,SurveyExpMetaMem,3.2.3,Win32,60
,,,,,,,,,,,,,,,,,,,,5,0.683000088,5,0.223000288,1,0,1200,602,1,1199,vegetable,11138,2019-11-03_18h21.08.141,SurveyExpMetaMem,3.2.3,Win32,60
,,,,,,,,,,,,,,,,,,,,5,4.944000244,5,0.266000032,1,0,1200,8,1,1199,extreme,11138,2019-11-03_18h21.08.141,SurveyExpMetaMem,3.2.3,Win32,60
,,,,,,,,,,,,,,,,,,,,6,5.577000141,6,1.414000273,1,0,1200,284,1,1199,delight,11138,2019-11-03_18h21.08.141,SurveyExpMetaMem,3.2.3,Win32,60
,,,,,,,,,,,,,,,,,,,,7,1.86400032,3,0.56400013,1,0,1200,431,1,1199,itch,11138,2019-11-03_18h21.08.141,SurveyExpMetaMem,3.2.3,Win32,60
,,,,,,,,,,,,,,,,,,,,8,1.604000092,2,0.527000189,1,0,1200,930,1,1199,poison,11138,2019-11-03_18h21.08.141,SurveyExpMetaMem,3.2.3,Win32,60
,,,,,,,,,,,,,,,,,,,,3,35.08100009,7,1.546000004,1,0,1200,806,1,1199,tree,11138,2019-11-03_18h21.08.141,SurveyExpMetaMem,3.2.3,Win32,60
,,,,,,,,,,,,,,,,,,,,6,2.802000284,4,0.305000067,1,0,1200,587,1,1199,dissolve,11138,2019-11-03_18h21.08.141,SurveyExpMetaMem,3.2.3,Win32,60
,,,,,,,,,,,,,,,,,,,,7,3.484000206,3,1.516000032,1,0,1200,1110,1,1199,bastard,11138,2019-11-03_18h21.08.141,SurveyExpMetaMem,3.2.3,Win32,60
,,,,,,,,,,,,,,,,,,,,5,1.163000345,5,0.185000181,1,0,1200,641,1,1199,writer,11138,2019-11-03_18h21.08.141,SurveyExpMetaMem,3.2.3,Win32,60
,,,,,,,,,,,,,,,,,,,,6,2.377000093,6,0.936000109,1,0,1200,162,1,1199,royalty,11138,2019-11-03_18h21.08.141,SurveyExpMetaMem,3.2.3,Win32,60
,,,,,,,,,,,,,,,,,,,,5,4.300000191,5,0.210000038,1,0,1200,392,1,1199,moody,11138,2019-11-03_18h21.08.141,SurveyExpMetaMem,3.2.3,Win32,60
,,,,,,,,,,,,,,,,,,,,7,6.004000187,3,0.428000212,1,0,1200,943,1,1199,trauma,11138,2019-11-03_18h21.08.141,SurveyExpMetaMem,3.2.3,Win32,60
,,,,,,,,,,,,,,,,,,,,4,3.013000011,7,1.388000011,1,0,1200,870,1,1199,safe,11138,2019-11-03_18h21.08.141,SurveyExpMetaMem,3.2.3,Win32,60
,,,,,,,,,,,,,,,,,,,,7,6.364000082,7,0.86500001,1,0,1200,171,1,1199,imagination,11138,2019-11-03_18h21.08.141,SurveyExpMetaMem,3.2.3,Win32,60
,,,,,,,,,,,,,,,,,,,,5,2.987000227,5,0.167000055,1,0,1200,102,1,1199,motorcycle,11138,2019-11-03_18h21.08.141,SurveyExpMetaMem,3.2.3,Win32,60
,,,,,,,,,,,,,,,,,,,,7,3.887000322,3,0.448000193,1,0,1200,1000,1,1199,threat,11138,2019-11-03_18h21.08.141,SurveyExpMetaMem,3.2.3,Win32,60
,,,,,,,,,,,,,,,,,,,,7,1.805000305,4,0.703000069,1,0,1200,1131,1,1199,envious,11138,2019-11-03_18h21.08.141,SurveyExpMetaMem,3.2.3,Win32,60
,,,,,,,,,,,,,,,,,,,,6,3.407000303,5,2.838000059,1,0,1200,1169,1,1199,enforcement,11138,2019-11-03_18h21.08.141,SurveyExpMetaMem,3.2.3,Win32,60
,,,,,,,,,,,,,,,,,,,,5,2.371000051,5,0.185000181,1,0,1200,613,1,1199,cup,11138,2019-11-03_18h21.08.141,SurveyExpMetaMem,3.2.3,Win32,60
,,,,,,,,,,,,,,,,,,,,8,1.886000156,3,0.489000082,1,0,1200,439,1,1199,spit,11138,2019-11-03_18h21.08.141,SurveyExpMetaMem,3.2.3,Win32,60
,,,,,,,,,,,,,,,,,,,,5,4.184000015,5,0.171000242,1,0,1200,33,1,1199,sister,11138,2019-11-03_18h21.08.141,SurveyExpMetaMem,3.2.3,Win32,60
,,,,,,,,,,,,,,,,,,,,6,3.262000084,4,0.266000032,1,0,1200,1013,1,1199,guilty,11138,2019-11-03_18h21.08.141,SurveyExpMetaMem,3.2.3,Win32,60
,,,,,,,,,,,,,,,,,,,,7,2.025000095,7,0.186000109,1,0,1200,226,1,1199,prize,11138,2019-11-03_18h21.08.141,SurveyExpMetaMem,3.2.3,Win32,60
,,,,,,,,,,,,,,,,,,,,7,2.113000154,7,0.18200016,1,0,1200,188,1,1199,profit,11138,2019-11-03_18h21.08.141,SurveyExpMetaMem,3.2.3,Win32,60
,,,,,,,,,,,,,,,,,,,,6,2.07400012,6,0.229000092,1,0,1200,215,1,1199,salary,11138,2019-11-03_18h21.08.141,SurveyExpMetaMem,3.2.3,Win32,60
,,,,,,,,,,,,,,,,,,,,6,3.105000019,6,0.164000273,1,0,1200,77,1,1199,adore,11138,2019-11-03_18h21.08.141,SurveyExpMetaMem,3.2.3,Win32,60
,,,,,,,,,,,,,,,,,,,,4,3.229000092,4,0.205000162,1,0,1200,345,1,1199,unfortunate,11138,2019-11-03_18h21.08.141,SurveyExpMetaMem,3.2.3,Win32,60
,,,,,,,,,,,,,,,,,,,,7,2.330000162,3,0.210000038,1,0,1200,1139,1,1199,scare,11138,2019-11-03_18h21.08.141,SurveyExpMetaMem,3.2.3,Win32,60
,,,,,,,,,,,,,,,,,,,,7,1.09100008,3,0.227000237,1,0,1200,1048,1,1199,paranoid,11138,2019-11-03_18h21.08.141,SurveyExpMetaMem,3.2.3,Win32,60
,,,,,,,,,,,,,,,,,,,,5,1.345000029,5,0.133000135,1,0,1200,699,1,1199,leg,11138,2019-11-03_18h21.08.141,SurveyExpMetaMem,3.2.3,Win32,60
,,,,,,,,,,,,,,,,,,,,5,29.93500018,5,0.151000023,1,0,1200,202,1,1199,mercy,11138,2019-11-03_18h21.08.141,SurveyExpMetaMem,3.2.3,Win32,60
,,,,,,,,,,,,,,,,,,,,5,0.815000296,5,0.164000273,1,0,1200,604,1,1199,lamp,11138,2019-11-03_18h21.08.141,SurveyExpMetaMem,3.2.3,Win32,60
,,,,,,,,,,,,,,,,,,,,5,1.745000124,5,0.151000261,1,0,1200,757,1,1199,sentiment,11138,2019-11-03_18h21.08.141,SurveyExpMetaMem,3.2.3,Win32,60
,,,,,,,,,,,,,,,,,,,,5,1.313000202,5,0.203000307,1,0,1200,92,1,1199,justice,11138,2019-11-03_18h21.08.141,SurveyExpMetaMem,3.2.3,Win32,60
,,,,,,,,,,,,,,,,,,,,7,1.425000191,7,0.134000301,1,0,1200,195,1,1199,laughing,11138,2019-11-03_18h21.08.141,SurveyExpMetaMem,3.2.3,Win32,60
,,,,,,,,,,,,,,,,,,,,5,1.024000168,5,0.166000128,1,0,1200,714,1,1199,courtyard,11138,2019-11-03_18h21.08.141,SurveyExpMetaMem,3.2.3,Win32,60
,,,,,,,,,,,,,,,,,,,,6,1.943000078,6,0.168000221,1,0,1200,276,1,1199,pastry,11138,2019-11-03_18h21.08.141,SurveyExpMetaMem,3.2.3,Win32,60
,,,,,,,,,,,,,,,,,,,,5,1.269000053,5,0.208000183,1,0,1200,849,1,1199,blue,11138,2019-11-03_18h21.08.141,SurveyExpMetaMem,3.2.3,Win32,60
,,,,,,,,,,,,,,,,,,,,7,1.568000078,7,0.154000282,1,0,1200,268,1,1199,tickle,11138,2019-11-03_18h21.08.141,SurveyExpMetaMem,3.2.3,Win32,60
,,,,,,,,,,,,,,,,,,,,6,2.926000357,6,0.171000242,1,0,1200,1180,1,1199,heat,11138,2019-11-03_18h21.08.141,SurveyExpMetaMem,3.2.3,Win32,60
,,,,,,,,,,,,,,,,,,,,5,1.965000153,5,0.149000168,1,0,1200,549,1,1199,beet,11138,2019-11-03_18h21.08.141,SurveyExpMetaMem,3.2.3,Win32,60
,,,,,,,,,,,,,,,,,,,,5,1.148000002,5,0.166000128,1,0,1200,800,1,1199,authentic,11138,2019-11-03_18h21.08.141,SurveyExpMetaMem,3.2.3,Win32,60
,,,,,,,,,,,,,,,,,,,,5,0.973000288,5,0.485000134,1,0,1200,555,1,1199,school,11138,2019-11-03_18h21.08.141,SurveyExpMetaMem,3.2.3,Win32,60
,,,,,,,,,,,,,,,,,,,,6,2.262000322,6,0.15500021,1,0,1200,149,1,1199,loved,11138,2019-11-03_18h21.08.141,SurveyExpMetaMem,3.2.3,Win32,60
,,,,,,,,,,,,,,,,,,,,4,3.725000143,4,0.153000116,1,0,1200,993,1,1199,remorse,11138,2019-11-03_18h21.08.141,SurveyExpMetaMem,3.2.3,Win32,60
,,,,,,,,,,,,,,,,,,,,6,2.953000069,4,0.143000126,1,0,1200,1096,1,1199,flood,11138,2019-11-03_18h21.08.141,SurveyExpMetaMem,3.2.3,Win32,60
,,,,,,,,,,,,,,,,,,,,5,1.793000221,5,0.173000097,1,0,1200,109,1,1199,new,11138,2019-11-03_18h21.08.141,SurveyExpMetaMem,3.2.3,Win32,60
,,,,,,,,,,,,,,,,,,,,5,1.732000351,5,0.174000263,1,0,1200,560,1,1199,spurn,11138,2019-11-03_18h21.08.141,SurveyExpMetaMem,3.2.3,Win32,60
,,,,,,,,,,,,,,,,,,,,6,1.399000168,3,0.217000008,1,0,1200,977,1,1199,choke,11138,2019-11-03_18h21.08.141,SurveyExpMetaMem,3.2.3,Win32,60
,,,,,,,,,,,,,,,,,,,,6,2.171000004,6,0.252000332,1,0,1200,238,1,1199,sunshine,11138,2019-11-03_18h21.08.141,SurveyExpMetaMem,3.2.3,Win32,60
,,,,,,,,,,,,,,,,,,,,5,3.470000267,5,0.206000328,1,0,1200,568,1,1199,therapy,11138,2019-11-03_18h21.08.141,SurveyExpMetaMem,3.2.3,Win32,60
,,,,,,,,,,,,,,,,,,,,5,2.373000145,5,0.950000048,1,0,1200,294,1,1199,confident,11138,2019-11-03_18h21.08.141,SurveyExpMetaMem,3.2.3,Win32,60
,,,,,,,,,,,,,,,,,,,,5,0.952000141,5,0.193000078,1,0,1200,111,1,1199,band,11138,2019-11-03_18h21.08.141,SurveyExpMetaMem,3.2.3,Win32,60
,,,,,,,,,,,,,,,,,,,,7,1.367000103,3,0.323000193,1,0,1200,967,1,1199,horrible,11138,2019-11-03_18h21.08.141,SurveyExpMetaMem,3.2.3,Win32,60
,,,,,,,,,,,,,,,,,,,,7,0.883000135,7,0.18900013,1,0,1200,971,1,1199,crash,11138,2019-11-03_18h21.08.141,SurveyExpMetaMem,3.2.3,Win32,60
,,,,,,,,,,,,,,,,,,,,3,0.025000095,5,5.431000233,1,0,1200,267,1,1199,bold,11138,2019-11-03_18h21.08.141,SurveyExpMetaMem,3.2.3,Win32,60
,,,,,,,,,,,,,,,,,,,,5,0.164999962,5,0.685000181,1,0,1200,230,1,1199,eager,11138,2019-11-03_18h21.08.141,SurveyExpMetaMem,3.2.3,Win32,60
,,,,,,,,,,,,,,,,,,,,5,0.149000168,5,3.47200036,1,0,1200,37,1,1199,magnificence,11138,2019-11-03_18h21.08.141,SurveyExpMetaMem,3.2.3,Win32,60
,,,,,,,,,,,,,,,,,,,,6,0.249000311,4,22.35800028,1,0,1200,896,1,1199,cuddle,11138,2019-11-03_18h21.08.141,SurveyExpMetaMem,3.2.3,Win32,60
,,,,,,,,,,,,,,,,,,,,5,0.166000128,4,2.205000162,1,0,1200,524,1,1199,sigh,11138,2019-11-03_18h21.08.141,SurveyExpMetaMem,3.2.3,Win32,60
,,,,,,,,,,,,,,,,,,,,4,0.14800024,6,2.667000294,1,0,1200,320,1,1199,deformed,11138,2019-11-03_18h21.08.141,SurveyExpMetaMem,3.2.3,Win32,60
,,,,,,,,,,,,,,,,,,,,4,0.345000267,4,1.191000223,1,0,1200,559,1,1199,lazy,11138,2019-11-03_18h21.08.141,SurveyExpMetaMem,3.2.3,Win32,60
,,,,,,,,,,,,,,,,,,,,7,2.584000111,3,0.90500021,1,0,1200,956,1,1199,crushed,11138,2019-11-03_18h21.08.141,SurveyExpMetaMem,3.2.3,Win32,60
,,,,,,,,,,,,,,,,,,,,6,2.902000189,6,0.144000053,1,0,1200,140,1,1199,riches,11138,2019-11-03_18h21.08.141,SurveyExpMetaMem,3.2.3,Win32,60
,,,,,,,,,,,,,,,,,,,,4,1.427000284,4,0.210000277,1,0,1200,443,1,1199,incorrect,11138,2019-11-03_18h21.08.141,SurveyExpMetaMem,3.2.3,Win32,60
,,,,,,,,,,,,,,,,,,,,8,2.898000002,8,0.144000053,1,0,1200,115,1,1199,sexual,11138,2019-11-03_18h21.08.141,SurveyExpMetaMem,3.2.3,Win32,60
,,,,,,,,,,,,,,,,,,,,6,4.496000051,6,0.152000189,1,0,1200,157,1,1199,reveal,11138,2019-11-03_18h21.08.141,SurveyExpMetaMem,3.2.3,Win32,60
,,,,,,,,,,,,,,,,,,,,4,5.881000042,4,0.147000313,1,0,1200,902,1,1199,rejected,11138,2019-11-03_18h21.08.141,SurveyExpMetaMem,3.2.3,Win32,60
,,,,,,,,,,,,,,,,,,,,6,3.268000126,6,0.170000315,1,0,1200,129,1,1199,fly,11138,2019-11-03_18h21.08.141,SurveyExpMetaMem,3.2.3,Win32,60
,,,,,,,,,,,,,,,,,,,,8,4.413000107,3,0.525000095,1,0,1200,1103,1,1199,mob,11138,2019-11-03_18h21.08.141,SurveyExpMetaMem,3.2.3,Win32,60
,,,,,,,,,,,,,,,,,,,,5,1.544000149,5,0.146000147,1,0,1200,526,1,1199,dry,11138,2019-11-03_18h21.08.141,SurveyExpMetaMem,3.2.3,Win32,60
,,,,,,,,,,,,,,,,,,,,7,5.088000059,7,0.127000093,1,0,1200,117,1,1199,powerful,11138,2019-11-03_18h21.08.141,SurveyExpMetaMem,3.2.3,Win32,60
,,,,,,,,,,,,,,,,,,,,7,2.52300024,4,0.46900034,1,0,1200,315,1,1199,zit,11138,2019-11-03_18h21.08.141,SurveyExpMetaMem,3.2.3,Win32,60
,,,,,,,,,,,,,,,,,,,,5,3.483000278,5,0.144000053,1,0,1200,234,1,1199,redeem,11138,2019-11-03_18h21.08.141,SurveyExpMetaMem,3.2.3,Win32,60
,,,,,,,,,,,,,,,,,,,,8,4.213000059,4,3.769000053,1,0,1200,1134,1,1199,obsessed,11138,2019-11-03_18h21.08.141,SurveyExpMetaMem,3.2.3,Win32,60
,,,,,,,,,,,,,,,,,,,,8,1.893000126,8,0.154000044,1,0,1200,45,1,1199,sex,11138,2019-11-03_18h21.08.141,SurveyExpMetaMem,3.2.3,Win32,60
,,,,,,,,,,,,,,,,,,,,6,1.705000162,6,0.151000023,1,0,1200,38,1,1199,cheeseburger,11138,2019-11-03_18h21.08.141,SurveyExpMetaMem,3.2.3,Win32,60
,,,,,,,,,,,,,,,,,,,,7,2.764000177,3,0.466000319,1,0,1200,942,1,1199,aggravation,11138,2019-11-03_18h21.08.141,SurveyExpMetaMem,3.2.3,Win32,60
,,,,,,,,,,,,,,,,,,,,6,2.029000044,6,0.146000147,1,0,1200,828,1,1199,cooperative,11138,2019-11-03_18h21.08.141,SurveyExpMetaMem,3.2.3,Win32,60
,,,,,,,,,,,,,,,,,,,,3,3.035000324,7,1.61400032,1,0,1200,229,1,1199,heaven,11138,2019-11-03_18h21.08.141,SurveyExpMetaMem,3.2.3,Win32,60
,,,,,,,,,,,,,,,,,,,,4,1.846000195,4,0.270000219,1,0,1200,327,1,1199,misfortune,11138,2019-11-03_18h21.08.141,SurveyExpMetaMem,3.2.3,Win32,60
,,,,,,,,,,,,,,,,,,,,6,1.845999956,6,0.154999971,1,0,1200,59,1,1199,sports,11138,2019-11-03_18h21.08.141,SurveyExpMetaMem,3.2.3,Win32,60
,,,,,,,,,,,,,,,,,,,,6,1.546000242,4,0.124000311,1,0,1200,1150,1,1199,forceful,11138,2019-11-03_18h21.08.141,SurveyExpMetaMem,3.2.3,Win32,60
,,,,,,,,,,,,,,,,,,,,6,1.992000103,4,0.174000263,1,0,1200,1112,1,1199,pressure,11138,2019-11-03_18h21.08.141,SurveyExpMetaMem,3.2.3,Win32,60
,,,,,,,,,,,,,,,,,,,,6,3.983000278,8,0.52699995,1,0,1200,3,1,1199,nudist,11138,2019-11-03_18h21.08.141,SurveyExpMetaMem,3.2.3,Win32,60
,,,,,,,,,,,,,,,,,,,,4,1.342000008,4,0.1650002,1,0,1200,947,1,1199,shame,11138,2019-11-03_18h21.08.141,SurveyExpMetaMem,3.2.3,Win32,60
,,,,,,,,,,,,,,,,,,,,4,1.275000095,4,0.162000179,1,0,1200,305,1,1199,frown,11138,2019-11-03_18h21.08.141,SurveyExpMetaMem,3.2.3,Win32,60
,,,,,,,,,,,,,,,,,,,,6,1.824000359,6,0.163000107,1,0,1200,692,1,1199,medicine,11138,2019-11-03_18h21.08.141,SurveyExpMetaMem,3.2.3,Win32,60
,,,,,,,,,,,,,,,,,,,,6,2.691000223,6,0.148000002,1,0,1200,65,1,1199,restaurant,11138,2019-11-03_18h21.08.141,SurveyExpMetaMem,3.2.3,Win32,60
,,,,,,,,,,,,,,,,,,,,5,1.34400034,5,0.166000366,1,0,1200,145,1,1199,me,11138,2019-11-03_18h21.08.141,SurveyExpMetaMem,3.2.3,Win32,60
,,,,,,,,,,,,,,,,,,,,5,8.727000237,5,0.156000137,1,0,1200,730,1,1199,slogan,11138,2019-11-03_18h21.08.141,SurveyExpMetaMem,3.2.3,Win32,60
,,,,,,,,,,,,,,,,,,,,5,0.927000284,5,0.166000128,1,0,1200,6,1,1199,chest,11138,2019-11-03_18h21.08.141,SurveyExpMetaMem,3.2.3,Win32,60
,,,,,,,,,,,,,,,,,,,,6,1.553000212,6,0.167000055,1,0,1200,23,1,1199,earn,11138,2019-11-03_18h21.08.141,SurveyExpMetaMem,3.2.3,Win32,60
,,,,,,,,,,,,,,,,,,,,5,1.412000179,5,0.203000069,1,0,1200,719,1,1199,western,11138,2019-11-03_18h21.08.141,SurveyExpMetaMem,3.2.3,Win32,60
,,,,,,,,,,,,,,,,,,,,6,2.764000177,6,0.127000093,1,0,1200,239,1,1199,compassionate,11138,2019-11-03_18h21.08.141,SurveyExpMetaMem,3.2.3,Win32,60
,,,,,,,,,,,,,,,,,,,,7,1.666000128,7,0.158000231,1,0,1200,95,1,1199,giggle,11138,2019-11-03_18h21.08.141,SurveyExpMetaMem,3.2.3,Win32,60
,,,,,,,,,,,,,,,,,,,,5,1.662000179,5,0.167000294,1,0,1200,1117,1,1199,court,11138,2019-11-03_18h21.08.141,SurveyExpMetaMem,3.2.3,Win32,60
,,,,,,,,,,,,,,,,,,,,5,1.086000204,5,0.171000004,1,0,1200,4,1,1199,night,11138,2019-11-03_18h21.08.141,SurveyExpMetaMem,3.2.3,Win32,60
,,,,,,,,,,,,,,,,,,,,7,3.741000175,4,0.246000051,1,0,1200,303,1,1199,death,11138,2019-11-03_18h21.08.141,SurveyExpMetaMem,3.2.3,Win32,60
,,,,,,,,,,,,,,,,,,,,5,5.284000158,5,0.151000261,1,0,1200,56,1,1199,spice,11138,2019-11-03_18h21.08.141,SurveyExpMetaMem,3.2.3,Win32,60
,,,,,,,,,,,,,,,,,,,,7,8.582000256,5,1.311000109,1,0,1200,204,1,1199,crazy,11138,2019-11-03_18h21.08.141,SurveyExpMetaMem,3.2.3,Win32,60
,,,,,,,,,,,,,,,,,,,,4,2.128000021,4,0.157000303,1,0,1200,322,1,1199,widow,11138,2019-11-03_18h21.08.141,SurveyExpMetaMem,3.2.3,Win32,60
,,,,,,,,,,,,,,,,,,,,6,2.664000273,6,0.146000147,1,0,1200,662,1,1199,bib,11138,2019-11-03_18h21.08.141,SurveyExpMetaMem,3.2.3,Win32,60
,,,,,,,,,,,,,,,,,,,,5,16.73900032,5,0.154000044,1,0,1200,210,1,1199,elephant,11138,2019-11-03_18h21.08.141,SurveyExpMetaMem,3.2.3,Win32,60
,,,,,,,,,,,,,,,,,,,,6,1.366000175,6,0.153000355,1,0,1200,217,1,1199,bravery,11138,2019-11-03_18h21.08.141,SurveyExpMetaMem,3.2.3,Win32,60
,,,,,,,,,,,,,,,,,,,,5,0.963999987,5,0.175000191,1,0,1200,738,1,1199,horse,11138,2019-11-03_18h21.08.141,SurveyExpMetaMem,3.2.3,Win32,60
,,,,,,,,,,,,,,,,,,,,7,1.57400012,7,0.167000294,1,0,1200,49,1,1199,ecstatic,11138,2019-11-03_18h21.08.141,SurveyExpMetaMem,3.2.3,Win32,60
,,,,,,,,,,,,,,,,,,,,6,1.348000288,6,0.166000128,1,0,1200,144,1,1199,aroused,11138,2019-11-03_18h21.08.141,SurveyExpMetaMem,3.2.3,Win32,60
,,,,,,,,,,,,,,,,,,,,5,31.15900016,5,0.167000055,1,0,1200,631,1,1199,delicate,11138,2019-11-03_18h21.08.141,SurveyExpMetaMem,3.2.3,Win32,60
,,,,,,,,,,,,,,,,,,,,5,0.985000134,5,0.166000128,1,0,1200,219,1,1199,know,11138,2019-11-03_18h21.08.141,SurveyExpMetaMem,3.2.3,Win32,60
,,,,,,,,,,,,,,,,,,,,5,0.886000156,5,0.183000326,1,0,1200,1195,1,1199,speech,11138,2019-11-03_18h21.08.141,SurveyExpMetaMem,3.2.3,Win32,60
,,,,,,,,,,,,,,,,,,,,5,1.065999985,5,0.170000315,1,0,1200,636,1,1199,refine,11138,2019-11-03_18h21.08.141,SurveyExpMetaMem,3.2.3,Win32,60
,,,,,,,,,,,,,,,,,,,,5,0.845000267,5,0.166000128,1,0,1200,666,1,1199,verify,11138,2019-11-03_18h21.08.141,SurveyExpMetaMem,3.2.3,Win32,60
,,,,,,,,,,,,,,,,,,,,6,2.703999996,4,0.085000277,1,0,1200,577,1,1199,retreat,11138,2019-11-03_18h21.08.141,SurveyExpMetaMem,3.2.3,Win32,60
,,,,,,,,,,,,,,,,,,,,6,1.469000101,4,0.173000097,1,0,1200,1002,1,1199,wounds,11138,2019-11-03_18h21.08.141,SurveyExpMetaMem,3.2.3,Win32,60
,,,,,,,,,,,,,,,,,,,,4,2.892000198,4,0.128000259,1,0,1200,352,1,1199,negligent,11138,2019-11-03_18h21.08.141,SurveyExpMetaMem,3.2.3,Win32,60
,,,,,,,,,,,,,,,,,,,,6,2.343000174,6,0.129000187,1,0,1200,550,1,1199,fart,11138,2019-11-03_18h21.08.141,SurveyExpMetaMem,3.2.3,Win32,60
,,,,,,,,,,,,,,,,,,,,5,3.292000294,5,0.14800024,1,0,1200,529,1,1199,small,11138,2019-11-03_18h21.08.141,SurveyExpMetaMem,3.2.3,Win32,60
,,,,,,,,,,,,,,,,,,,,5,1.185000181,5,0.536000013,1,0,1200,333,1,1199,weak,11138,2019-11-03_18h21.08.141,SurveyExpMetaMem,3.2.3,Win32,60
,,,,,,,,,,,,,,,,,,,,5,1.483999968,5,0.187000275,1,0,1200,21,1,1199,game,11138,2019-11-03_18h21.08.141,SurveyExpMetaMem,3.2.3,Win32,60
,,,,,,,,,,,,,,,,,,,,5,1.028000116,5,0.156000137,1,0,1200,644,1,1199,farm,11138,2019-11-03_18h21.08.141,SurveyExpMetaMem,3.2.3,Win32,60
,,,,,,,,,,,,,,,,,,,,6,1.394000053,6,0.169000149,1,0,1200,232,1,1199,prosper,11138,2019-11-03_18h21.08.141,SurveyExpMetaMem,3.2.3,Win32,60
,,,,,,,,,,,,,,,,,,,,6,1.822999954,6,0.168000221,1,0,1200,173,1,1199,hope,11138,2019-11-03_18h21.08.141,SurveyExpMetaMem,3.2.3,Win32,60
,,,,,,,,,,,,,,,,,,,,4,3.106000185,4,0.158000231,1,0,1200,542,1,1199,loose,11138,2019-11-03_18h21.08.141,SurveyExpMetaMem,3.2.3,Win32,60
,,,,,,,,,,,,,,,,,,,,6,2.286000013,4,0.054000139,1,0,1200,1143,1,1199,arrogant,11138,2019-11-03_18h21.08.141,SurveyExpMetaMem,3.2.3,Win32,60
,,,,,,,,,,,,,,,,,,,,6,1.487000227,6,0.145000219,1,0,1200,492,1,1199,naive,11138,2019-11-03_18h21.08.141,SurveyExpMetaMem,3.2.3,Win32,60
,,,,,,,,,,,,,,,,,,,,5,38.85600019,5,0.1650002,1,0,1200,918,1,1199,gunpoint,11138,2019-11-03_18h21.08.141,SurveyExpMetaMem,3.2.3,Win32,60
,,,,,,,,,,,,,,,,,,,,5,0.147000074,5,0.153000116,1,0,1200,654,1,1199,brief,11138,2019-11-03_18h21.08.141,SurveyExpMetaMem,3.2.3,Win32,60
,,,,,,,,,,,,,,,,,,,,5,0.166000128,5,0.152000189,1,0,1200,1136,1,1199,appall,11138,2019-11-03_18h21.08.141,SurveyExpMetaMem,3.2.3,Win32,60
,,,,,,,,,,,,,,,,,,,,5,0.164000273,5,0.151000261,1,0,1200,340,1,1199,coward,11138,2019-11-03_18h21.08.141,SurveyExpMetaMem,3.2.3,Win32,60
,,,,,,,,,,,,,,,,,,,,5,0.151000023,5,0.147000313,1,0,1200,605,1,1199,year,11138,2019-11-03_18h21.08.141,SurveyExpMetaMem,3.2.3,Win32,60
,,,,,,,,,,,,,,,,,,,,5,0.167000294,5,0.154000044,1,0,1200,421,1,1199,stale,11138,2019-11-03_18h21.08.141,SurveyExpMetaMem,3.2.3,Win32,60
,,,,,,,,,,,,,,,,,,,,5,0.1650002,5,0.185000181,1,0,1200,70,1,1199,cartoon,11138,2019-11-03_18h21.08.141,SurveyExpMetaMem,3.2.3,Win32,60
,,,,,,,,,,,,,,,,,,,,5,0.17200017,5,0.166000128,1,0,1200,342,1,1199,alienation,11138,2019-11-03_18h21.08.141,SurveyExpMetaMem,3.2.3,Win32,60
,,,,,,,,,,,,,,,,,,,,5,0.223999977,5,0.169000149,1,0,1200,1014,1,1199,destroy,11138,2019-11-03_18h21.08.141,SurveyExpMetaMem,3.2.3,Win32,60
,,,,,,,,,,,,,,,,,,,,5,0.142000198,5,0.190999985,1,0,1200,1042,1,1199,brutal,11138,2019-11-03_18h21.08.141,SurveyExpMetaMem,3.2.3,Win32,60
,,,,,,,,,,,,,,,,,,,,5,0.183000088,5,0.20600009,1,0,1200,166,1,1199,unite,11138,2019-11-03_18h21.08.141,SurveyExpMetaMem,3.2.3,Win32,60
,,,,,,,,,,,,,,,,,,,,5,0.185000181,5,0.225000143,1,0,1200,464,1,1199,tick,11138,2019-11-03_18h21.08.141,SurveyExpMetaMem,3.2.3,Win32,60
,,,,,,,,,,,,,,,,,,,,5,0.190999985,5,0.206000328,1,0,1200,597,1,1199,drool,11138,2019-11-03_18h21.08.141,SurveyExpMetaMem,3.2.3,Win32,60
,,,,,,,,,,,,,,,,,,,,5,0.17200017,5,0.203000307,1,0,1200,508,1,1199,haphazard,11138,2019-11-03_18h21.08.141,SurveyExpMetaMem,3.2.3,Win32,60
,,,,,,,,,,,,,,,,,,,,5,0.184000015,5,0.185000181,1,0,1200,288,1,1199,tasty,11138,2019-11-03_18h21.08.141,SurveyExpMetaMem,3.2.3,Win32,60
,,,,,,,,,,,,,,,,,,,,5,0.180000305,5,0.156000137,1,0,1200,1126,1,1199,offensive,11138,2019-11-03_18h21.08.141,SurveyExpMetaMem,3.2.3,Win32,60
,,,,,,,,,,,,,,,,,,,,5,0.204000235,5,0.169000149,1,0,1200,287,1,1199,optimistic,11138,2019-11-03_18h21.08.141,SurveyExpMetaMem,3.2.3,Win32,60
,,,,,,,,,,,,,,,,,,,,5,0.184000254,5,0.167999983,1,0,1200,47,1,1199,enjoy,11138,2019-11-03_18h21.08.141,SurveyExpMetaMem,3.2.3,Win32,60
,,,,,,,,,,,,,,,,,,,,5,0.184000015,5,0.205000401,1,0,1200,103,1,1199,conquest,11138,2019-11-03_18h21.08.141,SurveyExpMetaMem,3.2.3,Win32,60
,,,,,,,,,,,,,,,,,,,,5,0.192000151,5,0.365000248,1,0,1200,243,1,1199,fame,11138,2019-11-03_18h21.08.141,SurveyExpMetaMem,3.2.3,Win32,60
,,,,,,,,,,,,,,,,,,,,5,0.250000238,5,0.591000319,1,0,1200,573,1,1199,cease,11138,2019-11-03_18h21.08.141,SurveyExpMetaMem,3.2.3,Win32,60
,,,,,,,,,,,,,,,,,,,,6,0.142000198,4,0.02300024,1,0,1200,336,1,1199,wasteful,11138,2019-11-03_18h21.08.141,SurveyExpMetaMem,3.2.3,Win32,60
,,,,,,,,,,,,,,,,,,,,7,0.131000042,4,0.110000134,1,0,1200,729,1,1199,velvet,11138,2019-11-03_18h21.08.141,SurveyExpMetaMem,3.2.3,Win32,60
,,,,,,,,,,,,,,,,,,,,6,0.137000084,4,0.105000257,1,0,1200,712,1,1199,harvest,11138,2019-11-03_18h21.08.141,SurveyExpMetaMem,3.2.3,Win32,60
,,,,,,,,,,,,,,,,,,,,6,0.111000061,4,0.145000219,1,0,1200,617,1,1199,tomato,11138,2019-11-03_18h21.08.141,SurveyExpMetaMem,3.2.3,Win32,60
,,,,,,,,,,,,,,,,,,,,6,0.156000137,8,0.153000116,1,0,1200,853,1,1199,breeze,11138,2019-11-03_18h21.08.141,SurveyExpMetaMem,3.2.3,Win32,60
,,,,,,,,,,,,,,,,,,,,3,0.105000257,6,0.205000162,1,0,1200,150,1,1199,vodka,11138,2019-11-03_18h21.08.141,SurveyExpMetaMem,3.2.3,Win32,60
,,,,,,,,,,,,,,,,,,,,8,0.008000374,4,0.136000156,1,0,1200,1101,1,1199,scary,11138,2019-11-03_18h21.08.141,SurveyExpMetaMem,3.2.3,Win32,60
,,,,,,,,,,,,,,,,,,,,5,0.009000063,6,0.470000029,1,0,1200,304,1,1199,depression,11138,2019-11-03_18h21.08.141,SurveyExpMetaMem,3.2.3,Win32,60
,,,,,,,,,,,,,,,,,,,,4,0.143000364,6,0.11500001,1,0,1200,844,1,1199,soul,11138,2019-11-03_18h21.08.141,SurveyExpMetaMem,3.2.3,Win32,60
,,,,,,,,,,,,,,,,,,,,4,0.09400034,6,0.173000336,1,0,1200,821,1,1199,cottage,11138,2019-11-03_18h21.08.141,SurveyExpMetaMem,3.2.3,Win32,60
,,,,,,,,,,,,,,,,,,,,4,0.111000299,6,0.167000055,1,0,1200,245,1,1199,beach,11138,2019-11-03_18h21.08.141,SurveyExpMetaMem,3.2.3,Win32,60
,,,,,,,,,,,,,,,,,,,,4,0.073000193,6,0.144000053,1,0,1200,813,1,1199,walking,11138,2019-11-03_18h21.08.141,SurveyExpMetaMem,3.2.3,Win32,60
,,,,,,,,,,,,,,,,,,,,4,0.103000164,8,0.127000093,1,0,1200,397,1,1199,complaint,11138,2019-11-03_18h21.08.141,SurveyExpMetaMem,3.2.3,Win32,60
,,,,,,,,,,,,,,,,,,,,4,0.374000311,7,0.224000216,1,0,1200,732,1,1199,humble,11138,2019-11-03_18h21.08.141,SurveyExpMetaMem,3.2.3,Win32,60
,,,,,,,,,,,,,,,,,,,,6,0.130000353,5,0.110000134,1,0,1200,937,1,1199,prison,11138,2019-11-03_18h21.08.141,SurveyExpMetaMem,3.2.3,Win32,60
,,,,,,,,,,,,,,,,,,,,4,0.072000027,7,0.194000244,1,0,1200,483,1,1199,condescension,11138,2019-11-03_18h21.08.141,SurveyExpMetaMem,3.2.3,Win32,60
,,,,,,,,,,,,,,,,,,,,6,0.042000294,5,0.10800004,1,0,1200,360,1,1199,dandruff,11138,2019-11-03_18h21.08.141,SurveyExpMetaMem,3.2.3,Win32,60
,,,,,,,,,,,,,,,,,,,,4,0.071000099,7,0.163000107,1,0,1200,73,1,1199,rhythm,11138,2019-11-03_18h21.08.141,SurveyExpMetaMem,3.2.3,Win32,60
,,,,,,,,,,,,,,,,,,,,4,0.142000198,6,0.144000053,1,0,1200,134,1,1199,dollar,11138,2019-11-03_18h21.08.141,SurveyExpMetaMem,3.2.3,Win32,60
,,,,,,,,,,,,,,,,,,,,4,0.124000311,4,0.325000048,1,0,1200,627,1,1199,introductory,11138,2019-11-03_18h21.08.141,SurveyExpMetaMem,3.2.3,Win32,60
,,,,,,,,,,,,,,,,,,,,8,0.186000109,6,0.090000153,1,0,1200,486,1,1199,fool,11138,2019-11-03_18h21.08.141,SurveyExpMetaMem,3.2.3,Win32,60
,,,,,,,,,,,,,,,,,,,,5,0.14800024,4,0.124000311,1,0,1200,177,1,1199,frosting,11138,2019-11-03_18h21.08.141,SurveyExpMetaMem,3.2.3,Win32,60
,,,,,,,,,,,,,,,,,,,,7,0.192000151,6,0.185000181,1,0,1200,1083,1,1199,delayed,11138,2019-11-03_18h21.08.141,SurveyExpMetaMem,3.2.3,Win32,60
,,,,,,,,,,,,,,,,,,,,4,0.131999969,7,0.210000038,1,0,1200,805,1,1199,autumn,11138,2019-11-03_18h21.08.141,SurveyExpMetaMem,3.2.3,Win32,60
,,,,,,,,,,,,,,,,,,,,6,0.044000149,5,0.145000219,1,0,1200,1031,1,1199,fear,11138,2019-11-03_18h21.08.141,SurveyExpMetaMem,3.2.3,Win32,60
,,,,,,,,,,,,,,,,,,,,4,0.039000034,6,0.253000021,1,0,1200,888,1,1199,refreshment,11138,2019-11-03_18h21.08.141,SurveyExpMetaMem,3.2.3,Win32,60
,,,,,,,,,,,,,,,,,,,,5,0.089000225,4,0.076000214,1,0,1200,501,1,1199,dustpan,11138,2019-11-03_18h21.08.141,SurveyExpMetaMem,3.2.3,Win32,60
,,,,,,,,,,,,,,,,,,,,6,0.123000145,7,0.128000259,1,0,1200,960,1,1199,irritated,11138,2019-11-03_18h21.08.141,SurveyExpMetaMem,3.2.3,Win32,60
,,,,,,,,,,,,,,,,,,,,4,0.025000334,5,0.109000206,1,0,1200,634,1,1199,glacier,11138,2019-11-03_18h21.08.141,SurveyExpMetaMem,3.2.3,Win32,60
,,,,,,,,,,,,,,,,,,,,6,0.171000242,4,0.04700017,1,0,1200,368,1,1199,dreary,11138,2019-11-03_18h21.08.141,SurveyExpMetaMem,3.2.3,Win32,60
,,,,,,,,,,,,,,,,,,,,6,0.163000107,4,0.116000175,1,0,1200,132,1,1199,silly,11138,2019-11-03_18h21.08.141,SurveyExpMetaMem,3.2.3,Win32,60
,,,,,,,,,,,,,,,,,,,,6,0.18900013,4,0.151000261,1,0,1200,1149,1,1199,fight,11138,2019-11-03_18h21.08.141,SurveyExpMetaMem,3.2.3,Win32,60
,,,,,,,,,,,,,,,,,,,,5,0.151000261,6,0.016000271,1,0,1200,98,1,1199,affection,11138,2019-11-03_18h21.08.141,SurveyExpMetaMem,3.2.3,Win32,60
,,,,,,,,,,,,,,,,,,,,4,0.088000298,6,0.173000336,1,0,1200,1065,1,1199,slap,11138,2019-11-03_18h21.08.141,SurveyExpMetaMem,3.2.3,Win32,60
,,,,,,,,,,,,,,,,,,,,7,0.0400002,5,0.230000019,1,0,1200,139,1,1199,generosity,11138,2019-11-03_18h21.08.141,SurveyExpMetaMem,3.2.3,Win32,60
,,,,,,,,,,,,,,,,,,,,4,0.066000223,7,0.204000235,1,0,1200,20,1,1199,climax,11138,2019-11-03_18h21.08.141,SurveyExpMetaMem,3.2.3,Win32,60
,,,,,,,,,,,,,,,,,,,,6,0.112000227,4,0.228000164,1,0,1200,364,1,1199,stink,11138,2019-11-03_18h21.08.141,SurveyExpMetaMem,3.2.3,Win32,60
,,,,,,,,,,,,,,,,,,,,7,0.170000076,6,0.072000027,1,0,1200,317,1,1199,cry,11138,2019-11-03_18h21.08.141,SurveyExpMetaMem,3.2.3,Win32,60
,,,,,,,,,,,,,,,,,,,,4,0.223999977,7,0.124000072,1,0,1200,5,1,1199,drunk,11138,2019-11-03_18h21.08.141,SurveyExpMetaMem,3.2.3,Win32,60
,,,,,,,,,,,,,,,,,,,,6,0.046000242,4,0.224000216,1,0,1200,546,1,1199,solemn,11138,2019-11-03_18h21.08.141,SurveyExpMetaMem,3.2.3,Win32,60
,,,,,,,,,,,,,,,,,,,,7,0.114000082,6,0.079000235,1,0,1200,254,1,1199,crush,11138,2019-11-03_18h21.08.141,SurveyExpMetaMem,3.2.3,Win32,60
,,,,,,,,,,,,,,,,,,,,4,0.147000313,6,0.153000116,1,0,1200,513,1,1199,bland,11138,2019-11-03_18h21.08.141,SurveyExpMetaMem,3.2.3,Win32,60
,,,,,,,,,,,,,,,,,,,,5,0.024000168,4,0.086000204,1,0,1200,999,1,1199,burdened,11138,2019-11-03_18h21.08.141,SurveyExpMetaMem,3.2.3,Win32,60
,,,,,,,,,,,,,,,,,,,,7,0.126000166,4,0.132000208,1,0,1200,1050,1,1199,scorn,11138,2019-11-03_18h21.08.141,SurveyExpMetaMem,3.2.3,Win32,60
,,,,,,,,,,,,,,,,,,,,8,0.203000069,6,0.011000156,1,0,1200,301,1,1199,sad,11138,2019-11-03_18h21.08.141,SurveyExpMetaMem,3.2.3,Win32,60
,,,,,,,,,,,,,,,,,,,,5,0.033000231,9,0.348000288,1,0,1200,418,1,1199,cheapskate,11138,2019-11-03_18h21.08.141,SurveyExpMetaMem,3.2.3,Win32,60
,,,,,,,,,,,,,,,,,,,,8,0.365000248,4,0.243000269,1,0,1200,968,1,1199,insult,11138,2019-11-03_18h21.08.141,SurveyExpMetaMem,3.2.3,Win32,60
,,,,,,,,,,,,,,,,,,,,7,0.248000145,4,0.107000113,1,0,1200,945,1,1199,demon,11138,2019-11-03_18h21.08.141,SurveyExpMetaMem,3.2.3,Win32,60
,,,,,,,,,,,,,,,,,,,,8,0.236000299,6,0.012000084,1,0,1200,665,1,1199,read,11138,2019-11-03_18h21.08.141,SurveyExpMetaMem,3.2.3,Win32,60
,,,,,,,,,,,,,,,,,,,,4,12.86600018,4,0.147000074,1,0,1200,1142,1,1199,disturb,11138,2019-11-03_18h21.08.141,SurveyExpMetaMem,3.2.3,Win32,60
,,,,,,,,,,,,,,,,,,,,8,1.863000154,2,0.496000051,1,0,1200,929,1,1199,mutilation,11138,2019-11-03_18h21.08.141,SurveyExpMetaMem,3.2.3,Win32,60
,,,,,,,,,,,,,,,,,,,,4,1.853000164,4,0.164000034,1,0,1200,588,1,1199,bandage,11138,2019-11-03_18h21.08.141,SurveyExpMetaMem,3.2.3,Win32,60
,,,,,,,,,,,,,,,,,,,,5,16.14400029,5,0.17200017,1,0,1200,727,1,1199,author,11138,2019-11-03_18h21.08.141,SurveyExpMetaMem,3.2.3,Win32,60
,,,,,,,,,,,,,,,,,,,,6,2.068000078,4,0.127000093,1,0,1200,951,1,1199,castrate,11138,2019-11-03_18h21.08.141,SurveyExpMetaMem,3.2.3,Win32,60
,,,,,,,,,,,,,,,,,,,,6,1.563000202,4,0.070000172,1,0,1200,985,1,1199,pollution,11138,2019-11-03_18h21.08.141,SurveyExpMetaMem,3.2.3,Win32,60
,,,,,,,,,,,,,,,,,,,,5,0.944000244,5,0.144000053,1,0,1200,669,1,1199,plaza,11138,2019-11-03_18h21.08.141,SurveyExpMetaMem,3.2.3,Win32,60
,,,,,,,,,,,,,,,,,,,,5,1.169000149,5,0.17200017,1,0,1200,525,1,1199,stagnant,11138,2019-11-03_18h21.08.141,SurveyExpMetaMem,3.2.3,Win32,60
,,,,,,,,,,,,,,,,,,,,6,1.51300025,6,0.151000261,1,0,1200,40,1,1199,kissing,11138,2019-11-03_18h21.08.141,SurveyExpMetaMem,3.2.3,Win32,60
,,,,,,,,,,,,,,,,,,,,6,1.688000202,6,0.166000128,1,0,1200,120,1,1199,imaginative,11138,2019-11-03_18h21.08.141,SurveyExpMetaMem,3.2.3,Win32,60
,,,,,,,,,,,,,,,,,,,,5,1.304000139,5,0.142000198,1,0,1200,709,1,1199,ancestor,11138,2019-11-03_18h21.08.141,SurveyExpMetaMem,3.2.3,Win32,60
,,,,,,,,,,,,,,,,,,,,5,0.825000286,5,0.166000128,1,0,1200,136,1,1199,dog,11138,2019-11-03_18h21.08.141,SurveyExpMetaMem,3.2.3,Win32,60
,,,,,,,,,,,,,,,,,,,,5,0.945000172,5,0.164000273,1,0,1200,772,1,1199,ornament,11138,2019-11-03_18h21.08.141,SurveyExpMetaMem,3.2.3,Win32,60
,,,,,,,,,,,,,,,,,,,,5,0.952000141,5,0.18200016,1,0,1200,845,1,1199,honey,11138,2019-11-03_18h21.08.141,SurveyExpMetaMem,3.2.3,Win32,60
,,,,,,,,,,,,,,,,,,,,5,0.835000038,5,0.857000113,1,0,1200,1161,1,1199,shock,11138,2019-11-03_18h21.08.141,SurveyExpMetaMem,3.2.3,Win32,60
,,,,,,,,,,,,,,,,,,,,4,12.86000013,4,0.17200017,1,0,1200,979,1,1199,harassment,11138,2019-11-03_18h21.08.141,SurveyExpMetaMem,3.2.3,Win32,60
,,,,,,,,,,,,,,,,,,,,5,4.503000021,5,0.156000137,1,0,1200,494,1,1199,butcher,11138,2019-11-03_18h21.08.141,SurveyExpMetaMem,3.2.3,Win32,60
,,,,,,,,,,,,,,,,,,,,5,1.323000193,5,0.185000181,1,0,1200,261,1,1199,windsurfers,11138,2019-11-03_18h21.08.141,SurveyExpMetaMem,3.2.3,Win32,60
,,,,,,,,,,,,,,,,,,,,5,4.103000164,5,0.433000326,1,0,1200,430,1,1199,cancel,11138,2019-11-03_18h21.08.141,SurveyExpMetaMem,3.2.3,Win32,60
,,,,,,,,,,,,,,,,,,,,5,1.244000196,5,0.168000221,1,0,1200,479,1,1199,period,11138,2019-11-03_18h21.08.141,SurveyExpMetaMem,3.2.3,Win32,60
,,,,,,,,,,,,,,,,,,,,6,2.585000277,4,0.068000078,1,0,1200,1079,1,1199,critic,11138,2019-11-03_18h21.08.141,SurveyExpMetaMem,3.2.3,Win32,60
,,,,,,,,,,,,,,,,,,,,5,2.106000185,5,0.205000162,1,0,1200,332,1,1199,sewage,11138,2019-11-03_18h21.08.141,SurveyExpMetaMem,3.2.3,Win32,60
,,,,,,,,,,,,,,,,,,,,7,1.369000196,7,0.144000053,1,0,1200,135,1,1199,applause,11138,2019-11-03_18h21.08.141,SurveyExpMetaMem,3.2.3,Win32,60
,,,,,,,,,,,,,,,,,,,,7,1.105000019,7,0.166000366,1,0,1200,295,1,1199,passion,11138,2019-11-03_18h21.08.141,SurveyExpMetaMem,3.2.3,Win32,60
,,,,,,,,,,,,,,,,,,,,4,1.985000372,4,0.168000221,1,0,1200,306,1,1199,gloom,11138,2019-11-03_18h21.08.141,SurveyExpMetaMem,3.2.3,Win32,60
,,,,,,,,,,,,,,,,,,,,5,2.34400034,5,0.158000231,1,0,1200,331,1,1199,casket,11138,2019-11-03_18h21.08.141,SurveyExpMetaMem,3.2.3,Win32,60
,,,,,,,,,,,,,,,,,,,,6,5.004000187,6,0.234000206,1,0,1200,220,1,1199,reef,11138,2019-11-03_18h21.08.141,SurveyExpMetaMem,3.2.3,Win32,60
,,,,,,,,,,,,,,,,,,,,5,2.990000248,5,0.184000254,1,0,1200,1168,1,1199,financial,11138,2019-11-03_18h21.08.141,SurveyExpMetaMem,3.2.3,Win32,60
,,,,,,,,,,,,,,,,,,,,7,6.762000084,2,0.686000347,1,0,1200,904,1,1199,murderer,11138,2019-11-03_18h21.08.141,SurveyExpMetaMem,3.2.3,Win32,60
,,,,,,,,,,,,,,,,,,,,4,2.324000359,4,0.150000095,1,0,1200,705,1,1199,tolerant,11138,2019-11-03_18h21.08.141,SurveyExpMetaMem,3.2.3,Win32,60
,,,,,,,,,,,,,,,,,,,,5,2.868000269,5,0.225000143,1,0,1200,872,1,1199,dignified,11138,2019-11-03_18h21.08.141,SurveyExpMetaMem,3.2.3,Win32,60
,,,,,,,,,,,,,,,,,,,,5,1.184000254,5,0.168000221,1,0,1200,690,1,1199,similar,11138,2019-11-03_18h21.08.141,SurveyExpMetaMem,3.2.3,Win32,60
,,,,,,,,,,,,,,,,,,,,4,4.910000086,4,0.1650002,1,0,1200,414,1,1199,pity,11138,2019-11-03_18h21.08.141,SurveyExpMetaMem,3.2.3,Win32,60
,,,,,,,,,,,,,,,,,,,,7,2.1650002,7,0.166000128,1,0,1200,1183,1,1199,emotional,11138,2019-11-03_18h21.08.141,SurveyExpMetaMem,3.2.3,Win32,60
,,,,,,,,,,,,,,,,,,,,8,10.23399997,1,0.903000116,1,0,1200,1028,1,1199,terror,11138,2019-11-03_18h21.08.141,SurveyExpMetaMem,3.2.3,Win32,60
,,,,,,,,,,,,,,,,,,,,6,4.563000202,6,0.151000023,1,0,1200,874,1,1199,butterfly,11138,2019-11-03_18h21.08.141,SurveyExpMetaMem,3.2.3,Win32,60
,,,,,,,,,,,,,,,,,,,,4,1.769000292,4,0.187000036,1,0,1200,458,1,1199,refuse,11138,2019-11-03_18h21.08.141,SurveyExpMetaMem,3.2.3,Win32,60
,,,,,,,,,,,,,,,,,,,,5,2.463000059,6,0.431000233,1,0,1200,881,1,1199,protected,11138,2019-11-03_18h21.08.141,SurveyExpMetaMem,3.2.3,Win32,60
,,,,,,,,,,,,,,,,,,,,6,3.588000298,6,0.884000301,1,0,1200,22,1,1199,doughnut,11138,2019-11-03_18h21.08.141,SurveyExpMetaMem,3.2.3,Win32,60
,,,,,,,,,,,,,,,,,,,,4,1.624000311,4,0.185000181,1,0,1200,422,1,1199,doubtful,11138,2019-11-03_18h21.08.141,SurveyExpMetaMem,3.2.3,Win32,60
,,,,,,,,,,,,,,,,,,,,5,1.006000042,5,0.166000128,1,0,1200,766,1,1199,flag,11138,2019-11-03_18h21.08.141,SurveyExpMetaMem,3.2.3,Win32,60
,,,,,,,,,,,,,,,,,,,,6,1.493000031,4,0.228000164,1,0,1200,920,1,1199,hurt,11138,2019-11-03_18h21.08.141,SurveyExpMetaMem,3.2.3,Win32,60
,,,,,,,,,,,,,,,,,,,,8,2.693000317,2,0.861000061,1,0,1200,1036,1,1199,anxiety,11138,2019-11-03_18h21.08.141,SurveyExpMetaMem,3.2.3,Win32,60
,,,,,,,,,,,,,,,,,,,,7,3.407000065,3,0.404000044,1,0,1200,1030,1,1199,offend,11138,2019-11-03_18h21.08.141,SurveyExpMetaMem,3.2.3,Win32,60
,,,,,,,,,,,,,,,,,,,,7,11.06600022,5,0.192000151,1,0,1200,1167,1,1199,bribe,11138,2019-11-03_18h21.08.141,SurveyExpMetaMem,3.2.3,Win32,60
,,,,,,,,,,,,,,,,,,,,7,5.068000317,5,0.149000168,1,0,1200,1098,1,1199,confused,11138,2019-11-03_18h21.08.141,SurveyExpMetaMem,3.2.3,Win32,60
,,,,,,,,,,,,,,,,,,,,7,8.430000067,5,0.123000145,1,0,1200,1181,1,1199,blade,11138,2019-11-03_18h21.08.141,SurveyExpMetaMem,3.2.3,Win32,60
,,,,,,,,,,,,,,,,,,,,6,4.107000351,6,0.489000082,1,0,1200,1097,1,1199,bees,11138,2019-11-03_18h21.08.141,SurveyExpMetaMem,3.2.3,Win32,60
,,,,,,,,,,,,,,,,,,,,6,1.588000298,6,0.196000338,1,0,1200,647,1,1199,accord,11138,2019-11-03_18h21.08.141,SurveyExpMetaMem,3.2.3,Win32,60
,,,,,,,,,,,,,,,,,,,,9,1.946000099,2,1.744000196,1,0,1200,969,1,1199,whore,11138,2019-11-03_18h21.08.141,SurveyExpMetaMem,3.2.3,Win32,60
,,,,,,,,,,,,,,,,,,,,8,6.482000113,8,0.145000219,1,0,1200,296,1,1199,awesome,11138,2019-11-03_18h21.08.141,SurveyExpMetaMem,3.2.3,Win32,60
,,,,,,,,,,,,,,,,,,,,7,2.770000219,4,0.546000004,1,0,1200,400,1,1199,urine,11138,2019-11-03_18h21.08.141,SurveyExpMetaMem,3.2.3,Win32,60
,,,,,,,,,,,,,,,,,,,,5,1.606000185,5,0.166000128,1,0,1200,71,1,1199,spirit,11138,2019-11-03_18h21.08.141,SurveyExpMetaMem,3.2.3,Win32,60
,,,,,,,,,,,,,,,,,,,,7,6.215000153,3,0.535000086,1,0,1200,933,1,1199,afraid,11138,2019-11-03_18h21.08.141,SurveyExpMetaMem,3.2.3,Win32,60
,,,,,,,,,,,,,,,,,,,,5,1.426000118,5,0.147000074,1,0,1200,477,1,1199,separate,11138,2019-11-03_18h21.08.141,SurveyExpMetaMem,3.2.3,Win32,60
,,,,,,,,,,,,,,,,,,,,4,2.346000195,4,0.185000181,1,0,1200,379,1,1199,slob,11138,2019-11-03_18h21.08.141,SurveyExpMetaMem,3.2.3,Win32,60
,,,,,,,,,,,,,,,,,,,,6,1.845000267,5,0.025000095,1,0,1200,704,1,1199,flute,11138,2019-11-03_18h21.08.141,SurveyExpMetaMem,3.2.3,Win32,60
,,,,,,,,,,,,,,,,,,,,6,4.167000294,4,0.174000263,1,0,1200,1121,1,1199,ban,11138,2019-11-03_18h21.08.141,SurveyExpMetaMem,3.2.3,Win32,60
,,,,,,,,,,,,,,,,,,,,7,2.369000196,2,0.456000328,1,0,1200,998,1,1199,virus,11138,2019-11-03_18h21.08.141,SurveyExpMetaMem,3.2.3,Win32,60
,,,,,,,,,,,,,,,,,,,,6,1.604000092,6,0.151000261,1,0,1200,858,1,1199,donate,11138,2019-11-03_18h21.08.141,SurveyExpMetaMem,3.2.3,Win32,60
,,,,,,,,,,,,,,,,,,,,6,1.472000122,6,0.164000034,1,0,1200,62,1,1199,interested,11138,2019-11-03_18h21.08.141,SurveyExpMetaMem,3.2.3,Win32,60
,,,,,,,,,,,,,,,,,,,,6,1.936000347,6,0.167000294,1,0,1200,689,1,1199,land,11138,2019-11-03_18h21.08.141,SurveyExpMetaMem,3.2.3,Win32,60
,,,,,,,,,,,,,,,,,,,,6,2.629000187,4,0.128000021,1,0,1200,1046,1,1199,unsafe,11138,2019-11-03_18h21.08.141,SurveyExpMetaMem,3.2.3,Win32,60
,,,,,,,,,,,,,,,,,,,,5,2.76300025,5,0.169000387,1,0,1200,768,1,1199,trait,11138,2019-11-03_18h21.08.141,SurveyExpMetaMem,3.2.3,Win32,60
,,,,,,,,,,,,,,,,,,,,6,1.218000174,6,0.1650002,1,0,1200,298,1,1199,success,11138,2019-11-03_18h21.08.141,SurveyExpMetaMem,3.2.3,Win32,60
,,,,,,,,,,,,,,,,,,,,7,1.327000141,5,1.445000172,1,0,1200,1099,1,1199,fire,11138,2019-11-03_18h21.08.141,SurveyExpMetaMem,3.2.3,Win32,60
,,,,,,,,,,,,,,,,,,,,7,4.286000252,7,0.163000345,1,0,1200,193,1,1199,party,11138,2019-11-03_18h21.08.141,SurveyExpMetaMem,3.2.3,Win32,60
,,,,,,,,,,,,,,,,,,,,6,1.164999962,6,0.166000128,1,0,1200,299,1,1199,champion,11138,2019-11-03_18h21.08.141,SurveyExpMetaMem,3.2.3,Win32,60
,,,,,,,,,,,,,,,,,,,,4,2.02300024,7,0.330000162,1,0,1200,823,1,1199,nourish,11138,2019-11-03_18h21.08.141,SurveyExpMetaMem,3.2.3,Win32,60
,,,,,,,,,,,,,,,,,,,,7,1.704000235,7,0.173000336,1,0,1200,148,1,1199,victory,11138,2019-11-03_18h21.08.141,SurveyExpMetaMem,3.2.3,Win32,60
,,,,,,,,,,,,,,,,,,,,5,1.524000168,5,0.166000128,1,0,1200,548,1,1199,vague,11138,2019-11-03_18h21.08.141,SurveyExpMetaMem,3.2.3,Win32,60
,,,,,,,,,,,,,,,,,,,,6,4.166000128,6,0.145000219,1,0,1200,809,1,1199,boy,11138,2019-11-03_18h21.08.141,SurveyExpMetaMem,3.2.3,Win32,60
,,,,,,,,,,,,,,,,,,,,5,2.144000292,5,0.205000162,1,0,1200,1192,1,1199,startled,11138,2019-11-03_18h21.08.141,SurveyExpMetaMem,3.2.3,Win32,60
,,,,,,,,,,,,,,,,,,,,6,2.926000118,6,0.145000219,1,0,1200,90,1,1199,satisfaction,11138,2019-11-03_18h21.08.141,SurveyExpMetaMem,3.2.3,Win32,60
,,,,,,,,,,,,,,,,,,,,6,1.311000347,6,0.204000235,1,0,1200,17,1,1199,outgoing,11138,2019-11-03_18h21.08.141,SurveyExpMetaMem,3.2.3,Win32,60
,,,,,,,,,,,,,,,,,,,,4,1.351000309,4,0.185000181,1,0,1200,988,1,1199,deserter,11138,2019-11-03_18h21.08.141,SurveyExpMetaMem,3.2.3,Win32,60
,,,,,,,,,,,,,,,,,,,,4,5.723000288,4,0.185000181,1,0,1200,975,1,1199,insecure,11138,2019-11-03_18h21.08.141,SurveyExpMetaMem,3.2.3,Win32,60
,,,,,,,,,,,,,,,,,,,,5,4.617000103,5,0.20600009,1,0,1200,104,1,1199,freeway,11138,2019-11-03_18h21.08.141,SurveyExpMetaMem,3.2.3,Win32,60
,,,,,,,,,,,,,,,,,,,,4,1.545000076,4,0.173000097,1,0,1200,957,1,1199,debt,11138,2019-11-03_18h21.08.141,SurveyExpMetaMem,3.2.3,Win32,60
,,,,,,,,,,,,,,,,,,,,4,2.610000134,4,0.188000202,1,0,1200,375,1,1199,manure,11138,2019-11-03_18h21.08.141,SurveyExpMetaMem,3.2.3,Win32,60
,,,,,,,,,,,,,,,,,,,,6,1.94900012,6,0.147000074,1,0,1200,237,1,1199,beautiful,11138,2019-11-03_18h21.08.141,SurveyExpMetaMem,3.2.3,Win32,60
,,,,,,,,,,,,,,,,,,,,7,2.544000149,5,1.185000181,1,0,1200,558,1,1199,punk,11138,2019-11-03_18h21.08.141,SurveyExpMetaMem,3.2.3,Win32,60
,,,,,,,,,,,,,,,,,,,,6,4.169000387,6,0.146000147,1,0,1200,252,1,1199,infatuated,11138,2019-11-03_18h21.08.141,SurveyExpMetaMem,3.2.3,Win32,60
,,,,,,,,,,,,,,,,,,,,7,4.473000288,7,0.825000048,1,0,1200,255,1,1199,ass,11138,2019-11-03_18h21.08.141,SurveyExpMetaMem,3.2.3,Win32,60
,,,,,,,,,,,,,,,,,,,,7,513.5190001,5,0.049000025,1,0,1200,1003,1,1199,jealousy,11138,2019-11-03_18h21.08.141,SurveyExpMetaMem,3.2.3,Win32,60
,,,,,,,,,,,,,,,,,,,,4,4.424000263,6,0.231000185,1,0,1200,866,1,1199,haven,11138,2019-11-03_18h21.08.141,SurveyExpMetaMem,3.2.3,Win32,60
,,,,,,,,,,,,,,,,,,,,7,2.601999998,3,0.14199996,1,0,1200,1055,1,1199,alarm,11138,2019-11-03_18h21.08.141,SurveyExpMetaMem,3.2.3,Win32,60
,,,,,,,,,,,,,,,,,,,,5,1.641000032,5,0.184000254,1,0,1200,742,1,1199,window,11138,2019-11-03_18h21.08.141,SurveyExpMetaMem,3.2.3,Win32,60
,,,,,,,,,,,,,,,,,,,,5,1.941000223,5,0.20600009,1,0,1200,761,1,1199,corn,11138,2019-11-03_18h21.08.141,SurveyExpMetaMem,3.2.3,Win32,60
,,,,,,,,,,,,,,,,,,,,7,1.444000244,3,0.180000067,1,0,1200,915,1,1199,abuse,11138,2019-11-03_18h21.08.141,SurveyExpMetaMem,3.2.3,Win32,60
,,,,,,,,,,,,,,,,,,,,6,1.741000175,4,0.126000166,1,0,1200,1147,1,1199,demand,11138,2019-11-03_18h21.08.141,SurveyExpMetaMem,3.2.3,Win32,60
,,,,,,,,,,,,,,,,,,,,6,1.428000212,4,0.110000134,1,0,1200,670,1,1199,urinate,11138,2019-11-03_18h21.08.141,SurveyExpMetaMem,3.2.3,Win32,60
,,,,,,,,,,,,,,,,,,,,5,0.946000099,5,0.183000088,1,0,1200,553,1,1199,corner,11138,2019-11-03_18h21.08.141,SurveyExpMetaMem,3.2.3,Win32,60
,,,,,,,,,,,,,,,,,,,,4,2.004000187,4,0.171000004,1,0,1200,490,1,1199,detached,11138,2019-11-03_18h21.08.141,SurveyExpMetaMem,3.2.3,Win32,60
,,,,,,,,,,,,,,,,,,,,6,4.089000225,4,0.078000307,1,0,1200,407,1,1199,handicap,11138,2019-11-03_18h21.08.141,SurveyExpMetaMem,3.2.3,Win32,60
,,,,,,,,,,,,,,,,,,,,5,3.162000179,5,0.146000147,1,0,1200,391,1,1199,detach,11138,2019-11-03_18h21.08.141,SurveyExpMetaMem,3.2.3,Win32,60
,,,,,,,,,,,,,,,,,,,,4,3.166000128,4,0.1650002,1,0,1200,511,1,1199,slouch,11138,2019-11-03_18h21.08.141,SurveyExpMetaMem,3.2.3,Win32,60
,,,,,,,,,,,,,,,,,,,,7,1.370000362,2,0.755000353,1,0,1200,907,1,1199,terrorist,11138,2019-11-03_18h21.08.141,SurveyExpMetaMem,3.2.3,Win32,60
,,,,,,,,,,,,,,,,,,,,4,1.243000269,4,0.162000179,1,0,1200,1035,1,1199,expel,11138,2019-11-03_18h21.08.141,SurveyExpMetaMem,3.2.3,Win32,60
,,,,,,,,,,,,,,,,,,,,6,1.213999987,6,0.20600009,1,0,1200,74,1,1199,explore,11138,2019-11-03_18h21.08.141,SurveyExpMetaMem,3.2.3,Win32,60
,,,,,,,,,,,,,,,,,,,,6,2.610000134,6,0.1650002,1,0,1200,222,1,1199,waterskiing,11138,2019-11-03_18h21.08.141,SurveyExpMetaMem,3.2.3,Win32,60
,,,,,,,,,,,,,,,,,,,,4,1.368000269,4,0.289000034,1,0,1200,1049,1,1199,electrocute,11138,2019-11-03_18h21.08.141,SurveyExpMetaMem,3.2.3,Win32,60
,,,,,,,,,,,,,,,,,,,,5,3.30700016,5,0.187000036,1,0,1200,642,1,1199,newspaper,11138,2019-11-03_18h21.08.141,SurveyExpMetaMem,3.2.3,Win32,60
,,,,,,,,,,,,,,,,,,,,4,1.285000324,4,0.147000313,1,0,1200,1193,1,1199,damn,11138,2019-11-03_18h21.08.141,SurveyExpMetaMem,3.2.3,Win32,60
,,,,,,,,,,,,,,,,,,,,5,1.562000036,5,0.150000095,1,0,1200,626,1,1199,pan,11138,2019-11-03_18h21.08.141,SurveyExpMetaMem,3.2.3,Win32,60
,,,,,,,,,,,,,,,,,,,,6,2.087000132,6,0.171000242,1,0,1200,133,1,1199,prosperous,11138,2019-11-03_18h21.08.141,SurveyExpMetaMem,3.2.3,Win32,60
,,,,,,,,,,,,,,,,,,,,4,1.126000166,4,0.154000282,1,0,1200,935,1,1199,despise,11138,2019-11-03_18h21.08.141,SurveyExpMetaMem,3.2.3,Win32,60
,,,,,,,,,,,,,,,,,,,,5,1.025000095,5,0.168000221,1,0,1200,808,1,1199,violinist,11138,2019-11-03_18h21.08.141,SurveyExpMetaMem,3.2.3,Win32,60
,,,,,,,,,,,,,,,,,,,,5,3.173000097,5,0.164000273,1,0,1200,767,1,1199,civil,11138,2019-11-03_18h21.08.141,SurveyExpMetaMem,3.2.3,Win32,60
,,,,,,,,,,,,,,,,,,,,5,1.986000299,5,0.170000076,1,0,1200,1174,1,1199,beast,11138,2019-11-03_18h21.08.141,SurveyExpMetaMem,3.2.3,Win32,60
,,,,,,,,,,,,,,,,,,,,5,1.127000093,5,0.152000189,1,0,1200,213,1,1199,fair,11138,2019-11-03_18h21.08.141,SurveyExpMetaMem,3.2.3,Win32,60
,,,,,,,,,,,,,,,,,,,,5,1.178000212,5,0.14800024,1,0,1200,646,1,1199,wear,11138,2019-11-03_18h21.08.141,SurveyExpMetaMem,3.2.3,Win32,60
,,,,,,,,,,,,,,,,,,,,5,1.005000114,5,0.164000034,1,0,1200,786,1,1199,afternoon,11138,2019-11-03_18h21.08.141,SurveyExpMetaMem,3.2.3,Win32,60
,,,,,,,,,,,,,,,,,,,,4,1.403000116,4,0.151000023,1,0,1200,341,1,1199,stinky,11138,2019-11-03_18h21.08.141,SurveyExpMetaMem,3.2.3,Win32,60
,,,,,,,,,,,,,,,,,,,,7,2.104000092,3,0.110000134,1,0,1200,1009,1,1199,frightened,11138,2019-11-03_18h21.08.141,SurveyExpMetaMem,3.2.3,Win32,60
,,,,,,,,,,,,,,,,,,,,5,1.554000139,5,0.177000284,1,0,1200,43,1,1199,diamond,11138,2019-11-03_18h21.08.141,SurveyExpMetaMem,3.2.3,Win32,60
,,,,,,,,,,,,,,,,,,,,5,9.482000351,6,4.226000309,1,0,1200,87,1,1199,cookie,11138,2019-11-03_18h21.08.141,SurveyExpMetaMem,3.2.3,Win32,60
,,,,,,,,,,,,,,,,,,,,6,3.546000004,4,0.107000351,1,0,1200,354,1,1199,cowardice,11138,2019-11-03_18h21.08.141,SurveyExpMetaMem,3.2.3,Win32,60
,,,,,,,,,,,,,,,,,,,,4,2.887000084,4,0.148000002,1,0,1200,434,1,1199,frail,11138,2019-11-03_18h21.08.141,SurveyExpMetaMem,3.2.3,Win32,60
,,,,,,,,,,,,,,,,,,,,4,2.627000093,4,0.185000181,1,0,1200,399,1,1199,withdrawn,11138,2019-11-03_18h21.08.141,SurveyExpMetaMem,3.2.3,Win32,60
,,,,,,,,,,,,,,,,,,,,6,4.651000261,4,0.212000132,1,0,1200,1197,1,1199,command,11138,2019-11-03_18h21.08.141,SurveyExpMetaMem,3.2.3,Win32,60
,,,,,,,,,,,,,,,,,,,,6,2.442000389,6,0.17200017,1,0,1200,48,1,1199,excellence,11138,2019-11-03_18h21.08.141,SurveyExpMetaMem,3.2.3,Win32,60
,,,,,,,,,,,,,,,,,,,,6,2.343000174,4,0.072999954,1,0,1200,914,1,1199,fail,11138,2019-11-03_18h21.08.141,SurveyExpMetaMem,3.2.3,Win32,60
,,,,,,,,,,,,,,,,,,,,5,0.99000001,5,0.163000345,1,0,1200,739,1,1199,seagull,11138,2019-11-03_18h21.08.141,SurveyExpMetaMem,3.2.3,Win32,60
,,,,,,,,,,,,,,,,,,,,4,1.508000135,4,1.127000093,1,0,1200,1100,1,1199,evil,11138,2019-11-03_18h21.08.141,SurveyExpMetaMem,3.2.3,Win32,60
,,,,,,,,,,,,,,,,,,,,6,5.947000265,4,0.078000069,1,0,1200,1188,1,1199,swear,11138,2019-11-03_18h21.08.141,SurveyExpMetaMem,3.2.3,Win32,60
,,,,,,,,,,,,,,,,,,,,5,0.945000172,5,0.186000109,1,0,1200,551,1,1199,coal,11138,2019-11-03_18h21.08.141,SurveyExpMetaMem,3.2.3,Win32,60
,,,,,,,,,,,,,,,,,,,,6,5.207999945,6,0.222000122,1,0,1200,27,1,1199,gourmet,11138,2019-11-03_18h21.08.141,SurveyExpMetaMem,3.2.3,Win32,60
,,,,,,,,,,,,,,,,,,,,6,1.234000206,5,1.325000286,1,0,1200,1163,1,1199,python,11138,2019-11-03_18h21.08.141,SurveyExpMetaMem,3.2.3,Win32,60
,,,,,,,,,,,,,,,,,,,,5,5.083000183,5,0.167000294,1,0,1200,679,1,1199,yellow,11138,2019-11-03_18h21.08.141,SurveyExpMetaMem,3.2.3,Win32,60
,,,,,,,,,,,,,,,,,,,,6,1.526000023,6,0.223000288,1,0,1200,35,1,1199,bright,11138,2019-11-03_18h21.08.141,SurveyExpMetaMem,3.2.3,Win32,60
,,,,,,,,,,,,,,,,,,,,6,1.976000071,6,0.363000154,1,0,1200,108,1,1199,naked,11138,2019-11-03_18h21.08.141,SurveyExpMetaMem,3.2.3,Win32,60
,,,,,,,,,,,,,,,,,,,,5,1.731000185,5,0.206000328,1,0,1200,837,1,1199,responsible,11138,2019-11-03_18h21.08.141,SurveyExpMetaMem,3.2.3,Win32,60
,,,,,,,,,,,,,,,,,,,,6,2.593000174,4,0.202000141,1,0,1200,2,1,1199,zealous,11138,2019-11-03_18h21.08.141,SurveyExpMetaMem,3.2.3,Win32,60
,,,,,,,,,,,,,,,,,,,,5,5.055000067,5,0.191000223,1,0,1200,1132,1,1199,anarchy,11138,2019-11-03_18h21.08.141,SurveyExpMetaMem,3.2.3,Win32,60
,,,,,,,,,,,,,,,,,,,,6,5.551000118,4,0.111000299,1,0,1200,328,1,1199,disgrace,11138,2019-11-03_18h21.08.141,SurveyExpMetaMem,3.2.3,Win32,60
,,,,,,,,,,,,,,,,,,,,6,1.523000002,6,0.183000088,1,0,1200,835,1,1199,helpful,11138,2019-11-03_18h21.08.141,SurveyExpMetaMem,3.2.3,Win32,60
,,,,,,,,,,,,,,,,,,,,6,3.031000137,4,1.469000101,1,0,1200,1144,1,1199,yelp,11138,2019-11-03_18h21.08.141,SurveyExpMetaMem,3.2.3,Win32,60
,,,,,,,,,,,,,,,,,,,,4,8.24000001,4,0.265000343,1,0,1200,519,1,1199,listless,11138,2019-11-03_18h21.08.141,SurveyExpMetaMem,3.2.3,Win32,60
,,,,,,,,,,,,,,,,,,,,6,1.493000269,4,0.325000048,1,0,1200,415,1,1199,grime,11138,2019-11-03_18h21.08.141,SurveyExpMetaMem,3.2.3,Win32,60
,,,,,,,,,,,,,,,,,,,,4,1.605000257,4,0.335000038,1,0,1200,393,1,1199,droop,11138,2019-11-03_18h21.08.141,SurveyExpMetaMem,3.2.3,Win32,60
,,,,,,,,,,,,,,,,,,,,6,4.6650002,5,0.649000168,1,0,1200,1170,1,1199,police,11138,2019-11-03_18h21.08.141,SurveyExpMetaMem,3.2.3,Win32,60
,,,,,,,,,,,,,,,,,,,,4,1.362000227,4,0.20600009,1,0,1200,574,1,1199,distracted,11138,2019-11-03_18h21.08.141,SurveyExpMetaMem,3.2.3,Win32,60
,,,,,,,,,,,,,,,,,,,,5,2.276000261,5,0.684000254,1,0,1200,514,1,1199,defer,11138,2019-11-03_18h21.08.141,SurveyExpMetaMem,3.2.3,Win32,60
,,,,,,,,,,,,,,,,,,,,6,1.423000336,4,0.236999989,1,0,1200,991,1,1199,harass,11138,2019-11-03_18h21.08.141,SurveyExpMetaMem,3.2.3,Win32,60
,,,,,,,,,,,,,,,,,,,,6,1.626000166,5,0.56400013,1,0,1200,537,1,1199,absurd,11138,2019-11-03_18h21.08.141,SurveyExpMetaMem,3.2.3,Win32,60
,,,,,,,,,,,,,,,,,,,,6,3.116000175,5,0.742000103,1,0,1200,499,1,1199,stop,11138,2019-11-03_18h21.08.141,SurveyExpMetaMem,3.2.3,Win32,60
,,,,,,,,,,,,,,,,,,,,5,2.825000286,5,2.205000162,1,0,1200,753,1,1199,patience,11138,2019-11-03_18h21.08.141,SurveyExpMetaMem,3.2.3,Win32,60
,,,,,,,,,,,,,,,,,,,,8,1.923000336,4,0.486000299,1,0,1200,939,1,1199,vomit,11138,2019-11-03_18h21.08.141,SurveyExpMetaMem,3.2.3,Win32,60
,,,,,,,,,,,,,,,,,,,,5,1.728000164,5,0.186000109,1,0,1200,685,1,1199,makeup,11138,2019-11-03_18h21.08.141,SurveyExpMetaMem,3.2.3,Win32,60
,,,,,,,,,,,,,,,,,,,,5,1.468000174,5,0.195000172,1,0,1200,465,1,1199,void,11138,2019-11-03_18h21.08.141,SurveyExpMetaMem,3.2.3,Win32,60
,,,,,,,,,,,,,,,,,,,,5,1.565000296,5,0.147000074,1,0,1200,472,1,1199,bald,11138,2019-11-03_18h21.08.141,SurveyExpMetaMem,3.2.3,Win32,60
,,,,,,,,,,,,,,,,,,,,6,7.385000229,6,0.168000221,1,0,1200,16,1,1199,sing,11138,2019-11-03_18h21.08.141,SurveyExpMetaMem,3.2.3,Win32,60
,,,,,,,,,,,,,,,,,,,,5,2.663000345,5,0.185000181,1,0,1200,677,1,1199,handwriting,11138,2019-11-03_18h21.08.141,SurveyExpMetaMem,3.2.3,Win32,60
,,,,,,,,,,,,,,,,,,,,6,2.406000137,4,0.127000093,1,0,1200,1001,1,1199,rude,11138,2019-11-03_18h21.08.141,SurveyExpMetaMem,3.2.3,Win32,60
,,,,,,,,,,,,,,,,,,,,6,2.323000193,5,0.225000143,1,0,1200,1190,1,1199,clench,11138,2019-11-03_18h21.08.141,SurveyExpMetaMem,3.2.3,Win32,60
,,,,,,,,,,,,,,,,,,,,5,1.065000296,5,0.648000002,1,0,1200,708,1,1199,nursery,11138,2019-11-03_18h21.08.141,SurveyExpMetaMem,3.2.3,Win32,60
,,,,,,,,,,,,,,,,,,,,6,2.872000217,6,0.407000065,1,0,1200,159,1,1199,teenager,11138,2019-11-03_18h21.08.141,SurveyExpMetaMem,3.2.3,Win32,60
,,,,,,,,,,,,,,,,,,,,5,1.14800024,5,0.236000299,1,0,1200,197,1,1199,happy,11138,2019-11-03_18h21.08.141,SurveyExpMetaMem,3.2.3,Win32,60
,,,,,,,,,,,,,,,,,,,,6,3.463000059,5,0.065000057,1,0,1200,579,1,1199,bus,11138,2019-11-03_18h21.08.141,SurveyExpMetaMem,3.2.3,Win32,60
,,,,,,,,,,,,,,,,,,,,4,0.067000151,6,0.105000257,1,0,1200,163,1,1199,gem,11138,2019-11-03_18h21.08.141,SurveyExpMetaMem,3.2.3,Win32,60
,,,,,,,,,,,,,,,,,,,,4,0.106000185,6,0.107000113,1,0,1200,1060,1,1199,dent,11138,2019-11-03_18h21.08.141,SurveyExpMetaMem,3.2.3,Win32,60
,,,,,,,,,,,,,,,,,,,,4,0.066000223,6,0.124000072,1,0,1200,1198,1,1199,lightning,11138,2019-11-03_18h21.08.141,SurveyExpMetaMem,3.2.3,Win32,60
,,,,,,,,,,,,,,,,,,,,4,0.085000038,5,0.107000113,1,0,1200,97,1,1199,enthusiastic,11138,2019-11-03_18h21.08.141,SurveyExpMetaMem,3.2.3,Win32,60
,,,,,,,,,,,,,,,,,,,,6,0.009000301,4,0.065000296,1,0,1200,664,1,1199,quiet,11138,2019-11-03_18h21.08.141,SurveyExpMetaMem,3.2.3,Win32,60
,,,,,,,,,,,,,,,,,,,,6,0.1650002,4,0.086000204,1,0,1200,1019,1,1199,fraud,11138,2019-11-03_18h21.08.141,SurveyExpMetaMem,3.2.3,Win32,60
,,,,,,,,,,,,,,,,,,,,6,0.088000059,4,0.088000059,1,0,1200,212,1,1199,belief,11138,2019-11-03_18h21.08.141,SurveyExpMetaMem,3.2.3,Win32,60
,,,,,,,,,,,,,,,,,,,,6,0.065000057,4,0.123000145,1,0,1200,12,1,1199,mountain,11138,2019-11-03_18h21.08.141,SurveyExpMetaMem,3.2.3,Win32,60
,,,,,,,,,,,,,,,,,,,,6,0.183000088,4,0.088000298,1,0,1200,181,1,1199,fascinate,11138,2019-11-03_18h21.08.141,SurveyExpMetaMem,3.2.3,Win32,60
,,,,,,,,,,,,,,,,,,,,5,0.101000071,6,0.024000168,1,0,1200,417,1,1199,dummy,11138,2019-11-03_18h21.08.141,SurveyExpMetaMem,3.2.3,Win32,60
,,,,,,,,,,,,,,,,,,,,5,0.109000206,5,0.266000032,1,0,1200,824,1,1199,favor,11138,2019-11-03_18h21.08.141,SurveyExpMetaMem,3.2.3,Win32,60
,,,,,,,,,,,,,,,,,,,,6,0.124000072,5,0.124000072,1,0,1200,466,1,1199,gnaw,11138,2019-11-03_18h21.08.141,SurveyExpMetaMem,3.2.3,Win32,60
,,,,,,,,,,,,,,,,,,,,4,0.015000343,5,0.163000107,1,0,1200,442,1,1199,foolish,11138,2019-11-03_18h21.08.141,SurveyExpMetaMem,3.2.3,Win32,60
,,,,,,,,,,,,,,,,,,,,4,0.10400033,6,0.145000219,1,0,1200,1130,1,1199,slut,11138,2019-11-03_18h21.08.141,SurveyExpMetaMem,3.2.3,Win32,60
,,,,,,,,,,,,,,,,,,,,4,0.09400034,6,0.112000227,1,0,1200,100,1,1199,intense,11138,2019-11-03_18h21.08.141,SurveyExpMetaMem,3.2.3,Win32,60
,,,,,,,,,,,,,,,,,,,,4,0.107000113,5,0.107000113,1,0,1200,798,1,1199,crystal,11138,2019-11-03_18h21.08.141,SurveyExpMetaMem,3.2.3,Win32,60
,,,,,,,,,,,,,,,,,,,,4,0.190000057,6,0.149000168,1,0,1200,903,1,1199,cancer,11138,2019-11-03_18h21.08.141,SurveyExpMetaMem,3.2.3,Win32,60
,,,,,,,,,,,,,,,,,,,,4,0.17200017,4,0.166000128,1,0,1200,275,1,1199,brilliant,11138,2019-11-03_18h21.08.141,SurveyExpMetaMem,3.2.3,Win32,60
,,,,,,,,,,,,,,,,,,,,6,0.147000313,4,0.329000235,1,0,1200,910,1,1199,abusive,11138,2019-11-03_18h21.08.141,SurveyExpMetaMem,3.2.3,Win32,60
,,,,,,,,,,,,,,,,,,,,5,0.01300025,4,0.105000257,1,0,1200,855,1,1199,girl,11138,2019-11-03_18h21.08.141,SurveyExpMetaMem,3.2.3,Win32,60
,,,,,,,,,,,,,,,,,,,,6,0.145000219,5,0.124000072,1,0,1200,372,1,1199,inferior,11138,2019-11-03_18h21.08.141,SurveyExpMetaMem,3.2.3,Win32,60
,,,,,,,,,,,,,,,,,,,,4,0.044000149,6,0.147000074,1,0,1200,218,1,1199,charming,11138,2019-11-03_18h21.08.141,SurveyExpMetaMem,3.2.3,Win32,60
,,,,,,,,,,,,,,,,,,,,6,2.06400013,4,0.105999947,1,0,1200,1005,1,1199,pissed,11138,2019-11-03_18h21.08.141,SurveyExpMetaMem,3.2.3,Win32,60
,,,,,,,,,,,,,,,,,,,,5,186.1550002,5,0.164000273,1,0,1200,593,1,1199,errand,11138,2019-11-03_18h21.08.141,SurveyExpMetaMem,3.2.3,Win32,60
,,,,,,,,,,,,,,,,,,,,5,2.445000172,5,0.143000364,1,0,1200,681,1,1199,fig,11138,2019-11-03_18h21.08.141,SurveyExpMetaMem,3.2.3,Win32,60
,,,,,,,,,,,,,,,,,,,,6,1.363000154,4,0.338000298,1,0,1200,868,1,1199,grace,11138,2019-11-03_18h21.08.141,SurveyExpMetaMem,3.2.3,Win32,60
,,,,,,,,,,,,,,,,,,,,6,3.98300004,6,0.145000219,1,0,1200,178,1,1199,alive,11138,2019-11-03_18h21.08.141,SurveyExpMetaMem,3.2.3,Win32,60
,,,,,,,,,,,,,,,,,,,,6,2.76300025,5,0.248000383,1,0,1200,1153,1,1199,mangle,11138,2019-11-03_18h21.08.141,SurveyExpMetaMem,3.2.3,Win32,60
,,,,,,,,,,,,,,,,,,,,5,2.40500021,5,0.17200017,1,0,1200,528,1,1199,dirt,11138,2019-11-03_18h21.08.141,SurveyExpMetaMem,3.2.3,Win32,60
,,,,,,,,,,,,,,,,,,,,6,6.345000267,6,0.136000156,1,0,1200,688,1,1199,jelly,11138,2019-11-03_18h21.08.141,SurveyExpMetaMem,3.2.3,Win32,60
,,,,,,,,,,,,,,,,,,,,5,1.225000381,5,0.210999966,1,0,1200,1114,1,1199,foe,11138,2019-11-03_18h21.08.141,SurveyExpMetaMem,3.2.3,Win32,60
,,,,,,,,,,,,,,,,,,,,5,2.335000277,5,0.203000069,1,0,1200,557,1,1199,class,11138,2019-11-03_18h21.08.141,SurveyExpMetaMem,3.2.3,Win32,60
,,,,,,,,,,,,,,,,,,,,5,2.467000246,5,0.17200017,1,0,1200,522,1,1199,cleft,11138,2019-11-03_18h21.08.141,SurveyExpMetaMem,3.2.3,Win32,60
,,,,,,,,,,,,,,,,,,,,6,1.22300005,6,0.15500021,1,0,1200,797,1,1199,hamburger,11138,2019-11-03_18h21.08.141,SurveyExpMetaMem,3.2.3,Win32,60
,,,,,,,,,,,,,,,,,,,,4,5.066000223,4,0.147000074,1,0,1200,436,1,1199,mediocre,11138,2019-11-03_18h21.08.141,SurveyExpMetaMem,3.2.3,Win32,60
,,,,,,,,,,,,,,,,,,,,5,1.945000172,5,0.185000181,1,0,1200,401,1,1199,feeble,11138,2019-11-03_18h21.08.141,SurveyExpMetaMem,3.2.3,Win32,60
,,,,,,,,,,,,,,,,,,,,5,1.646000147,5,0.187000036,1,0,1200,493,1,1199,little,11138,2019-11-03_18h21.08.141,SurveyExpMetaMem,3.2.3,Win32,60
,,,,,,,,,,,,,,,,,,,,6,4.304000139,6,0.163000107,1,0,1200,879,1,1199,bird,11138,2019-11-03_18h21.08.141,SurveyExpMetaMem,3.2.3,Win32,60
,,,,,,,,,,,,,,,,,,,,4,1.601999998,4,0.159000158,1,0,1200,1020,1,1199,malice,11138,2019-11-03_18h21.08.141,SurveyExpMetaMem,3.2.3,Win32,60
,,,,,,,,,,,,,,,,,,,,6,71.97000003,4,0.224000216,1,0,1200,958,1,1199,traitor,11138,2019-11-03_18h21.08.141,SurveyExpMetaMem,3.2.3,Win32,60
,,,,,,,,,,,,,,,,,,,,6,1.004000187,6,0.167000055,1,0,1200,15,1,1199,curiosity,11138,2019-11-03_18h21.08.141,SurveyExpMetaMem,3.2.3,Win32,60
,,,,,,,,,,,,,,,,,,,,6,1.308000326,4,0.171000242,1,0,1200,326,1,1199,scam,11138,2019-11-03_18h21.08.141,SurveyExpMetaMem,3.2.3,Win32,60
,,,,,,,,,,,,,,,,,,,,6,6.907000065,6,0.208000183,1,0,1200,803,1,1199,tidy,11138,2019-11-03_18h21.08.141,SurveyExpMetaMem,3.2.3,Win32,60
,,,,,,,,,,,,,,,,,,,,5,1.788000345,5,0.166000128,1,0,1200,819,1,1199,sheep,11138,2019-11-03_18h21.08.141,SurveyExpMetaMem,3.2.3,Win32,60
,,,,,,,,,,,,,,,,,,,,5,1.250000238,5,0.166000128,1,0,1200,510,1,1199,excuse,11138,2019-11-03_18h21.08.141,SurveyExpMetaMem,3.2.3,Win32,60
,,,,,,,,,,,,,,,,,,,,5,4.09100008,5,0.166000366,1,0,1200,459,1,1199,heavy,11138,2019-11-03_18h21.08.141,SurveyExpMetaMem,3.2.3,Win32,60
,,,,,,,,,,,,,,,,,,,,6,7.204000235,4,0.171000242,1,0,1200,1105,1,1199,flee,11138,2019-11-03_18h21.08.141,SurveyExpMetaMem,3.2.3,Win32,60
,,,,,,,,,,,,,,,,,,,,6,3.505000114,4,0.154000044,1,0,1200,512,1,1199,insect,11138,2019-11-03_18h21.08.141,SurveyExpMetaMem,3.2.3,Win32,60
,,,,,,,,,,,,,,,,,,,,6,2.02300024,6,0.202000141,1,0,1200,759,1,1199,prefer,11138,2019-11-03_18h21.08.141,SurveyExpMetaMem,3.2.3,Win32,60
,,,,,,,,,,,,,,,,,,,,5,1.615999937,5,0.18900013,1,0,1200,801,1,1199,noon,11138,2019-11-03_18h21.08.141,SurveyExpMetaMem,3.2.3,Win32,60
,,,,,,,,,,,,,,,,,,,,6,1.164000273,6,0.245000124,1,0,1200,607,1,1199,greyhound,11138,2019-11-03_18h21.08.141,SurveyExpMetaMem,3.2.3,Win32,60
,,,,,,,,,,,,,,,,,,,,6,2.529000044,4,0.070000172,1,0,1200,583,1,1199,obey,11138,2019-11-03_18h21.08.141,SurveyExpMetaMem,3.2.3,Win32,60
,,,,,,,,,,,,,,,,,,,,6,4.948000193,4,0.163000107,1,0,1200,355,1,1199,graveyard,11138,2019-11-03_18h21.08.141,SurveyExpMetaMem,3.2.3,Win32,60
,,,,,,,,,,,,,,,,,,,,6,13.62400007,6,0.192000151,1,0,1200,269,1,1199,extravagant,11138,2019-11-03_18h21.08.141,SurveyExpMetaMem,3.2.3,Win32,60
,,,,,,,,,,,,,,,,,,,,4,3.109000206,4,0.173000336,1,0,1200,521,1,1199,laundry,11138,2019-11-03_18h21.08.141,SurveyExpMetaMem,3.2.3,Win32,60
,,,,,,,,,,,,,,,,,,,,6,2.25999999,4,0.192000151,1,0,1200,1118,1,1199,frantic,11138,2019-11-03_18h21.08.141,SurveyExpMetaMem,3.2.3,Win32,60
,,,,,,,,,,,,,,,,,,,,6,13.56400013,4,0.170000315,1,0,1200,505,1,1199,exhaust,11138,2019-11-03_18h21.08.141,SurveyExpMetaMem,3.2.3,Win32,60
,,,,,,,,,,,,,,,,,,,,6,2.02300024,4,0.184000254,1,0,1200,531,1,1199,omit,11138,2019-11-03_18h21.08.141,SurveyExpMetaMem,3.2.3,Win32,60
,,,,,,,,,,,,,,,,,,,,7,3.756000042,5,1.986000299,1,0,1200,1091,1,1199,cram,11138,2019-11-03_18h21.08.141,SurveyExpMetaMem,3.2.3,Win32,60
,,,,,,,,,,,,,,,,,,,,6,1.362000227,6,0.194000006,1,0,1200,726,1,1199,crackers,11138,2019-11-03_18h21.08.141,SurveyExpMetaMem,3.2.3,Win32,60
,,,,,,,,,,,,,,,,,,,,6,4.945000172,4,0.18200016,1,0,1200,523,1,1199,witch,11138,2019-11-03_18h21.08.141,SurveyExpMetaMem,3.2.3,Win32,60
,,,,,,,,,,,,,,,,,,,,6,27.42300034,4,1.125,1,0,1200,425,1,1199,crutch,11138,2019-11-03_18h21.08.141,SurveyExpMetaMem,3.2.3,Win32,60
,,,,,,,,,,,,,,,,,,,,7,2.86500001,5,0.988000154,1,0,1200,1162,1,1199,baffle,11138,2019-11-03_18h21.08.141,SurveyExpMetaMem,3.2.3,Win32,60
,,,,,,,,,,,,,,,,,,,,4,4.086000204,4,0.527000189,1,0,1200,718,1,1199,flow,11138,2019-11-03_18h21.08.141,SurveyExpMetaMem,3.2.3,Win32,60
,,,,,,,,,,,,,,,,,,,,5,6.082000256,5,0.184000254,1,0,1200,802,1,1199,familiar,11138,2019-11-03_18h21.08.141,SurveyExpMetaMem,3.2.3,Win32,60
,,,,,,,,,,,,,,,,,,,,6,24.06700015,6,0.174000263,1,0,1200,182,1,1199,genius,11138,2019-11-03_18h21.08.141,SurveyExpMetaMem,3.2.3,Win32,60
,,,,,,,,,,,,,,,,,,,,7,2.063000202,3,0.166000128,1,0,1200,932,1,1199,bankrupt,11138,2019-11-03_18h21.08.141,SurveyExpMetaMem,3.2.3,Win32,60
,,,,,,,,,,,,,,,,,,,,6,1.328000307,6,0.17200017,1,0,1200,93,1,1199,smiling,11138,2019-11-03_18h21.08.141,SurveyExpMetaMem,3.2.3,Win32,60
,,,,,,,,,,,,,,,,,,,,6,1.528000116,4,2.025000095,1,0,1200,353,1,1199,blister,11138,2019-11-03_18h21.08.141,SurveyExpMetaMem,3.2.3,Win32,60
,,,,,,,,,,,,,,,,,,,,6,2.964000225,6,0.176000118,1,0,1200,890,1,1199,carefree,11138,2019-11-03_18h21.08.141,SurveyExpMetaMem,3.2.3,Win32,60
,,,,,,,,,,,,,,,,,,,,5,2.386000156,5,0.192000151,1,0,1200,563,1,1199,stupor,11138,2019-11-03_18h21.08.141,SurveyExpMetaMem,3.2.3,Win32,60
,,,,,,,,,,,,,,,,,,,,5,1.633000135,5,0.189000368,1,0,1200,659,1,1199,hair,11138,2019-11-03_18h21.08.141,SurveyExpMetaMem,3.2.3,Win32,60
,,,,,,,,,,,,,,,,,,,,6,2.14800024,4,0.213000298,1,0,1200,356,1,1199,mucous,11138,2019-11-03_18h21.08.141,SurveyExpMetaMem,3.2.3,Win32,60
,,,,,,,,,,,,,,,,,,,,5,2.424000263,5,0.187000036,1,0,1200,1072,1,1199,bothered,11138,2019-11-03_18h21.08.141,SurveyExpMetaMem,3.2.3,Win32,60
,,,,,,,,,,,,,,,,,,,,5,3.828000307,5,0.186000109,1,0,1200,841,1,1199,bathtub,11138,2019-11-03_18h21.08.141,SurveyExpMetaMem,3.2.3,Win32,60
,,,,,,,,,,,,,,,,,,,,5,2.264000177,5,0.202000141,1,0,1200,153,1,1199,teach,11138,2019-11-03_18h21.08.141,SurveyExpMetaMem,3.2.3,Win32,60
,,,,,,,,,,,,,,,,,,,,7,2.507000208,4,0.667000294,1,0,1200,1185,1,1199,shotgun,11138,2019-11-03_18h21.08.141,SurveyExpMetaMem,3.2.3,Win32,60
,,,,,,,,,,,,,,,,,,,,5,4.219000101,5,0.264000177,1,0,1200,155,1,1199,ignite,11138,2019-11-03_18h21.08.141,SurveyExpMetaMem,3.2.3,Win32,60
,,,,,,,,,,,,,,,,,,,,4,3.503000259,4,0.494000196,1,0,1200,348,1,1199,impotent,11138,2019-11-03_18h21.08.141,SurveyExpMetaMem,3.2.3,Win32,60
,,,,,,,,,,,,,,,,,,,,6,1.445000172,6,0.305000067,1,0,1200,79,1,1199,dazzle,11138,2019-11-03_18h21.08.141,SurveyExpMetaMem,3.2.3,Win32,60
,,,,,,,,,,,,,,,,,,,,6,2.576000214,6,0.209000111,1,0,1200,224,1,1199,strengthen,11138,2019-11-03_18h21.08.141,SurveyExpMetaMem,3.2.3,Win32,60
,,,,,,,,,,,,,,,,,,,,8,4.392000198,8,0.245000124,1,0,1200,185,1,1199,flirt,11138,2019-11-03_18h21.08.141,SurveyExpMetaMem,3.2.3,Win32,60
,,,,,,,,,,,,,,,,,,,,6,2.927000284,4,0.142000198,1,0,1200,952,1,1199,troubled,11138,2019-11-03_18h21.08.141,SurveyExpMetaMem,3.2.3,Win32,60
,,,,,,,,,,,,,,,,,,,,4,1.962000132,6,0.448000193,1,0,1200,829,1,1199,innocent,11138,2019-11-03_18h21.08.141,SurveyExpMetaMem,3.2.3,Win32,60
,,,,,,,,,,,,,,,,,,,,3,6.183000088,3,0.164000273,1,0,1200,451,1,1199,lame,11138,2019-11-03_18h21.08.141,SurveyExpMetaMem,3.2.3,Win32,60
,,,,,,,,,,,,,,,,,,,,5,6.825000286,5,0.204000235,1,0,1200,632,1,1199,avenue,11138,2019-11-03_18h21.08.141,SurveyExpMetaMem,3.2.3,Win32,60
,,,,,,,,,,,,,,,,,,,,5,1.272000074,5,0.18900013,1,0,1200,645,1,1199,telescope,11138,2019-11-03_18h21.08.141,SurveyExpMetaMem,3.2.3,Win32,60
,,,,,,,,,,,,,,,,,,,,4,13.14499998,6,0.144000292,1,0,1200,643,1,1199,library,11138,2019-11-03_18h21.08.141,SurveyExpMetaMem,3.2.3,Win32,60
,,,,,,,,,,,,,,,,,,,,6,4.792000294,4,0.192000151,1,0,1200,253,1,1199,soldier,11138,2019-11-03_18h21.08.141,SurveyExpMetaMem,3.2.3,Win32,60
,,,,,,,,,,,,,,,,,,,,6,1.753000021,4,0.124000072,1,0,1200,1066,1,1199,annoy,11138,2019-11-03_18h21.08.141,SurveyExpMetaMem,3.2.3,Win32,60
,,,,,,,,,,,,,,,,,,,,6,1.007000208,4,0.11500001,1,0,1200,1179,1,1199,nerves,11138,2019-11-03_18h21.08.141,SurveyExpMetaMem,3.2.3,Win32,60
,,,,,,,,,,,,,,,,,,,,6,2.764000177,4,0.128000259,1,0,1200,1057,1,1199,deceit,11138,2019-11-03_18h21.08.141,SurveyExpMetaMem,3.2.3,Win32,60
,,,,,,,,,,,,,,,,,,,,5,1.327000141,5,0.183000326,1,0,1200,629,1,1199,barn,11138,2019-11-03_18h21.08.141,SurveyExpMetaMem,3.2.3,Win32,60
,,,,,,,,,,,,,,,,,,,,6,1.590000153,5,1.849000216,1,0,1200,1008,1,1199,gang,11138,2019-11-03_18h21.08.141,SurveyExpMetaMem,3.2.3,Win32,60
,,,,,,,,,,,,,,,,,,,,6,6.007000208,4,0.223999977,1,0,1200,330,1,1199,sunburn,11138,2019-11-03_18h21.08.141,SurveyExpMetaMem,3.2.3,Win32,60
,,,,,,,,,,,,,,,,,,,,6,12.69900012,6,0.169000149,1,0,1200,286,1,1199,superstar,11138,2019-11-03_18h21.08.141,SurveyExpMetaMem,3.2.3,Win32,60
,,,,,,,,,,,,,,,,,,,,7,1.52300024,4,0.447000265,1,0,1200,1120,1,1199,gun,11138,2019-11-03_18h21.08.141,SurveyExpMetaMem,3.2.3,Win32,60
,,,,,,,,,,,,,,,,,,,,3,4.408000231,3,0.185000181,1,0,1200,406,1,1199,tired,11138,2019-11-03_18h21.08.141,SurveyExpMetaMem,3.2.3,Win32,60
,,,,,,,,,,,,,,,,,,,,7,5.062999964,3,0.36500001,1,0,1200,1165,1,1199,revolt,11138,2019-11-03_18h21.08.141,SurveyExpMetaMem,3.2.3,Win32,60
,,,,,,,,,,,,,,,,,,,,6,1.505000353,6,0.168000221,1,0,1200,206,1,1199,comet,11138,2019-11-03_18h21.08.141,SurveyExpMetaMem,3.2.3,Win32,60
,,,,,,,,,,,,,,,,,,,,4,2.007000208,4,0.170000315,1,0,1200,473,1,1199,senseless,11138,2019-11-03_18h21.08.141,SurveyExpMetaMem,3.2.3,Win32,60
,,,,,,,,,,,,,,,,,,,,7,8.029999971,5,0.215000153,1,0,1200,167,1,1199,casino,11138,2019-11-03_18h21.08.141,SurveyExpMetaMem,3.2.3,Win32,60
,,,,,,,,,,,,,,,,,,,,4,1.709000111,4,0.167000055,1,0,1200,329,1,1199,worse,11138,2019-11-03_18h21.08.141,SurveyExpMetaMem,3.2.3,Win32,60
,,,,,,,,,,,,,,,,,,,,6,2.266000032,6,0.146000147,1,0,1200,31,1,1199,brownie,11138,2019-11-03_18h21.08.141,SurveyExpMetaMem,3.2.3,Win32,60
,,,,,,,,,,,,,,,,,,,,5,15.42200017,3,0.368000269,1,0,1200,926,1,1199,dead,11138,2019-11-03_18h21.08.141,SurveyExpMetaMem,3.2.3,Win32,60
,,,,,,,,,,,,,,,,,,,,6,2.729000092,6,0.187999964,1,0,1200,723,1,1199,cinnamon,11138,2019-11-03_18h21.08.141,SurveyExpMetaMem,3.2.3,Win32,60
,,,,,,,,,,,,,,,,,,,,6,3.586000204,6,0.149000168,1,0,1200,105,1,1199,curious,11138,2019-11-03_18h21.08.141,SurveyExpMetaMem,3.2.3,Win32,60
,,,,,,,,,,,,,,,,,,,,4,1.670000076,4,0.189000368,1,0,1200,963,1,1199,dreadful,11138,2019-11-03_18h21.08.141,SurveyExpMetaMem,3.2.3,Win32,60
,,,,,,,,,,,,,,,,,,,,6,6.707000256,4,0.147000313,1,0,1200,923,1,1199,punish,11138,2019-11-03_18h21.08.141,SurveyExpMetaMem,3.2.3,Win32,60
,,,,,,,,,,,,,,,,,,,,6,1.442000151,4,0.065000296,1,0,1200,265,1,1199,invent,11138,2019-11-03_18h21.08.141,SurveyExpMetaMem,3.2.3,Win32,60
,,,,,,,,,,,,,,,,,,,,6,1.044000149,6,0.245000124,1,0,1200,496,1,1199,slow,11138,2019-11-03_18h21.08.141,SurveyExpMetaMem,3.2.3,Win32,60
,,,,,,,,,,,,,,,,,,,,6,1.050000191,6,0.176000118,1,0,1200,91,1,1199,pretty,11138,2019-11-03_18h21.08.141,SurveyExpMetaMem,3.2.3,Win32,60
,,,,,,,,,,,,,,,,,,,,6,11.9610002,6,0.163000107,1,0,1200,480,1,1199,hinder,11138,2019-11-03_18h21.08.141,SurveyExpMetaMem,3.2.3,Win32,60
,,,,,,,,,,,,,,,,,,,,7,1.305999994,7,0.153000116,1,0,1200,80,1,1199,wonderful,11138,2019-11-03_18h21.08.141,SurveyExpMetaMem,3.2.3,Win32,60
,,,,,,,,,,,,,,,,,,,,6,1.293000221,4,0.364000082,1,0,1200,1125,1,1199,outrage,11138,2019-11-03_18h21.08.141,SurveyExpMetaMem,3.2.3,Win32,60
,,,,,,,,,,,,,,,,,,,,4,15.82599998,4,0.245000124,1,0,1200,424,1,1199,fault,11138,2019-11-03_18h21.08.141,SurveyExpMetaMem,3.2.3,Win32,60
,,,,,,,,,,,,,,,,,,,,6,6.32400012,4,0.166000366,1,0,1200,469,1,1199,resent,11138,2019-11-03_18h21.08.141,SurveyExpMetaMem,3.2.3,Win32,60
,,,,,,,,,,,,,,,,,,,,6,1.344000101,4,1.124000072,1,0,1200,380,1,1199,expire,11138,2019-11-03_18h21.08.141,SurveyExpMetaMem,3.2.3,Win32,60
,,,,,,,,,,,,,,,,,,,,5,1.667000294,5,0.233000278,1,0,1200,667,1,1199,dew,11138,2019-11-03_18h21.08.141,SurveyExpMetaMem,3.2.3,Win32,60
,,,,,,,,,,,,,,,,,,,,6,4.912000179,5,0.887000084,1,0,1200,817,1,1199,countryside,11138,2019-11-03_18h21.08.141,SurveyExpMetaMem,3.2.3,Win32,60
,,,,,,,,,,,,,,,,,,,,7,4.90500021,4,0.271000147,1,0,1200,250,1,1199,erupt,11138,2019-11-03_18h21.08.141,SurveyExpMetaMem,3.2.3,Win32,60
,,,,,,,,,,,,,,,,,,,,6,3.152000189,6,0.887000084,1,0,1200,69,1,1199,special,11138,2019-11-03_18h21.08.141,SurveyExpMetaMem,3.2.3,Win32,60
,,,,,,,,,,,,,,,,,,,,4,3.664000273,6,0.012000084,1,0,1200,893,1,1199,nature,11138,2019-11-03_18h21.08.141,SurveyExpMetaMem,3.2.3,Win32,60
,,,,,,,,,,,,,,,,,,,,6,0.210000277,6,1.085000277,1,0,1200,383,1,1199,messy,11138,2019-11-03_18h21.08.141,SurveyExpMetaMem,3.2.3,Win32,60
,,,,,,,,,,,,,,,,,,,,7,3.224000216,4,0.264000177,1,0,1200,1062,1,1199,shoplifter,11138,2019-11-03_18h21.08.141,SurveyExpMetaMem,3.2.3,Win32,60
,,,,,,,,,,,,,,,,,,,,5,1.463000059,5,0.203000307,1,0,1200,435,1,1199,grovel,11138,2019-11-03_18h21.08.141,SurveyExpMetaMem,3.2.3,Win32,60
,,,,,,,,,,,,,,,,,,,,6,3.607000113,4,0.130000114,1,0,1200,1087,1,1199,affair,11138,2019-11-03_18h21.08.141,SurveyExpMetaMem,3.2.3,Win32,60
,,,,,,,,,,,,,,,,,,,,4,2.795000076,5,0.124000072,1,0,1200,648,1,1199,beads,11138,2019-11-03_18h21.08.141,SurveyExpMetaMem,3.2.3,Win32,60
,,,,,,,,,,,,,,,,,,,,5,5.945000172,5,0.204000235,1,0,1200,1187,1,1199,drill,11138,2019-11-03_18h21.08.141,SurveyExpMetaMem,3.2.3,Win32,60
,,,,,,,,,,,,,,,,,,,,7,1.955000162,7,0.20600009,1,0,1200,240,1,1199,giggles,11138,2019-11-03_18h21.08.141,SurveyExpMetaMem,3.2.3,Win32,60
,,,,,,,,,,,,,,,,,,,,6,1.633000135,6,0.203000307,1,0,1200,258,1,1199,children,11138,2019-11-03_18h21.08.141,SurveyExpMetaMem,3.2.3,Win32,60
,,,,,,,,,,,,,,,,,,,,6,4.301000118,6,0.226000309,1,0,1200,678,1,1199,lightbulb,11138,2019-11-03_18h21.08.141,SurveyExpMetaMem,3.2.3,Win32,60
,,,,,,,,,,,,,,,,,,,,4,2.211000204,4,0.22900033,1,0,1200,438,1,1199,dull,11138,2019-11-03_18h21.08.141,SurveyExpMetaMem,3.2.3,Win32,60
,,,,,,,,,,,,,,,,,,,,3,5.37100029,7,0.30700016,1,0,1200,811,1,1199,tenderness,11138,2019-11-03_18h21.08.141,SurveyExpMetaMem,3.2.3,Win32,60
,,,,,,,,,,,,,,,,,,,,5,4.041000128,5,0.188000202,1,0,1200,556,1,1199,allege,11138,2019-11-03_18h21.08.141,SurveyExpMetaMem,3.2.3,Win32,60
,,,,,,,,,,,,,,,,,,,,7,1.902000189,3,0.243000269,1,0,1200,1135,1,1199,thirsty,11138,2019-11-03_18h21.08.141,SurveyExpMetaMem,3.2.3,Win32,60
,,,,,,,,,,,,,,,,,,,,5,2.80700016,5,0.236000061,1,0,1200,789,1,1199,green,11138,2019-11-03_18h21.08.141,SurveyExpMetaMem,3.2.3,Win32,60
,,,,,,,,,,,,,,,,,,,,6,2.863000154,4,0.092000246,1,0,1200,309,1,1199,homeless,11138,2019-11-03_18h21.08.141,SurveyExpMetaMem,3.2.3,Win32,60
,,,,,,,,,,,,,,,,,,,,5,1.308000088,5,0.168000221,1,0,1200,53,1,1199,lotion,11138,2019-11-03_18h21.08.141,SurveyExpMetaMem,3.2.3,Win32,60
,,,,,,,,,,,,,,,,,,,,6,5.484000206,6,0.213000298,1,0,1200,675,1,1199,golfer,11138,2019-11-03_18h21.08.141,SurveyExpMetaMem,3.2.3,Win32,60
,,,,,,,,,,,,,,,,,,,,4,4.701000214,4,0.187000036,1,0,1200,365,1,1199,discouraged,11138,2019-11-03_18h21.08.141,SurveyExpMetaMem,3.2.3,Win32,60
,,,,,,,,,,,,,,,,,,,,4,1.385000229,4,0.208000183,1,0,1200,1077,1,1199,unsure,11138,2019-11-03_18h21.08.141,SurveyExpMetaMem,3.2.3,Win32,60
,,,,,,,,,,,,,,,,,,,,5,1.653000116,5,0.205000162,1,0,1200,1177,1,1199,pang,11138,2019-11-03_18h21.08.141,SurveyExpMetaMem,3.2.3,Win32,60
,,,,,,,,,,,,,,,,,,,,6,2.964000225,4,0.335000277,1,0,1200,151,1,1199,react,11138,2019-11-03_18h21.08.141,SurveyExpMetaMem,3.2.3,Win32,60
,,,,,,,,,,,,,,,,,,,,4,3.886000156,4,0.227000237,1,0,1200,1085,1,1199,sever,11138,2019-11-03_18h21.08.141,SurveyExpMetaMem,3.2.3,Win32,60
,,,,,,,,,,,,,,,,,,,,4,1.210000277,4,0.264000177,1,0,1200,394,1,1199,dump,11138,2019-11-03_18h21.08.141,SurveyExpMetaMem,3.2.3,Win32,60
,,,,,,,,,,,,,,,,,,,,6,5.667000294,6,0.192000151,1,0,1200,825,1,1199,swan,11138,2019-11-03_18h21.08.141,SurveyExpMetaMem,3.2.3,Win32,60
,,,,,,,,,,,,,,,,,,,,4,1.222000122,4,0.188000202,1,0,1200,463,1,1199,limp,11138,2019-11-03_18h21.08.141,SurveyExpMetaMem,3.2.3,Win32,60
,,,,,,,,,,,,,,,,,,,,6,3.88800025,6,0.244000196,1,0,1200,827,1,1199,saint,11138,2019-11-03_18h21.08.141,SurveyExpMetaMem,3.2.3,Win32,60
,,,,,,,,,,,,,,,,,,,,6,0.988000154,6,0.225000143,1,0,1200,585,1,1199,tatter,11138,2019-11-03_18h21.08.141,SurveyExpMetaMem,3.2.3,Win32,60
,,,,,,,,,,,,,,,,,,,,5,1.251000166,5,0.231000185,1,0,1200,504,1,1199,cane,11138,2019-11-03_18h21.08.141,SurveyExpMetaMem,3.2.3,Win32,60
,,,,,,,,,,,,,,,,,,,,4,1.025000095,4,0.194000006,1,0,1200,462,1,1199,shallow,11138,2019-11-03_18h21.08.141,SurveyExpMetaMem,3.2.3,Win32,60
,,,,,,,,,,,,,,,,,,,,5,1.265000105,5,0.208000183,1,0,1200,489,1,1199,timid,11138,2019-11-03_18h21.08.141,SurveyExpMetaMem,3.2.3,Win32,60
,,,,,,,,,,,,,,,,,,,,6,1.323000193,3,1.826000214,1,0,1200,1199,1,1199,expensive,11138,2019-11-03_18h21.08.141,SurveyExpMetaMem,3.2.3,Win32,60
,,,,,,,,,,,,,,,,,,,,4,4.842000008,4,0.212000132,1,0,1200,335,1,1199,decay,11138,2019-11-03_18h21.08.141,SurveyExpMetaMem,3.2.3,Win32,60
,,,,,,,,,,,,,,,,,,,,4,1.9150002,4,0.243000031,1,0,1200,1119,1,1199,confusion,11138,2019-11-03_18h21.08.141,SurveyExpMetaMem,3.2.3,Win32,60
,,,,,,,,,,,,,,,,,,,,6,2.44900012,6,0.243999958,1,0,1200,832,1,1199,candy,11138,2019-11-03_18h21.08.141,SurveyExpMetaMem,3.2.3,Win32,60
,,,,,,,,,,,,,,,,,,,,4,2.667999983,4,0.449000359,1,0,1200,543,1,1199,gloat,11138,2019-11-03_18h21.08.141,SurveyExpMetaMem,3.2.3,Win32,60
,,,,,,,,,,,,,,,,,,,,4,1.430999994,4,0.230000257,1,0,1200,441,1,1199,prohibit,11138,2019-11-03_18h21.08.141,SurveyExpMetaMem,3.2.3,Win32,60
,,,,,,,,,,,,,,,,,,,,6,1.203999996,6,0.210000038,1,0,1200,788,1,1199,cook,11138,2019-11-03_18h21.08.141,SurveyExpMetaMem,3.2.3,Win32,60
,,,,,,,,,,,,,,,,,,,,6,5.567000151,4,0.288000107,1,0,1200,156,1,1199,gym,11138,2019-11-03_18h21.08.141,SurveyExpMetaMem,3.2.3,Win32,60
,,,,,,,,,,,,,,,,,,,,6,3.367000103,3,0.21600008,1,0,1200,1151,1,1199,drama,11138,2019-11-03_18h21.08.141,SurveyExpMetaMem,3.2.3,Win32,60
,,,,,,,,,,,,,,,,,,,,4,2.863000154,4,0.387000084,1,0,1200,423,1,1199,stain,11138,2019-11-03_18h21.08.141,SurveyExpMetaMem,3.2.3,Win32,60
,,,,,,,,,,,,,,,,,,,,4,4.421000242,4,0.911000013,1,0,1200,1092,1,1199,rattlesnake,11138,2019-11-03_18h21.08.141,SurveyExpMetaMem,3.2.3,Win32,60
,,,,,,,,,,,,,,,,,,,,3,3.828999996,6,0.152000189,1,0,1200,883,1,1199,sky,11138,2019-11-03_18h21.08.141,SurveyExpMetaMem,3.2.3,Win32,60
,,,,,,,,,,,,,,,,,,,,5,2.486000061,5,0.767000198,1,0,1200,776,1,1199,doll,11138,2019-11-03_18h21.08.141,SurveyExpMetaMem,3.2.3,Win32,60
,,,,,,,,,,,,,,,,,,,,6,1.385000229,6,0.18900013,1,0,1200,42,1,1199,accomplish,11138,2019-11-03_18h21.08.141,SurveyExpMetaMem,3.2.3,Win32,60
,,,,,,,,,,,,,,,,,,,,7,4.783000231,4,0.085000277,1,0,1200,337,1,1199,stinks,11138,2019-11-03_18h21.08.141,SurveyExpMetaMem,3.2.3,Win32,60
,,,,,,,,,,,,,,,,,,,,7,4.167000055,3,0.286000013,1,0,1200,909,1,1199,terrified,11138,2019-11-03_18h21.08.141,SurveyExpMetaMem,3.2.3,Win32,60
,,,,,,,,,,,,,,,,,,,,6,3.255000114,4,0.128000259,1,0,1200,497,1,1199,pungent,11138,2019-11-03_18h21.08.141,SurveyExpMetaMem,3.2.3,Win32,60
,,,,,,,,,,,,,,,,,,,,6,1.122000217,6,0.167999983,1,0,1200,158,1,1199,engage,11138,2019-11-03_18h21.08.141,SurveyExpMetaMem,3.2.3,Win32,60
,,,,,,,,,,,,,,,,,,,,8,2.903000355,2,0.55700016,1,0,1200,924,1,1199,terrible,11138,2019-11-03_18h21.08.141,SurveyExpMetaMem,3.2.3,Win32,60
,,,,,,,,,,,,,,,,,,,,6,3.947000027,4,0.386000156,1,0,1200,1182,1,1199,pierce,11138,2019-11-03_18h21.08.141,SurveyExpMetaMem,3.2.3,Win32,60
,,,,,,,,,,,,,,,,,,,,7,39.97900009,3,0.07400012,1,0,1200,388,1,1199,mildew,11138,2019-11-03_18h21.08.141,SurveyExpMetaMem,3.2.3,Win32,60
,,,,,,,,,,,,,,,,,,,,6,2.139000177,6,0.158000231,1,0,1200,168,1,1199,mate,11138,2019-11-03_18h21.08.141,SurveyExpMetaMem,3.2.3,Win32,60
,,,,,,,,,,,,,,,,,,,,6,4.6650002,6,0.187000275,1,0,1200,262,1,1199,athletics,11138,2019-11-03_18h21.08.141,SurveyExpMetaMem,3.2.3,Win32,60
,,,,,,,,,,,,,,,,,,,,6,3.505000114,6,0.185000181,1,0,1200,1194,1,1199,obsession,11138,2019-11-03_18h21.08.141,SurveyExpMetaMem,3.2.3,Win32,60
,,,,,,,,,,,,,,,,,,,,5,2.306000233,5,0.164000273,1,0,1200,785,1,1199,pond,11138,2019-11-03_18h21.08.141,SurveyExpMetaMem,3.2.3,Win32,60
,,,,,,,,,,,,,,,,,,,,4,1.764000177,6,0.194000006,1,0,1200,861,1,1199,nectar,11138,2019-11-03_18h21.08.141,SurveyExpMetaMem,3.2.3,Win32,60
,,,,,,,,,,,,,,,,,,,,6,2.32400012,4,0.103000164,1,0,1200,959,1,1199,divorce,11138,2019-11-03_18h21.08.141,SurveyExpMetaMem,3.2.3,Win32,60
,,,,,,,,,,,,,,,,,,,,7,1.647000074,7,0.171000004,1,0,1200,198,1,1199,comedy,11138,2019-11-03_18h21.08.141,SurveyExpMetaMem,3.2.3,Win32,60
,,,,,,,,,,,,,,,,,,,,6,1.754000187,6,0.125000238,1,0,1200,66,1,1199,zest,11138,2019-11-03_18h21.08.141,SurveyExpMetaMem,3.2.3,Win32,60
,,,,,,,,,,,,,,,,,,,,6,1.430000067,6,0.188000202,1,0,1200,781,1,1199,emerald,11138,2019-11-03_18h21.08.141,SurveyExpMetaMem,3.2.3,Win32,60
,,,,,,,,,,,,,,,,,,,,6,6.772000313,6,0.170000076,1,0,1200,82,1,1199,stunning,11138,2019-11-03_18h21.08.141,SurveyExpMetaMem,3.2.3,Win32,60
,,,,,,,,,,,,,,,,,,,,7,2.103000164,3,0.246000051,1,0,1200,346,1,1199,alcoholism,11138,2019-11-03_18h21.08.141,SurveyExpMetaMem,3.2.3,Win32,60
,,,,,,,,,,,,,,,,,,,,4,1.928000212,4,0.184000254,1,0,1200,318,1,1199,disappointment,11138,2019-11-03_18h21.08.141,SurveyExpMetaMem,3.2.3,Win32,60
,,,,,,,,,,,,,,,,,,,,5,3.232000113,5,0.184000015,1,0,1200,748,1,1199,town,11138,2019-11-03_18h21.08.141,SurveyExpMetaMem,3.2.3,Win32,60
,,,,,,,,,,,,,,,,,,,,7,1.987000227,7,0.127000093,1,0,1200,78,1,1199,energetic,11138,2019-11-03_18h21.08.141,SurveyExpMetaMem,3.2.3,Win32,60
,,,,,,,,,,,,,,,,,,,,5,2.269000053,5,0.212000132,1,0,1200,787,1,1199,dawn,11138,2019-11-03_18h21.08.141,SurveyExpMetaMem,3.2.3,Win32,60
,,,,,,,,,,,,,,,,,,,,4,1.597000122,4,0.168000221,1,0,1200,378,1,1199,dislike,11138,2019-11-03_18h21.08.141,SurveyExpMetaMem,3.2.3,Win32,60
,,,,,,,,,,,,,,,,,,,,3,2.649000168,7,0.20600009,1,0,1200,862,1,1199,ease,11138,2019-11-03_18h21.08.141,SurveyExpMetaMem,3.2.3,Win32,60
,,,,,,,,,,,,,,,,,,,,5,3.036000252,5,0.18900013,1,0,1200,580,1,1199,fur,11138,2019-11-03_18h21.08.141,SurveyExpMetaMem,3.2.3,Win32,60
,,,,,,,,,,,,,,,,,,,,7,1.805000067,3,0.308000088,1,0,1200,1007,1,1199,tornado,11138,2019-11-03_18h21.08.141,SurveyExpMetaMem,3.2.3,Win32,60
,,,,,,,,,,,,,,,,,,,,6,76.26800013,6,0.167000294,1,0,1200,72,1,1199,attract,11138,2019-11-03_18h21.08.141,SurveyExpMetaMem,3.2.3,Win32,60
,,,,,,,,,,,,,,,,,,,,4,2.486000299,4,0.148000002,1,0,1200,509,1,1199,ash,11138,2019-11-03_18h21.08.141,SurveyExpMetaMem,3.2.3,Win32,60
,,,,,,,,,,,,,,,,,,,,3,2.09100008,3,0.144000053,1,0,1200,314,1,1199,hopeless,11138,2019-11-03_18h21.08.141,SurveyExpMetaMem,3.2.3,Win32,60
,,,,,,,,,,,,,,,,,,,,6,24.53000021,6,0.143000126,1,0,1200,85,1,1199,like,11138,2019-11-03_18h21.08.141,SurveyExpMetaMem,3.2.3,Win32,60
,,,,,,,,,,,,,,,,,,,,5,1.224000216,5,0.315000057,1,0,1200,128,1,1199,supper,11138,2019-11-03_18h21.08.141,SurveyExpMetaMem,3.2.3,Win32,60
,,,,,,,,,,,,,,,,,,,,6,1.98900032,4,0.227000237,1,0,1200,500,1,1199,nosey,11138,2019-11-03_18h21.08.141,SurveyExpMetaMem,3.2.3,Win32,60
,,,,,,,,,,,,,,,,,,,,4,9.183000088,6,0.192000151,1,0,1200,852,1,1199,caring,11138,2019-11-03_18h21.08.141,SurveyExpMetaMem,3.2.3,Win32,60
,,,,,,,,,,,,,,,,,,,,6,1.652000189,6,0.150000334,1,0,1200,28,1,1199,energy,11138,2019-11-03_18h21.08.141,SurveyExpMetaMem,3.2.3,Win32,60
,,,,,,,,,,,,,,,,,,,,6,2.588000059,6,0.136000156,1,0,1200,86,1,1199,talent,11138,2019-11-03_18h21.08.141,SurveyExpMetaMem,3.2.3,Win32,60
,,,,,,,,,,,,,,,,,,,,8,2.371000051,2,0.184000015,1,0,1200,944,1,1199,kill,11138,2019-11-03_18h21.08.141,SurveyExpMetaMem,3.2.3,Win32,60
,,,,,,,,,,,,,,,,,,,,6,3.127000093,6,0.194000006,1,0,1200,816,1,1199,hippotamus,11138,2019-11-03_18h21.08.141,SurveyExpMetaMem,3.2.3,Win32,60
,,,,,,,,,,,,,,,,,,,,5,36.87800002,5,0.20600009,1,0,1200,76,1,1199,midnight,11138,2019-11-03_18h21.08.141,SurveyExpMetaMem,3.2.3,Win32,60
,,,,,,,,,,,,,,,,,,,,4,5.7900002,4,0.166000128,1,0,1200,396,1,1199,unpopular,11138,2019-11-03_18h21.08.141,SurveyExpMetaMem,3.2.3,Win32,60
,,,,,,,,,,,,,,,,,,,,4,9.68900013,4,0.184999943,1,0,1200,385,1,1199,tiresome,11138,2019-11-03_18h21.08.141,SurveyExpMetaMem,3.2.3,Win32,60
,,,,,,,,,,,,,,,,,,,,6,5.443000317,4,0.144000053,1,0,1200,1022,1,1199,creepy,11138,2019-11-03_18h21.08.141,SurveyExpMetaMem,3.2.3,Win32,60
,,,,,,,,,,,,,,,,,,,,7,1.927000284,3,0.169000149,1,0,1200,973,1,1199,anger,11138,2019-11-03_18h21.08.141,SurveyExpMetaMem,3.2.3,Win32,60
,,,,,,,,,,,,,,,,,,,,4,4.154000282,5,0.203000069,1,0,1200,715,1,1199,sheltered,11138,2019-11-03_18h21.08.141,SurveyExpMetaMem,3.2.3,Win32,60
,,,,,,,,,,,,,,,,,,,,3,5.787000179,4,0.390000105,1,0,1200,433,1,1199,uninteresting,11138,2019-11-03_18h21.08.141,SurveyExpMetaMem,3.2.3,Win32,60
,,,,,,,,,,,,,,,,,,,,5,31.11800003,5,0.668000221,1,0,1200,683,1,1199,scarf,11138,2019-11-03_18h21.08.141,SurveyExpMetaMem,3.2.3,Win32,60
,,,,,,,,,,,,,,,,,,,,5,6.440999985,5,0.219000101,1,0,1200,774,1,1199,leaves,11138,2019-11-03_18h21.08.141,SurveyExpMetaMem,3.2.3,Win32,60
,,,,,,,,,,,,,,,,,,,,6,1.86400032,6,0.606000185,1,0,1200,147,1,1199,cure,11138,2019-11-03_18h21.08.141,SurveyExpMetaMem,3.2.3,Win32,60
,,,,,,,,,,,,,,,,,,,,4,6.091000319,6,0.24600029,1,0,1200,794,1,1199,pray,11138,2019-11-03_18h21.08.141,SurveyExpMetaMem,3.2.3,Win32,60
,,,,,,,,,,,,,,,,,,,,5,4.632000208,5,0.241000175,1,0,1200,586,1,1199,cab,11138,2019-11-03_18h21.08.141,SurveyExpMetaMem,3.2.3,Win32,60
,,,,,,,,,,,,,,,,,,,,5,1.111000061,5,0.245000124,1,0,1200,34,1,1199,personality,11138,2019-11-03_18h21.08.141,SurveyExpMetaMem,3.2.3,Win32,60
,,,,,,,,,,,,,,,,,,,,5,1.334000111,5,0.213000059,1,0,1200,691,1,1199,circle,11138,2019-11-03_18h21.08.141,SurveyExpMetaMem,3.2.3,Win32,60
,,,,,,,,,,,,,,,,,,,,5,0.928000212,7,1.46600008,1,0,1200,274,1,1199,song,11138,2019-11-03_18h21.08.141,SurveyExpMetaMem,3.2.3,Win32,60
,,,,,,,,,,,,,,,,,,,,5,16.98100019,5,0.229000092,1,0,1200,413,1,1199,deficient,11138,2019-11-03_18h21.08.141,SurveyExpMetaMem,3.2.3,Win32,60
,,,,,,,,,,,,,,,,,,,,6,7.025000095,4,0.34700036,1,0,1200,1115,1,1199,invade,11138,2019-11-03_18h21.08.141,SurveyExpMetaMem,3.2.3,Win32,60
,,,,,,,,,,,,,,,,,,,,5,1.14800024,5,0.245000124,1,0,1200,61,1,1199,zoom,11138,2019-11-03_18h21.08.141,SurveyExpMetaMem,3.2.3,Win32,60
,,,,,,,,,,,,,,,,,,,,6,1.769000053,6,0.228000164,1,0,1200,622,1,1199,revere,11138,2019-11-03_18h21.08.141,SurveyExpMetaMem,3.2.3,Win32,60
,,,,,,,,,,,,,,,,,,,,5,7.028000116,5,0.204000235,1,0,1200,850,1,1199,lake,11138,2019-11-03_18h21.08.141,SurveyExpMetaMem,3.2.3,Win32,60
,,,,,,,,,,,,,,,,,,,,6,1.805000305,4,0.1650002,1,0,1200,1122,1,1199,gossip,11138,2019-11-03_18h21.08.141,SurveyExpMetaMem,3.2.3,Win32,60
,,,,,,,,,,,,,,,,,,,,5,1.322000027,5,0.244000196,1,0,1200,174,1,1199,snow,11138,2019-11-03_18h21.08.141,SurveyExpMetaMem,3.2.3,Win32,60
,,,,,,,,,,,,,,,,,,,,4,4.752000332,7,0.430000305,1,0,1200,871,1,1199,comfort,11138,2019-11-03_18h21.08.141,SurveyExpMetaMem,3.2.3,Win32,60
,,,,,,,,,,,,,,,,,,,,5,1.485000372,5,0.203999996,1,0,1200,429,1,1199,cough,11138,2019-11-03_18h21.08.141,SurveyExpMetaMem,3.2.3,Win32,60
,,,,,,,,,,,,,,,,,,,,6,59.81400013,6,0.137000322,1,0,1200,126,1,1199,rich,11138,2019-11-03_18h21.08.141,SurveyExpMetaMem,3.2.3,Win32,60
,,,,,,,,,,,,,,,,,,,,5,1.48300004,5,0.152000189,1,0,1200,684,1,1199,send,11138,2019-11-03_18h21.08.141,SurveyExpMetaMem,3.2.3,Win32,60
,,,,,,,,,,,,,,,,,,,,7,2.090000391,3,0.133000135,1,0,1200,1021,1,1199,attack,11138,2019-11-03_18h21.08.141,SurveyExpMetaMem,3.2.3,Win32,60
,,,,,,,,,,,,,,,,,,,,5,1.174000025,5,0.176000118,1,0,1200,1178,1,1199,weight,11138,2019-11-03_18h21.08.141,SurveyExpMetaMem,3.2.3,Win32,60
,,,,,,,,,,,,,,,,,,,,6,2.884000063,4,0.287000179,1,0,1200,485,1,1199,pinch,11138,2019-11-03_18h21.08.141,SurveyExpMetaMem,3.2.3,Win32,60
,,,,,,,,,,,,,,,,,,,,6,1.865000248,4,0.223999977,1,0,1200,530,1,1199,erase,11138,2019-11-03_18h21.08.141,SurveyExpMetaMem,3.2.3,Win32,60
,,,,,,,,,,,,,,,,,,,,5,5.400000095,5,0.146000147,1,0,1200,609,1,1199,candlestick,11138,2019-11-03_18h21.08.141,SurveyExpMetaMem,3.2.3,Win32,60
,,,,,,,,,,,,,,,,,,,,4,4.424000263,4,0.149000168,1,0,1200,427,1,1199,doubt,11138,2019-11-03_18h21.08.141,SurveyExpMetaMem,3.2.3,Win32,60
,,,,,,,,,,,,,,,,,,,,5,1.228000164,5,0.133000135,1,0,1200,791,1,1199,shoes,11138,2019-11-03_18h21.08.141,SurveyExpMetaMem,3.2.3,Win32,60
,,,,,,,,,,,,,,,,,,,,7,1.323000193,7,0.163000107,1,0,1200,242,1,1199,triumph,11138,2019-11-03_18h21.08.141,SurveyExpMetaMem,3.2.3,Win32,60
,,,,,,,,,,,,,,,,,,,,7,2.045000076,3,0.347000122,1,0,1200,917,1,1199,slave,11138,2019-11-03_18h21.08.141,SurveyExpMetaMem,3.2.3,Win32,60
,,,,,,,,,,,,,,,,,,,,6,2.045000315,6,0.1650002,1,0,1200,187,1,1199,excite,11138,2019-11-03_18h21.08.141,SurveyExpMetaMem,3.2.3,Win32,60
,,,,,,,,,,,,,,,,,,,,5,24.97900009,5,0.148000002,1,0,1200,756,1,1199,plant,11138,2019-11-03_18h21.08.141,SurveyExpMetaMem,3.2.3,Win32,60
,,,,,,,,,,,,,,,,,,,,5,1.933000088,5,0.14800024,1,0,1200,246,1,1199,complete,11138,2019-11-03_18h21.08.141,SurveyExpMetaMem,3.2.3,Win32,60
,,,,,,,,,,,,,,,,,,,,6,4.565000296,6,0.15500021,1,0,1200,39,1,1199,birth,11138,2019-11-03_18h21.08.141,SurveyExpMetaMem,3.2.3,Win32,60
,,,,,,,,,,,,,,,,,,,,6,1.325000048,6,0.150000095,1,0,1200,760,1,1199,shrimp,11138,2019-11-03_18h21.08.141,SurveyExpMetaMem,3.2.3,Win32,60
,,,,,,,,,,,,,,,,,,,,4,5.089000225,4,0.164000034,1,0,1200,382,1,1199,vulnerable,11138,2019-11-03_18h21.08.141,SurveyExpMetaMem,3.2.3,Win32,60
,,,,,,,,,,,,,,,,,,,,5,2.532000303,5,0.167000294,1,0,1200,671,1,1199,windmill,11138,2019-11-03_18h21.08.141,SurveyExpMetaMem,3.2.3,Win32,60
,,,,,,,,,,,,,,,,,,,,5,1.009000063,5,0.185000181,1,0,1200,1074,1,1199,detain,11138,2019-11-03_18h21.08.141,SurveyExpMetaMem,3.2.3,Win32,60
,,,,,,,,,,,,,,,,,,,,6,7.593000174,6,0.183000088,1,0,1200,165,1,1199,sizzle,11138,2019-11-03_18h21.08.141,SurveyExpMetaMem,3.2.3,Win32,60
,,,,,,,,,,,,,,,,,,,,6,5.253000259,4,0.176000118,1,0,1200,922,1,1199,nightmare,11138,2019-11-03_18h21.08.141,SurveyExpMetaMem,3.2.3,Win32,60
,,,,,,,,,,,,,,,,,,,,5,1.294000149,5,0.163000345,1,0,1200,621,1,1199,chew,11138,2019-11-03_18h21.08.141,SurveyExpMetaMem,3.2.3,Win32,60
,,,,,,,,,,,,,,,,,,,,4,2.765000105,6,0.38499999,1,0,1200,192,1,1199,pleased,11138,2019-11-03_18h21.08.141,SurveyExpMetaMem,3.2.3,Win32,60
,,,,,,,,,,,,,,,,,,,,5,1.584000111,5,0.192000151,1,0,1200,608,1,1199,carrot,11138,2019-11-03_18h21.08.141,SurveyExpMetaMem,3.2.3,Win32,60
,,,,,,,,,,,,,,,,,,,,5,1.363000154,5,0.149000168,1,0,1200,812,1,1199,harp,11138,2019-11-03_18h21.08.141,SurveyExpMetaMem,3.2.3,Win32,60
,,,,,,,,,,,,,,,,,,,,6,2.185000181,4,0.269000053,1,0,1200,1039,1,1199,stalk,11138,2019-11-03_18h21.08.141,SurveyExpMetaMem,3.2.3,Win32,60
,,,,,,,,,,,,,,,,,,,,7,1.906000137,3,0.253000259,1,0,1200,1058,1,1199,bloody,11138,2019-11-03_18h21.08.141,SurveyExpMetaMem,3.2.3,Win32,60
,,,,,,,,,,,,,,,,,,,,5,1.603000164,5,0.169000149,1,0,1200,403,1,1199,wither,11138,2019-11-03_18h21.08.141,SurveyExpMetaMem,3.2.3,Win32,60
,,,,,,,,,,,,,,,,,,,,5,2.588999987,5,0.430000067,1,0,1200,107,1,1199,sandwich,11138,2019-11-03_18h21.08.141,SurveyExpMetaMem,3.2.3,Win32,60
,,,,,,,,,,,,,,,,,,,,6,1.38800025,6,0.166000128,1,0,1200,875,1,1199,fluffy,11138,2019-11-03_18h21.08.141,SurveyExpMetaMem,3.2.3,Win32,60
,,,,,,,,,,,,,,,,,,,,6,1.830000162,4,0.207000256,1,0,1200,251,1,1199,meteor,11138,2019-11-03_18h21.08.141,SurveyExpMetaMem,3.2.3,Win32,60
,,,,,,,,,,,,,,,,,,,,6,11.9230001,6,0.145000219,1,0,1200,770,1,1199,buffalo,11138,2019-11-03_18h21.08.141,SurveyExpMetaMem,3.2.3,Win32,60
,,,,,,,,,,,,,,,,,,,,7,1.770000219,3,0.366000175,1,0,1200,916,1,1199,starvation,11138,2019-11-03_18h21.08.141,SurveyExpMetaMem,3.2.3,Win32,60
,,,,,,,,,,,,,,,,,,,,4,36.46200013,4,0.185000181,1,0,1200,544,1,1199,snail,11138,2019-11-03_18h21.08.141,SurveyExpMetaMem,3.2.3,Win32,60
,,,,,,,,,,,,,,,,,,,,4,3.168000221,6,0.174000025,1,0,1200,751,1,1199,listen,11138,2019-11-03_18h21.08.141,SurveyExpMetaMem,3.2.3,Win32,60
,,,,,,,,,,,,,,,,,,,,4,7.793000221,4,0.184000254,1,0,1200,371,1,1199,weakness,11138,2019-11-03_18h21.08.141,SurveyExpMetaMem,3.2.3,Win32,60
,,,,,,,,,,,,,,,,,,,,4,4.687000275,4,0.170000076,1,0,1200,946,1,1199,amputate,11138,2019-11-03_18h21.08.141,SurveyExpMetaMem,3.2.3,Win32,60
,,,,,,,,,,,,,,,,,,,,7,3.926000118,2,0.527000189,1,0,1200,1051,1,1199,insane,11138,2019-11-03_18h21.08.141,SurveyExpMetaMem,3.2.3,Win32,60
,,,,,,,,,,,,,,,,,,,,5,4.545000076,5,0.149000168,1,0,1200,233,1,1199,exhilaration,11138,2019-11-03_18h21.08.141,SurveyExpMetaMem,3.2.3,Win32,60
,,,,,,,,,,,,,,,,,,,,5,1.729000092,5,0.17200017,1,0,1200,741,1,1199,wheat,11138,2019-11-03_18h21.08.141,SurveyExpMetaMem,3.2.3,Win32,60
,,,,,,,,,,,,,,,,,,,,4,9.661000252,6,2.644999981,1,0,1200,628,1,1199,chess,11138,2019-11-03_18h21.08.141,SurveyExpMetaMem,3.2.3,Win32,60
,,,,,,,,,,,,,,,,,,,,6,11.56100011,6,0.145000219,1,0,1200,778,1,1199,adorn,11138,2019-11-03_18h21.08.141,SurveyExpMetaMem,3.2.3,Win32,60
,,,,,,,,,,,,,,,,,,,,5,0.883000135,5,0.146000147,1,0,1200,598,1,1199,feet,11138,2019-11-03_18h21.08.141,SurveyExpMetaMem,3.2.3,Win32,60
,,,,,,,,,,,,,,,,,,,,6,2.684999943,4,0.243999958,1,0,1200,938,1,1199,seasick,11138,2019-11-03_18h21.08.141,SurveyExpMetaMem,3.2.3,Win32,60
,,,,,,,,,,,,,,,,,,,,3,2.08100009,3,0.180000067,1,0,1200,366,1,1199,fatigue,11138,2019-11-03_18h21.08.141,SurveyExpMetaMem,3.2.3,Win32,60
,,,,,,,,,,,,,,,,,,,,5,2.56400013,5,0.173000097,1,0,1200,721,1,1199,contemporary,11138,2019-11-03_18h21.08.141,SurveyExpMetaMem,3.2.3,Win32,60
,,,,,,,,,,,,,,,,,,,,5,1.708000183,5,0.17200017,1,0,1200,725,1,1199,checkerboard,11138,2019-11-03_18h21.08.141,SurveyExpMetaMem,3.2.3,Win32,60
,,,,,,,,,,,,,,,,,,,,5,1.451000214,5,0.167000294,1,0,1200,1133,1,1199,slip,11138,2019-11-03_18h21.08.141,SurveyExpMetaMem,3.2.3,Win32,60
,,,,,,,,,,,,,,,,,,,,8,2.11400032,2,0.751000166,1,0,1200,584,1,1199,anus,11138,2019-11-03_18h21.08.141,SurveyExpMetaMem,3.2.3,Win32,60
,,,,,,,,,,,,,,,,,,,,5,5.606000185,5,0.133000135,1,0,1200,877,1,1199,bless,11138,2019-11-03_18h21.08.141,SurveyExpMetaMem,3.2.3,Win32,60
,,,,,,,,,,,,,,,,,,,,8,3.582000256,2,0.445000172,1,0,1200,1082,1,1199,hazard,11138,2019-11-03_18h21.08.141,SurveyExpMetaMem,3.2.3,Win32,60
,,,,,,,,,,,,,,,,,,,,7,1.952000141,7,0.175000191,1,0,1200,733,1,1199,poetry,11138,2019-11-03_18h21.08.141,SurveyExpMetaMem,3.2.3,Win32,60
,,,,,,,,,,,,,,,,,,,,6,1.462000132,6,0.446000099,1,0,1200,599,1,1199,obstinate,11138,2019-11-03_18h21.08.141,SurveyExpMetaMem,3.2.3,Win32,60
,,,,,,,,,,,,,,,,,,,,5,4.442000151,7,0.226000071,1,0,1200,898,1,1199,kindness,11138,2019-11-03_18h21.08.141,SurveyExpMetaMem,3.2.3,Win32,60
,,,,,,,,,,,,,,,,,,,,5,4.06400013,5,0.144999981,1,0,1200,565,1,1199,frozen,11138,2019-11-03_18h21.08.141,SurveyExpMetaMem,3.2.3,Win32,60
,,,,,,,,,,,,,,,,,,,,5,1.755000114,5,0.167000055,1,0,1200,826,1,1199,poem,11138,2019-11-03_18h21.08.141,SurveyExpMetaMem,3.2.3,Win32,60
,,,,,,,,,,,,,,,,,,,,4,5.205000162,4,0.207000017,1,0,1200,334,1,1199,trash,11138,2019-11-03_18h21.08.141,SurveyExpMetaMem,3.2.3,Win32,60
,,,,,,,,,,,,,,,,,,,,7,10.98200011,7,0.147000074,1,0,1200,99,1,1199,funny,11138,2019-11-03_18h21.08.141,SurveyExpMetaMem,3.2.3,Win32,60
,,,,,,,,,,,,,,,,,,,,6,1.24600029,6,0.153000116,1,0,1200,201,1,1199,gorilla,11138,2019-11-03_18h21.08.141,SurveyExpMetaMem,3.2.3,Win32,60
