mouse_4.x,mouse_4.y,mouse_4.leftButton,mouse_4.midButton,mouse_4.rightButton,mouse.x,mouse.y,mouse.leftButton,mouse.midButton,mouse.rightButton,mouse_2.x,mouse_2.y,mouse_2.leftButton,mouse_2.midButton,mouse_2.rightButton,mouse_3.x,mouse_3.y,mouse_3.leftButton,mouse_3.midButton,mouse_3.rightButton,A_key_resp.keys,A_key_resp.rt,key_resp.keys,key_resp.rt,trials.thisRepN,trials.thisTrialN,trials.thisN,trials.thisIndex,trials.ran,trials.order,word,ParticipantID,date,expName,psychopyVersion,OS,frameRate
0.144444475,-0.294444468,1,0,0,0.144444475,-0.294444468,1,0,0,0.144444475,-0.294444468,1,0,0,0.144444475,-0.294444468,1,0,0,5,1.792000055,5,0.474999905,1,0,1200,369,1,1199,blind,1116,2019-10-25_13h29.13.176,SurveyExpMetaMem,3.2.3,Win32,60
,,,,,,,,,,,,,,,,,,,,5,0.014999866,5,0.023000002,1,0,1200,1112,1,1199,pressure,1116,2019-10-25_13h29.13.176,SurveyExpMetaMem,3.2.3,Win32,60
,,,,,,,,,,,,,,,,,,,,5,0.013999939,5,0.017999887,1,0,1200,1152,1,1199,scream,1116,2019-10-25_13h29.13.176,SurveyExpMetaMem,3.2.3,Win32,60
,,,,,,,,,,,,,,,,,,,,5,0.008999825,5,0.020999908,1,0,1200,308,1,1199,worthless,1116,2019-10-25_13h29.13.176,SurveyExpMetaMem,3.2.3,Win32,60
,,,,,,,,,,,,,,,,,,,,5,0.015999794,5,0.026000023,1,0,1200,256,1,1199,galaxy,1116,2019-10-25_13h29.13.176,SurveyExpMetaMem,3.2.3,Win32,60
,,,,,,,,,,,,,,,,,,,,5,0.019999981,5,0.013999939,1,0,1200,364,1,1199,stink,1116,2019-10-25_13h29.13.176,SurveyExpMetaMem,3.2.3,Win32,60
,,,,,,,,,,,,,,,,,,,,5,0.025000095,5,0.019999981,1,0,1200,729,1,1199,velvet,1116,2019-10-25_13h29.13.176,SurveyExpMetaMem,3.2.3,Win32,60
,,,,,,,,,,,,,,,,,,,,5,0.010999918,5,0.021999836,1,0,1200,263,1,1199,answer,1116,2019-10-25_13h29.13.176,SurveyExpMetaMem,3.2.3,Win32,60
,,,,,,,,,,,,,,,,,,,,5,0.013999939,5,0.024999857,1,0,1200,133,1,1199,prosperous,1116,2019-10-25_13h29.13.176,SurveyExpMetaMem,3.2.3,Win32,60
,,,,,,,,,,,,,,,,,,,,5,0.019000053,5,0.013000011,1,0,1200,663,1,1199,trout,1116,2019-10-25_13h29.13.176,SurveyExpMetaMem,3.2.3,Win32,60
,,,,,,,,,,,,,,,,,,,,5,0.023000002,5,0.018000126,1,0,1200,1041,1,1199,sin,1116,2019-10-25_13h29.13.176,SurveyExpMetaMem,3.2.3,Win32,60
,,,,,,,,,,,,,,,,,,,,5,0.007999897,5,0.021000147,1,0,1200,483,1,1199,condescension,1116,2019-10-25_13h29.13.176,SurveyExpMetaMem,3.2.3,Win32,60
,,,,,,,,,,,,,,,,,,,,5,0.013999939,5,0.025000095,1,0,1200,471,1,1199,chump,1116,2019-10-25_13h29.13.176,SurveyExpMetaMem,3.2.3,Win32,60
,,,,,,,,,,,,,,,,,,,,5,0.018999815,5,0.012000084,1,0,1200,574,1,1199,distracted,1116,2019-10-25_13h29.13.176,SurveyExpMetaMem,3.2.3,Win32,60
,,,,,,,,,,,,,,,,,,,,5,0.024999857,5,0.019999981,1,0,1200,403,1,1199,wither,1116,2019-10-25_13h29.13.176,SurveyExpMetaMem,3.2.3,Win32,60
,,,,,,,,,,,,,,,,,,,,5,0.012000084,5,0.023999929,1,0,1200,236,1,1199,amaze,1116,2019-10-25_13h29.13.176,SurveyExpMetaMem,3.2.3,Win32,60
,,,,,,,,,,,,,,,,,,,,5,0.019000053,5,0.012000084,1,0,1200,641,1,1199,writer,1116,2019-10-25_13h29.13.176,SurveyExpMetaMem,3.2.3,Win32,60
,,,,,,,,,,,,,,,,,,,,5,0.021999836,5,0.017999887,1,0,1200,645,1,1199,telescope,1116,2019-10-25_13h29.13.176,SurveyExpMetaMem,3.2.3,Win32,60
,,,,,,,,,,,,,,,,,,,,5,0.010999918,5,0.020999908,1,0,1200,37,1,1199,magnificence,1116,2019-10-25_13h29.13.176,SurveyExpMetaMem,3.2.3,Win32,60
,,,,,,,,,,,,,,,,,,,,5,0.017999887,5,0.011999846,1,0,1200,201,1,1199,gorilla,1116,2019-10-25_13h29.13.176,SurveyExpMetaMem,3.2.3,Win32,60
,,,,,,,,,,,,,,,,,,,,5,0.020000219,5,0.017000198,1,0,1200,755,1,1199,soap,1116,2019-10-25_13h29.13.176,SurveyExpMetaMem,3.2.3,Win32,60
,,,,,,,,,,,,,,,,,,,,5,0.006000042,5,0.019000053,1,0,1200,1096,1,1199,flood,1116,2019-10-25_13h29.13.176,SurveyExpMetaMem,3.2.3,Win32,60
,,,,,,,,,,,,,,,,,,,,5,0.013000011,5,0.025000095,1,0,1200,282,1,1199,luck,1116,2019-10-25_13h29.13.176,SurveyExpMetaMem,3.2.3,Win32,60
,,,,,,,,,,,,,,,,,,,,5,0.019999981,5,0.013000011,1,0,1200,726,1,1199,crackers,1116,2019-10-25_13h29.13.176,SurveyExpMetaMem,3.2.3,Win32,60
,,,,,,,,,,,,,,,,,,,,5,0.023999929,5,0.01699996,1,0,1200,315,1,1199,zit,1116,2019-10-25_13h29.13.176,SurveyExpMetaMem,3.2.3,Win32,60
,,,,,,,,,,,,,,,,,,,,5,0.012000084,5,0.022000074,1,0,1200,5,1,1199,drunk,1116,2019-10-25_13h29.13.176,SurveyExpMetaMem,3.2.3,Win32,60
,,,,,,,,,,,,,,,,,,,,5,0.018000126,5,0.00999999,1,0,1200,20,1,1199,climax,1116,2019-10-25_13h29.13.176,SurveyExpMetaMem,3.2.3,Win32,60
,,,,,,,,,,,,,,,,,,,,5,0.020999908,5,0.017999887,1,0,1200,1131,1,1199,envious,1116,2019-10-25_13h29.13.176,SurveyExpMetaMem,3.2.3,Win32,60
,,,,,,,,,,,,,,,,,,,,5,0.009000063,5,0.020999908,1,0,1200,279,1,1199,bargain,1116,2019-10-25_13h29.13.176,SurveyExpMetaMem,3.2.3,Win32,60
,,,,,,,,,,,,,,,,,,,,5,0.013999939,5,0.026000023,1,0,1200,376,1,1199,incompetent,1116,2019-10-25_13h29.13.176,SurveyExpMetaMem,3.2.3,Win32,60
,,,,,,,,,,,,,,,,,,,,5,0.020999908,5,0.011999846,1,0,1200,592,1,1199,sweep,1116,2019-10-25_13h29.13.176,SurveyExpMetaMem,3.2.3,Win32,60
,,,,,,,,,,,,,,,,,,,,5,0.025000095,5,0.019000053,1,0,1200,1076,1,1199,embarrassed,1116,2019-10-25_13h29.13.176,SurveyExpMetaMem,3.2.3,Win32,60
,,,,,,,,,,,,,,,,,,,,5,0.013000011,5,0.023999929,1,0,1200,950,1,1199,murder,1116,2019-10-25_13h29.13.176,SurveyExpMetaMem,3.2.3,Win32,60
,,,,,,,,,,,,,,,,,,,,5,0.019999981,5,0.011000156,1,0,1200,905,1,1199,suffocate,1116,2019-10-25_13h29.13.176,SurveyExpMetaMem,3.2.3,Win32,60
,,,,,,,,,,,,,,,,,,,,5,0.023000002,5,0.013999939,1,0,1200,1008,1,1199,gang,1116,2019-10-25_13h29.13.176,SurveyExpMetaMem,3.2.3,Win32,60
,,,,,,,,,,,,,,,,,,,,5,0.023999929,5,0.019999981,1,0,1200,347,1,1199,unpleasant,1116,2019-10-25_13h29.13.176,SurveyExpMetaMem,3.2.3,Win32,60
,,,,,,,,,,,,,,,,,,,,5,0.013999939,5,0.023000002,1,0,1200,269,1,1199,extravagant,1116,2019-10-25_13h29.13.176,SurveyExpMetaMem,3.2.3,Win32,60
,,,,,,,,,,,,,,,,,,,,5,0.017000198,5,0.00999999,1,0,1200,4,1,1199,night,1116,2019-10-25_13h29.13.176,SurveyExpMetaMem,3.2.3,Win32,60
,,,,,,,,,,,,,,,,,,,,5,0.021000147,5,0.015000105,1,0,1200,559,1,1199,lazy,1116,2019-10-25_13h29.13.176,SurveyExpMetaMem,3.2.3,Win32,60
,,,,,,,,,,,,,,,,,,,,5,0.026000023,5,0.018999815,1,0,1200,8,1,1199,extreme,1116,2019-10-25_13h29.13.176,SurveyExpMetaMem,3.2.3,Win32,60
,,,,,,,,,,,,,,,,,,,,5,0.011999846,5,0.023000002,1,0,1200,922,1,1199,nightmare,1116,2019-10-25_13h29.13.176,SurveyExpMetaMem,3.2.3,Win32,60
,,,,,,,,,,,,,,,,,,,,5,0.019000053,5,0.00999999,1,0,1200,39,1,1199,birth,1116,2019-10-25_13h29.13.176,SurveyExpMetaMem,3.2.3,Win32,60
,,,,,,,,,,,,,,,,,,,,5,0.019000053,5,0.013999939,1,0,1200,17,1,1199,outgoing,1116,2019-10-25_13h29.13.176,SurveyExpMetaMem,3.2.3,Win32,60
,,,,,,,,,,,,,,,,,,,,5,0.023000002,5,0.018000126,1,0,1200,228,1,1199,suite,1116,2019-10-25_13h29.13.176,SurveyExpMetaMem,3.2.3,Win32,60
,,,,,,,,,,,,,,,,,,,,5,0.00999999,5,0.020999908,1,0,1200,856,1,1199,leisurely,1116,2019-10-25_13h29.13.176,SurveyExpMetaMem,3.2.3,Win32,60
,,,,,,,,,,,,,,,,,,,,5,0.015000105,5,0.025000095,1,0,1200,481,1,1199,melancholy,1116,2019-10-25_13h29.13.176,SurveyExpMetaMem,3.2.3,Win32,60
,,,,,,,,,,,,,,,,,,,,5,0.019999981,5,0.011999846,1,0,1200,1070,1,1199,bleed,1116,2019-10-25_13h29.13.176,SurveyExpMetaMem,3.2.3,Win32,60
,,,,,,,,,,,,,,,,,,,,5,0.022999763,5,0.017999887,1,0,1200,851,1,1199,cool,1116,2019-10-25_13h29.13.176,SurveyExpMetaMem,3.2.3,Win32,60
,,,,,,,,,,,,,,,,,,,,5,0.010999918,5,0.019999981,1,0,1200,252,1,1199,infatuated,1116,2019-10-25_13h29.13.176,SurveyExpMetaMem,3.2.3,Win32,60
,,,,,,,,,,,,,,,,,,,,5,0.014000177,5,0.023999929,1,0,1200,74,1,1199,explore,1116,2019-10-25_13h29.13.176,SurveyExpMetaMem,3.2.3,Win32,60
,,,,,,,,,,,,,,,,,,,,5,0.016000032,5,0.012000084,1,0,1200,262,1,1199,athletics,1116,2019-10-25_13h29.13.176,SurveyExpMetaMem,3.2.3,Win32,60
,,,,,,,,,,,,,,,,,,,,5,0.019999981,5,0.014999866,1,0,1200,472,1,1199,bald,1116,2019-10-25_13h29.13.176,SurveyExpMetaMem,3.2.3,Win32,60
,,,,,,,,,,,,,,,,,,,,5,0.024999857,5,0.020999908,1,0,1200,35,1,1199,bright,1116,2019-10-25_13h29.13.176,SurveyExpMetaMem,3.2.3,Win32,60
,,,,,,,,,,,,,,,,,,,,5,0.010999918,5,0.021999836,1,0,1200,835,1,1199,helpful,1116,2019-10-25_13h29.13.176,SurveyExpMetaMem,3.2.3,Win32,60
,,,,,,,,,,,,,,,,,,,,5,0.017999887,5,0.012000084,1,0,1200,1174,1,1199,beast,1116,2019-10-25_13h29.13.176,SurveyExpMetaMem,3.2.3,Win32,60
,,,,,,,,,,,,,,,,,,,,5,0.019999981,5,0.013999939,1,0,1200,888,1,1199,refreshment,1116,2019-10-25_13h29.13.176,SurveyExpMetaMem,3.2.3,Win32,60
,,,,,,,,,,,,,,,,,,,,5,0.026000023,5,0.021999836,1,0,1200,1091,1,1199,cram,1116,2019-10-25_13h29.13.176,SurveyExpMetaMem,3.2.3,Win32,60
,,,,,,,,,,,,,,,,,,,,5,0.013000011,5,0.025000095,1,0,1200,116,1,1199,carnival,1116,2019-10-25_13h29.13.176,SurveyExpMetaMem,3.2.3,Win32,60
,,,,,,,,,,,,,,,,,,,,5,0.019999981,5,0.012999773,1,0,1200,395,1,1199,lack,1116,2019-10-25_13h29.13.176,SurveyExpMetaMem,3.2.3,Win32,60
,,,,,,,,,,,,,,,,,,,,5,0.024000168,5,0.017999887,1,0,1200,1195,1,1199,speech,1116,2019-10-25_13h29.13.176,SurveyExpMetaMem,3.2.3,Win32,60
,,,,,,,,,,,,,,,,,,,,5,0.013000011,5,0.025000095,1,0,1200,245,1,1199,beach,1116,2019-10-25_13h29.13.176,SurveyExpMetaMem,3.2.3,Win32,60
,,,,,,,,,,,,,,,,,,,,5,0.017999887,5,0.026000023,1,0,1200,121,1,1199,self,1116,2019-10-25_13h29.13.176,SurveyExpMetaMem,3.2.3,Win32,60
,,,,,,,,,,,,,,,,,,,,5,0.023999929,5,0.019000053,1,0,1200,1150,1,1199,forceful,1116,2019-10-25_13h29.13.176,SurveyExpMetaMem,3.2.3,Win32,60
,,,,,,,,,,,,,,,,,,,,5,0.011000156,5,0.022000074,1,0,1200,101,1,1199,alien,1116,2019-10-25_13h29.13.176,SurveyExpMetaMem,3.2.3,Win32,60
,,,,,,,,,,,,,,,,,,,,5,0.013000011,5,0.023999929,1,0,1200,728,1,1199,patio,1116,2019-10-25_13h29.13.176,SurveyExpMetaMem,3.2.3,Win32,60
,,,,,,,,,,,,,,,,,,,,5,0.018999815,5,0.012000084,1,0,1200,724,1,1199,owl,1116,2019-10-25_13h29.13.176,SurveyExpMetaMem,3.2.3,Win32,60
,,,,,,,,,,,,,,,,,,,,5,0.023000002,5,0.014999866,1,0,1200,832,1,1199,candy,1116,2019-10-25_13h29.13.176,SurveyExpMetaMem,3.2.3,Win32,60
,,,,,,,,,,,,,,,,,,,,5,0.02699995,5,0.019000053,1,0,1200,711,1,1199,sympathetic,1116,2019-10-25_13h29.13.176,SurveyExpMetaMem,3.2.3,Win32,60
,,,,,,,,,,,,,,,,,,,,5,0.010999918,5,0.023999929,1,0,1200,1040,1,1199,communism,1116,2019-10-25_13h29.13.176,SurveyExpMetaMem,3.2.3,Win32,60
,,,,,,,,,,,,,,,,,,,,5,0.017999887,5,0.00999999,1,0,1200,786,1,1199,afternoon,1116,2019-10-25_13h29.13.176,SurveyExpMetaMem,3.2.3,Win32,60
,,,,,,,,,,,,,,,,,,,,5,0.021999836,5,0.013000011,1,0,1200,1142,1,1199,disturb,1116,2019-10-25_13h29.13.176,SurveyExpMetaMem,3.2.3,Win32,60
,,,,,,,,,,,,,,,,,,,,5,0.023999929,5,0.019000053,1,0,1200,300,1,1199,unhappy,1116,2019-10-25_13h29.13.176,SurveyExpMetaMem,3.2.3,Win32,60
,,,,,,,,,,,,,,,,,,,,5,0.010999918,5,0.023000002,1,0,1200,996,1,1199,sting,1116,2019-10-25_13h29.13.176,SurveyExpMetaMem,3.2.3,Win32,60
,,,,,,,,,,,,,,,,,,,,5,0.013000011,5,0.026000023,1,0,1200,919,1,1199,loss,1116,2019-10-25_13h29.13.176,SurveyExpMetaMem,3.2.3,Win32,60
,,,,,,,,,,,,,,,,,,,,5,0.01699996,5,0.011999846,1,0,1200,212,1,1199,belief,1116,2019-10-25_13h29.13.176,SurveyExpMetaMem,3.2.3,Win32,60
,,,,,,,,,,,,,,,,,,,,5,0.021000147,5,0.016000032,1,0,1200,978,1,1199,starving,1116,2019-10-25_13h29.13.176,SurveyExpMetaMem,3.2.3,Win32,60
,,,,,,,,,,,,,,,,,,,,5,0.026000023,5,0.019000053,1,0,1200,295,1,1199,passion,1116,2019-10-25_13h29.13.176,SurveyExpMetaMem,3.2.3,Win32,60
,,,,,,,,,,,,,,,,,,,,5,0.011999846,5,0.021000147,1,0,1200,161,1,1199,limousine,1116,2019-10-25_13h29.13.176,SurveyExpMetaMem,3.2.3,Win32,60
,,,,,,,,,,,,,,,,,,,,5,0.013999939,5,0.027000189,1,0,1200,141,1,1199,surprise,1116,2019-10-25_13h29.13.176,SurveyExpMetaMem,3.2.3,Win32,60
,,,,,,,,,,,,,,,,,,,,5,0.018000126,5,0.013000011,1,0,1200,225,1,1199,strong,1116,2019-10-25_13h29.13.176,SurveyExpMetaMem,3.2.3,Win32,60
,,,,,,,,,,,,,,,,,,,,5,0.022000074,5,0.019000053,1,0,1200,826,1,1199,poem,1116,2019-10-25_13h29.13.176,SurveyExpMetaMem,3.2.3,Win32,60
,,,,,,,,,,,,,,,,,,,,5,0.00999999,5,0.019000053,1,0,1200,441,1,1199,prohibit,1116,2019-10-25_13h29.13.176,SurveyExpMetaMem,3.2.3,Win32,60
,,,,,,,,,,,,,,,,,,,,5,0.013000011,5,0.023000002,1,0,1200,1093,1,1199,hive,1116,2019-10-25_13h29.13.176,SurveyExpMetaMem,3.2.3,Win32,60
,,,,,,,,,,,,,,,,,,,,5,0.019999981,5,0.00999999,1,0,1200,572,1,1199,cast,1116,2019-10-25_13h29.13.176,SurveyExpMetaMem,3.2.3,Win32,60
,,,,,,,,,,,,,,,,,,,,5,0.022999763,5,0.013999939,1,0,1200,784,1,1199,logical,1116,2019-10-25_13h29.13.176,SurveyExpMetaMem,3.2.3,Win32,60
,,,,,,,,,,,,,,,,,,,,5,0.02699995,5,0.019999981,1,0,1200,230,1,1199,eager,1116,2019-10-25_13h29.13.176,SurveyExpMetaMem,3.2.3,Win32,60
,,,,,,,,,,,,,,,,,,,,5,0.011999846,5,0.02699995,1,0,1200,791,1,1199,shoes,1116,2019-10-25_13h29.13.176,SurveyExpMetaMem,3.2.3,Win32,60
,,,,,,,,,,,,,,,,,,,,5,0.016000032,5,0.013000011,1,0,1200,337,1,1199,stinks,1116,2019-10-25_13h29.13.176,SurveyExpMetaMem,3.2.3,Win32,60
,,,,,,,,,,,,,,,,,,,,5,0.022000074,5,0.015999794,1,0,1200,970,1,1199,worry,1116,2019-10-25_13h29.13.176,SurveyExpMetaMem,3.2.3,Win32,60
,,,,,,,,,,,,,,,,,,,,5,0.023999929,5,0.019999981,1,0,1200,261,1,1199,windsurfers,1116,2019-10-25_13h29.13.176,SurveyExpMetaMem,3.2.3,Win32,60
,,,,,,,,,,,,,,,,,,,,5,0.010999918,5,0.023999929,1,0,1200,136,1,1199,dog,1116,2019-10-25_13h29.13.176,SurveyExpMetaMem,3.2.3,Win32,60
,,,,,,,,,,,,,,,,,,,,5,0.019000053,5,0.00999999,1,0,1200,648,1,1199,beads,1116,2019-10-25_13h29.13.176,SurveyExpMetaMem,3.2.3,Win32,60
,,,,,,,,,,,,,,,,,,,,5,0.020999908,5,0.016000032,1,0,1200,14,1,1199,attain,1116,2019-10-25_13h29.13.176,SurveyExpMetaMem,3.2.3,Win32,60
,,,,,,,,,,,,,,,,,,,,5,0.023999929,5,0.019999981,1,0,1200,860,1,1199,silk,1116,2019-10-25_13h29.13.176,SurveyExpMetaMem,3.2.3,Win32,60
,,,,,,,,,,,,,,,,,,,,5,0.00999999,5,0.021000147,1,0,1200,655,1,1199,name,1116,2019-10-25_13h29.13.176,SurveyExpMetaMem,3.2.3,Win32,60
,,,,,,,,,,,,,,,,,,,,5,0.014999866,5,0.026000023,1,0,1200,353,1,1199,blister,1116,2019-10-25_13h29.13.176,SurveyExpMetaMem,3.2.3,Win32,60
,,,,,,,,,,,,,,,,,,,,5,0.019000053,5,0.012000084,1,0,1200,447,1,1199,dishes,1116,2019-10-25_13h29.13.176,SurveyExpMetaMem,3.2.3,Win32,60
,,,,,,,,,,,,,,,,,,,,5,0.023000002,5,0.01699996,1,0,1200,962,1,1199,poisonous,1116,2019-10-25_13h29.13.176,SurveyExpMetaMem,3.2.3,Win32,60
,,,,,,,,,,,,,,,,,,,,5,0.009000063,5,0.019999981,1,0,1200,1078,1,1199,trouble,1116,2019-10-25_13h29.13.176,SurveyExpMetaMem,3.2.3,Win32,60
,,,,,,,,,,,,,,,,,,,,5,0.013000011,5,0.023999929,1,0,1200,2,1,1199,zealous,1116,2019-10-25_13h29.13.176,SurveyExpMetaMem,3.2.3,Win32,60
,,,,,,,,,,,,,,,,,,,,5,0.019000053,5,0.010999918,1,0,1200,948,1,1199,pain,1116,2019-10-25_13h29.13.176,SurveyExpMetaMem,3.2.3,Win32,60
,,,,,,,,,,,,,,,,,,,,5,0.023000002,5,0.016000032,1,0,1200,931,1,1199,overweight,1116,2019-10-25_13h29.13.176,SurveyExpMetaMem,3.2.3,Win32,60
,,,,,,,,,,,,,,,,,,,,5,0.023999929,5,0.020999908,1,0,1200,420,1,1199,smoke,1116,2019-10-25_13h29.13.176,SurveyExpMetaMem,3.2.3,Win32,60
,,,,,,,,,,,,,,,,,,,,5,0.013000011,5,0.024999857,1,0,1200,462,1,1199,shallow,1116,2019-10-25_13h29.13.176,SurveyExpMetaMem,3.2.3,Win32,60
,,,,,,,,,,,,,,,,,,,,5,0.016000032,5,0.011000156,1,0,1200,249,1,1199,award,1116,2019-10-25_13h29.13.176,SurveyExpMetaMem,3.2.3,Win32,60
,,,,,,,,,,,,,,,,,,,,5,0.023999929,5,0.01699996,1,0,1200,1025,1,1199,deadly,1116,2019-10-25_13h29.13.176,SurveyExpMetaMem,3.2.3,Win32,60
,,,,,,,,,,,,,,,,,,,,5,0.026000023,5,0.022000074,1,0,1200,137,1,1199,money,1116,2019-10-25_13h29.13.176,SurveyExpMetaMem,3.2.3,Win32,60
,,,,,,,,,,,,,,,,,,,,5,0.019999981,5,0.011999846,1,0,1200,1199,1,1199,expensive,1116,2019-10-25_13h29.13.176,SurveyExpMetaMem,3.2.3,Win32,60
,,,,,,,,,,,,,,,,,,,,5,0.022000074,5,0.015000105,1,0,1200,837,1,1199,responsible,1116,2019-10-25_13h29.13.176,SurveyExpMetaMem,3.2.3,Win32,60
,,,,,,,,,,,,,,,,,,,,5,0.025000095,5,0.019000053,1,0,1200,1,1,1199,fuck,1116,2019-10-25_13h29.13.176,SurveyExpMetaMem,3.2.3,Win32,60
,,,,,,,,,,,,,,,,,,,,5,0.012000084,5,0.025000095,1,0,1200,501,1,1199,dustpan,1116,2019-10-25_13h29.13.176,SurveyExpMetaMem,3.2.3,Win32,60
,,,,,,,,,,,,,,,,,,,,5,0.01699996,5,0.013000011,1,0,1200,85,1,1199,like,1116,2019-10-25_13h29.13.176,SurveyExpMetaMem,3.2.3,Win32,60
,,,,,,,,,,,,,,,,,,,,5,0.024999857,5,0.019000053,1,0,1200,768,1,1199,trait,1116,2019-10-25_13h29.13.176,SurveyExpMetaMem,3.2.3,Win32,60
,,,,,,,,,,,,,,,,,,,,5,0.013999939,5,0.045999765,1,0,1200,1037,1,1199,scared,1116,2019-10-25_13h29.13.176,SurveyExpMetaMem,3.2.3,Win32,60
,,,,,,,,,,,,,,,,,,,,5,0.003999949,5,0.00999999,1,0,1200,352,1,1199,negligent,1116,2019-10-25_13h29.13.176,SurveyExpMetaMem,3.2.3,Win32,60
,,,,,,,,,,,,,,,,,,,,5,0.021000147,5,0.019000053,1,0,1200,105,1,1199,curious,1116,2019-10-25_13h29.13.176,SurveyExpMetaMem,3.2.3,Win32,60
,,,,,,,,,,,,,,,,,,,,5,0.008000135,5,0.019999981,1,0,1200,511,1,1199,slouch,1116,2019-10-25_13h29.13.176,SurveyExpMetaMem,3.2.3,Win32,60
,,,,,,,,,,,,,,,,,,,,5,0.015000105,5,0.024999857,1,0,1200,1010,1,1199,arson,1116,2019-10-25_13h29.13.176,SurveyExpMetaMem,3.2.3,Win32,60
,,,,,,,,,,,,,,,,,,,,5,0.017999887,5,0.012000084,1,0,1200,794,1,1199,pray,1116,2019-10-25_13h29.13.176,SurveyExpMetaMem,3.2.3,Win32,60
,,,,,,,,,,,,,,,,,,,,5,0.023000002,5,0.019999981,1,0,1200,226,1,1199,prize,1116,2019-10-25_13h29.13.176,SurveyExpMetaMem,3.2.3,Win32,60
,,,,,,,,,,,,,,,,,,,,5,0.010999918,5,0.023000002,1,0,1200,1028,1,1199,terror,1116,2019-10-25_13h29.13.176,SurveyExpMetaMem,3.2.3,Win32,60
,,,,,,,,,,,,,,,,,,,,5,0.01699996,5,0.010999918,1,0,1200,929,1,1199,mutilation,1116,2019-10-25_13h29.13.176,SurveyExpMetaMem,3.2.3,Win32,60
,,,,,,,,,,,,,,,,,,,,5,0.019000053,5,0.013999939,1,0,1200,861,1,1199,nectar,1116,2019-10-25_13h29.13.176,SurveyExpMetaMem,3.2.3,Win32,60
,,,,,,,,,,,,,,,,,,,,5,0.023000002,5,0.019999981,1,0,1200,110,1,1199,animal,1116,2019-10-25_13h29.13.176,SurveyExpMetaMem,3.2.3,Win32,60
,,,,,,,,,,,,,,,,,,,,5,0.00999999,5,0.019999981,1,0,1200,1003,1,1199,jealousy,1116,2019-10-25_13h29.13.176,SurveyExpMetaMem,3.2.3,Win32,60
,,,,,,,,,,,,,,,,,,,,5,0.015000105,5,0.023999929,1,0,1200,563,1,1199,stupor,1116,2019-10-25_13h29.13.176,SurveyExpMetaMem,3.2.3,Win32,60
,,,,,,,,,,,,,,,,,,,,5,0.019000053,5,0.012000084,1,0,1200,203,1,1199,seal,1116,2019-10-25_13h29.13.176,SurveyExpMetaMem,3.2.3,Win32,60
,,,,,,,,,,,,,,,,,,,,5,0.020999908,5,0.019000053,1,0,1200,1097,1,1199,bees,1116,2019-10-25_13h29.13.176,SurveyExpMetaMem,3.2.3,Win32,60
,,,,,,,,,,,,,,,,,,,,5,0.007000208,5,0.019000053,1,0,1200,928,1,1199,cruel,1116,2019-10-25_13h29.13.176,SurveyExpMetaMem,3.2.3,Win32,60
,,,,,,,,,,,,,,,,,,,,5,0.011999846,5,0.023000002,1,0,1200,284,1,1199,delight,1116,2019-10-25_13h29.13.176,SurveyExpMetaMem,3.2.3,Win32,60
,,,,,,,,,,,,,,,,,,,,5,0.015999794,5,0.023999929,1,0,1200,218,1,1199,charming,1116,2019-10-25_13h29.13.176,SurveyExpMetaMem,3.2.3,Win32,60
,,,,,,,,,,,,,,,,,,,,5,0.019999981,5,0.013000011,1,0,1200,167,1,1199,casino,1116,2019-10-25_13h29.13.176,SurveyExpMetaMem,3.2.3,Win32,60
,,,,,,,,,,,,,,,,,,,,5,0.023000002,5,0.019000053,1,0,1200,760,1,1199,shrimp,1116,2019-10-25_13h29.13.176,SurveyExpMetaMem,3.2.3,Win32,60
,,,,,,,,,,,,,,,,,,,,5,0.00999999,5,0.020000219,1,0,1200,1110,1,1199,bastard,1116,2019-10-25_13h29.13.176,SurveyExpMetaMem,3.2.3,Win32,60
,,,,,,,,,,,,,,,,,,,,5,0.014000177,5,0.024000168,1,0,1200,222,1,1199,waterskiing,1116,2019-10-25_13h29.13.176,SurveyExpMetaMem,3.2.3,Win32,60
,,,,,,,,,,,,,,,,,,,,5,0.01699996,5,0.00999999,1,0,1200,128,1,1199,supper,1116,2019-10-25_13h29.13.176,SurveyExpMetaMem,3.2.3,Win32,60
,,,,,,,,,,,,,,,,,,,,5,0.020999908,5,0.015000105,1,0,1200,885,1,1199,cozy,1116,2019-10-25_13h29.13.176,SurveyExpMetaMem,3.2.3,Win32,60
,,,,,,,,,,,,,,,,,,,,5,0.024000168,5,0.019999981,1,0,1200,877,1,1199,bless,1116,2019-10-25_13h29.13.176,SurveyExpMetaMem,3.2.3,Win32,60
,,,,,,,,,,,,,,,,,,,,5,0.00999999,5,0.022000074,1,0,1200,97,1,1199,enthusiastic,1116,2019-10-25_13h29.13.176,SurveyExpMetaMem,3.2.3,Win32,60
,,,,,,,,,,,,,,,,,,,,5,0.016000032,5,0.020999908,1,0,1200,659,1,1199,hair,1116,2019-10-25_13h29.13.176,SurveyExpMetaMem,3.2.3,Win32,60
,,,,,,,,,,,,,,,,,,,,5,0.019000053,5,0.013000011,1,0,1200,1023,1,1199,disorder,1116,2019-10-25_13h29.13.176,SurveyExpMetaMem,3.2.3,Win32,60
,,,,,,,,,,,,,,,,,,,,5,0.022000074,5,0.019000053,1,0,1200,154,1,1199,race,1116,2019-10-25_13h29.13.176,SurveyExpMetaMem,3.2.3,Win32,60
,,,,,,,,,,,,,,,,,,,,5,0.008000135,5,0.019000053,1,0,1200,844,1,1199,soul,1116,2019-10-25_13h29.13.176,SurveyExpMetaMem,3.2.3,Win32,60
,,,,,,,,,,,,,,,,,,,,5,0.012000084,5,0.023000002,1,0,1200,42,1,1199,accomplish,1116,2019-10-25_13h29.13.176,SurveyExpMetaMem,3.2.3,Win32,60
,,,,,,,,,,,,,,,,,,,,5,0.018999815,5,0.010999918,1,0,1200,1155,1,1199,tangle,1116,2019-10-25_13h29.13.176,SurveyExpMetaMem,3.2.3,Win32,60
,,,,,,,,,,,,,,,,,,,,5,0.020999908,5,0.014999866,1,0,1200,1196,1,1199,breathless,1116,2019-10-25_13h29.13.176,SurveyExpMetaMem,3.2.3,Win32,60
,,,,,,,,,,,,,,,,,,,,5,0.026000023,5,0.019999981,1,0,1200,792,1,1199,moral,1116,2019-10-25_13h29.13.176,SurveyExpMetaMem,3.2.3,Win32,60
,,,,,,,,,,,,,,,,,,,,5,0.00999999,5,0.023000002,1,0,1200,108,1,1199,naked,1116,2019-10-25_13h29.13.176,SurveyExpMetaMem,3.2.3,Win32,60
,,,,,,,,,,,,,,,,,,,,5,0.019000053,5,0.009000063,1,0,1200,304,1,1199,depression,1116,2019-10-25_13h29.13.176,SurveyExpMetaMem,3.2.3,Win32,60
,,,,,,,,,,,,,,,,,,,,5,0.019000053,5,0.012000084,1,0,1200,195,1,1199,laughing,1116,2019-10-25_13h29.13.176,SurveyExpMetaMem,3.2.3,Win32,60
,,,,,,,,,,,,,,,,,,,,5,0.022000074,5,0.018999815,1,0,1200,124,1,1199,honeymoon,1116,2019-10-25_13h29.13.176,SurveyExpMetaMem,3.2.3,Win32,60
,,,,,,,,,,,,,,,,,,,,5,0.009000063,5,0.023000002,1,0,1200,265,1,1199,invent,1116,2019-10-25_13h29.13.176,SurveyExpMetaMem,3.2.3,Win32,60
,,,,,,,,,,,,,,,,,,,,5,0.018000126,5,0.00999999,1,0,1200,752,1,1199,milk,1116,2019-10-25_13h29.13.176,SurveyExpMetaMem,3.2.3,Win32,60
,,,,,,,,,,,,,,,,,,,,5,0.019000053,5,0.009000063,1,0,1200,872,1,1199,dignified,1116,2019-10-25_13h29.13.176,SurveyExpMetaMem,3.2.3,Win32,60
,,,,,,,,,,,,,,,,,,,,5,0.019000053,5,0.014999866,1,0,1200,505,1,1199,exhaust,1116,2019-10-25_13h29.13.176,SurveyExpMetaMem,3.2.3,Win32,60
,,,,,,,,,,,,,,,,,,,,5,0.023999929,5,0.019000053,1,0,1200,479,1,1199,period,1116,2019-10-25_13h29.13.176,SurveyExpMetaMem,3.2.3,Win32,60
,,,,,,,,,,,,,,,,,,,,5,0.00999999,5,0.020999908,1,0,1200,184,1,1199,surprised,1116,2019-10-25_13h29.13.176,SurveyExpMetaMem,3.2.3,Win32,60
,,,,,,,,,,,,,,,,,,,,5,0.01699996,5,0.006999969,1,0,1200,155,1,1199,ignite,1116,2019-10-25_13h29.13.176,SurveyExpMetaMem,3.2.3,Win32,60
,,,,,,,,,,,,,,,,,,,,5,0.019000053,5,0.010999918,1,0,1200,986,1,1199,mad,1116,2019-10-25_13h29.13.176,SurveyExpMetaMem,3.2.3,Win32,60
,,,,,,,,,,,,,,,,,,,,5,0.020999908,5,0.019999981,1,0,1200,713,1,1199,mobile,1116,2019-10-25_13h29.13.176,SurveyExpMetaMem,3.2.3,Win32,60
,,,,,,,,,,,,,,,,,,,,5,0.008000135,5,0.019999981,1,0,1200,416,1,1199,boring,1116,2019-10-25_13h29.13.176,SurveyExpMetaMem,3.2.3,Win32,60
,,,,,,,,,,,,,,,,,,,,5,0.014000177,5,0.025000095,1,0,1200,839,1,1199,flower,1116,2019-10-25_13h29.13.176,SurveyExpMetaMem,3.2.3,Win32,60
,,,,,,,,,,,,,,,,,,,,5,0.019999981,5,0.013999939,1,0,1200,944,1,1199,kill,1116,2019-10-25_13h29.13.176,SurveyExpMetaMem,3.2.3,Win32,60
,,,,,,,,,,,,,,,,,,,,5,0.023000002,5,0.018999815,1,0,1200,1134,1,1199,obsessed,1116,2019-10-25_13h29.13.176,SurveyExpMetaMem,3.2.3,Win32,60
,,,,,,,,,,,,,,,,,,,,5,0.012000084,5,0.023000002,1,0,1200,1043,1,1199,scold,1116,2019-10-25_13h29.13.176,SurveyExpMetaMem,3.2.3,Win32,60
,,,,,,,,,,,,,,,,,,,,5,0.019000053,5,0.012000084,1,0,1200,370,1,1199,rodent,1116,2019-10-25_13h29.13.176,SurveyExpMetaMem,3.2.3,Win32,60
,,,,,,,,,,,,,,,,,,,,5,0.022000074,5,0.01699996,1,0,1200,725,1,1199,checkerboard,1116,2019-10-25_13h29.13.176,SurveyExpMetaMem,3.2.3,Win32,60
,,,,,,,,,,,,,,,,,,,,5,0.023999929,5,0.019999981,1,0,1200,363,1,1199,dumb,1116,2019-10-25_13h29.13.176,SurveyExpMetaMem,3.2.3,Win32,60
,,,,,,,,,,,,,,,,,,,,5,0.013000011,5,0.023000002,1,0,1200,531,1,1199,omit,1116,2019-10-25_13h29.13.176,SurveyExpMetaMem,3.2.3,Win32,60
,,,,,,,,,,,,,,,,,,,,5,0.019000053,5,0.00999999,1,0,1200,313,1,1199,rotten,1116,2019-10-25_13h29.13.176,SurveyExpMetaMem,3.2.3,Win32,60
,,,,,,,,,,,,,,,,,,,,5,0.020999908,5,0.019000053,1,0,1200,1042,1,1199,brutal,1116,2019-10-25_13h29.13.176,SurveyExpMetaMem,3.2.3,Win32,60
,,,,,,,,,,,,,,,,,,,,5,0.009000063,5,0.019000053,1,0,1200,293,1,1199,succeed,1116,2019-10-25_13h29.13.176,SurveyExpMetaMem,3.2.3,Win32,60
,,,,,,,,,,,,,,,,,,,,5,0.013000011,5,0.023000002,1,0,1200,371,1,1199,weakness,1116,2019-10-25_13h29.13.176,SurveyExpMetaMem,3.2.3,Win32,60
,,,,,,,,,,,,,,,,,,,,5,0.018999815,5,0.010999918,1,0,1200,457,1,1199,confuse,1116,2019-10-25_13h29.13.176,SurveyExpMetaMem,3.2.3,Win32,60
,,,,,,,,,,,,,,,,,,,,5,0.019000053,5,0.013999939,1,0,1200,911,1,1199,rejection,1116,2019-10-25_13h29.13.176,SurveyExpMetaMem,3.2.3,Win32,60
,,,,,,,,,,,,,,,,,,,,5,0.023999929,5,0.019999981,1,0,1200,335,1,1199,decay,1116,2019-10-25_13h29.13.176,SurveyExpMetaMem,3.2.3,Win32,60
,,,,,,,,,,,,,,,,,,,,5,0.010999918,5,0.019999981,1,0,1200,299,1,1199,champion,1116,2019-10-25_13h29.13.176,SurveyExpMetaMem,3.2.3,Win32,60
,,,,,,,,,,,,,,,,,,,,5,0.014999866,5,0.023999929,1,0,1200,425,1,1199,crutch,1116,2019-10-25_13h29.13.176,SurveyExpMetaMem,3.2.3,Win32,60
,,,,,,,,,,,,,,,,,,,,5,0.017000198,5,0.012000084,1,0,1200,342,1,1199,alienation,1116,2019-10-25_13h29.13.176,SurveyExpMetaMem,3.2.3,Win32,60
,,,,,,,,,,,,,,,,,,,,5,0.021000147,5,0.018000126,1,0,1200,935,1,1199,despise,1116,2019-10-25_13h29.13.176,SurveyExpMetaMem,3.2.3,Win32,60
,,,,,,,,,,,,,,,,,,,,5,0.006999969,5,0.019999981,1,0,1200,614,1,1199,crossword,1116,2019-10-25_13h29.13.176,SurveyExpMetaMem,3.2.3,Win32,60
,,,,,,,,,,,,,,,,,,,,5,0.013000011,5,0.024000168,1,0,1200,1127,1,1199,spank,1116,2019-10-25_13h29.13.176,SurveyExpMetaMem,3.2.3,Win32,60
,,,,,,,,,,,,,,,,,,,,5,0.017999887,5,0.010999918,1,0,1200,1004,1,1199,burglar,1116,2019-10-25_13h29.13.176,SurveyExpMetaMem,3.2.3,Win32,60
,,,,,,,,,,,,,,,,,,,,5,0.021000147,5,0.019000053,1,0,1200,654,1,1199,brief,1116,2019-10-25_13h29.13.176,SurveyExpMetaMem,3.2.3,Win32,60
,,,,,,,,,,,,,,,,,,,,5,0.00999999,5,0.021000147,1,0,1200,306,1,1199,gloom,1116,2019-10-25_13h29.13.176,SurveyExpMetaMem,3.2.3,Win32,60
,,,,,,,,,,,,,,,,,,,,5,0.015000105,5,0.026000023,1,0,1200,314,1,1199,hopeless,1116,2019-10-25_13h29.13.176,SurveyExpMetaMem,3.2.3,Win32,60
,,,,,,,,,,,,,,,,,,,,5,0.019999981,5,0.016000032,1,0,1200,636,1,1199,refine,1116,2019-10-25_13h29.13.176,SurveyExpMetaMem,3.2.3,Win32,60
,,,,,,,,,,,,,,,,,,,,5,0.023000002,5,0.019000053,1,0,1200,527,1,1199,passive,1116,2019-10-25_13h29.13.176,SurveyExpMetaMem,3.2.3,Win32,60
,,,,,,,,,,,,,,,,,,,,5,0.013000011,5,0.024999857,1,0,1200,168,1,1199,mate,1116,2019-10-25_13h29.13.176,SurveyExpMetaMem,3.2.3,Win32,60
,,,,,,,,,,,,,,,,,,,,5,0.023999929,5,0.019999981,1,0,1200,1046,1,1199,unsafe,1116,2019-10-25_13h29.13.176,SurveyExpMetaMem,3.2.3,Win32,60
,,,,,,,,,,,,,,,,,,,,5,0.023000002,5,0.01699996,1,0,1200,666,1,1199,verify,1116,2019-10-25_13h29.13.176,SurveyExpMetaMem,3.2.3,Win32,60
,,,,,,,,,,,,,,,,,,,,5,0.00999999,5,0.021999836,1,0,1200,809,1,1199,boy,1116,2019-10-25_13h29.13.176,SurveyExpMetaMem,3.2.3,Win32,60
,,,,,,,,,,,,,,,,,,,,5,0.019000053,5,0.010999918,1,0,1200,172,1,1199,potential,1116,2019-10-25_13h29.13.176,SurveyExpMetaMem,3.2.3,Win32,60
,,,,,,,,,,,,,,,,,,,,5,0.019999981,5,0.018000126,1,0,1200,53,1,1199,lotion,1116,2019-10-25_13h29.13.176,SurveyExpMetaMem,3.2.3,Win32,60
,,,,,,,,,,,,,,,,,,,,5,0.009000063,5,0.020999908,1,0,1200,979,1,1199,harassment,1116,2019-10-25_13h29.13.176,SurveyExpMetaMem,3.2.3,Win32,60
,,,,,,,,,,,,,,,,,,,,5,0.01699996,5,0.006999969,1,0,1200,594,1,1199,moss,1116,2019-10-25_13h29.13.176,SurveyExpMetaMem,3.2.3,Win32,60
,,,,,,,,,,,,,,,,,,,,5,0.019999981,5,0.013000011,1,0,1200,92,1,1199,justice,1116,2019-10-25_13h29.13.176,SurveyExpMetaMem,3.2.3,Win32,60
,,,,,,,,,,,,,,,,,,,,5,0.023999929,5,0.019000053,1,0,1200,769,1,1199,relate,1116,2019-10-25_13h29.13.176,SurveyExpMetaMem,3.2.3,Win32,60
,,,,,,,,,,,,,,,,,,,,5,0.012000084,5,0.024000168,1,0,1200,488,1,1199,rusty,1116,2019-10-25_13h29.13.176,SurveyExpMetaMem,3.2.3,Win32,60
,,,,,,,,,,,,,,,,,,,,5,0.017999887,5,0.012000084,1,0,1200,542,1,1199,loose,1116,2019-10-25_13h29.13.176,SurveyExpMetaMem,3.2.3,Win32,60
,,,,,,,,,,,,,,,,,,,,5,0.022000074,5,0.019999981,1,0,1200,345,1,1199,unfortunate,1116,2019-10-25_13h29.13.176,SurveyExpMetaMem,3.2.3,Win32,60
,,,,,,,,,,,,,,,,,,,,5,0.00999999,5,0.021999836,1,0,1200,84,1,1199,eat,1116,2019-10-25_13h29.13.176,SurveyExpMetaMem,3.2.3,Win32,60
,,,,,,,,,,,,,,,,,,,,5,0.018000126,5,0.009000063,1,0,1200,656,1,1199,number,1116,2019-10-25_13h29.13.176,SurveyExpMetaMem,3.2.3,Win32,60
,,,,,,,,,,,,,,,,,,,,5,0.020999908,5,0.016000032,1,0,1200,1082,1,1199,hazard,1116,2019-10-25_13h29.13.176,SurveyExpMetaMem,3.2.3,Win32,60
,,,,,,,,,,,,,,,,,,,,5,0.022999763,5,0.019999981,1,0,1200,694,1,1199,pecan,1116,2019-10-25_13h29.13.176,SurveyExpMetaMem,3.2.3,Win32,60
,,,,,,,,,,,,,,,,,,,,5,0.00999999,5,0.023000002,1,0,1200,217,1,1199,bravery,1116,2019-10-25_13h29.13.176,SurveyExpMetaMem,3.2.3,Win32,60
,,,,,,,,,,,,,,,,,,,,5,0.019000053,5,0.009000063,1,0,1200,449,1,1199,egotistical,1116,2019-10-25_13h29.13.176,SurveyExpMetaMem,3.2.3,Win32,60
,,,,,,,,,,,,,,,,,,,,5,0.019000053,5,0.013999939,1,0,1200,13,1,1199,mingle,1116,2019-10-25_13h29.13.176,SurveyExpMetaMem,3.2.3,Win32,60
,,,,,,,,,,,,,,,,,,,,5,0.023000002,5,0.019000053,1,0,1200,180,1,1199,embrace,1116,2019-10-25_13h29.13.176,SurveyExpMetaMem,3.2.3,Win32,60
,,,,,,,,,,,,,,,,,,,,5,0.010999918,5,0.022000074,1,0,1200,812,1,1199,harp,1116,2019-10-25_13h29.13.176,SurveyExpMetaMem,3.2.3,Win32,60
,,,,,,,,,,,,,,,,,,,,5,0.019000053,5,0.009000063,1,0,1200,1163,1,1199,python,1116,2019-10-25_13h29.13.176,SurveyExpMetaMem,3.2.3,Win32,60
,,,,,,,,,,,,,,,,,,,,5,0.020999908,5,0.019000053,1,0,1200,1088,1,1199,forbid,1116,2019-10-25_13h29.13.176,SurveyExpMetaMem,3.2.3,Win32,60
,,,,,,,,,,,,,,,,,,,,5,0.006999969,5,0.020999908,1,0,1200,836,1,1199,lounge,1116,2019-10-25_13h29.13.176,SurveyExpMetaMem,3.2.3,Win32,60
,,,,,,,,,,,,,,,,,,,,5,0.013999939,5,0.024000168,1,0,1200,917,1,1199,slave,1116,2019-10-25_13h29.13.176,SurveyExpMetaMem,3.2.3,Win32,60
,,,,,,,,,,,,,,,,,,,,5,0.019000053,5,0.013000011,1,0,1200,524,1,1199,sigh,1116,2019-10-25_13h29.13.176,SurveyExpMetaMem,3.2.3,Win32,60
,,,,,,,,,,,,,,,,,,,,5,0.023000002,5,0.017999887,1,0,1200,19,1,1199,firefighter,1116,2019-10-25_13h29.13.176,SurveyExpMetaMem,3.2.3,Win32,60
,,,,,,,,,,,,,,,,,,,,5,0.00999999,5,0.022000074,1,0,1200,1126,1,1199,offensive,1116,2019-10-25_13h29.13.176,SurveyExpMetaMem,3.2.3,Win32,60
,,,,,,,,,,,,,,,,,,,,5,0.016000032,5,0.026000023,1,0,1200,324,1,1199,inferiority,1116,2019-10-25_13h29.13.176,SurveyExpMetaMem,3.2.3,Win32,60
,,,,,,,,,,,,,,,,,,,,5,0.021000147,5,0.016000032,1,0,1200,780,1,1199,grass,1116,2019-10-25_13h29.13.176,SurveyExpMetaMem,3.2.3,Win32,60
,,,,,,,,,,,,,,,,,,,,5,0.024999857,5,0.019000053,1,0,1200,600,1,1199,parlor,1116,2019-10-25_13h29.13.176,SurveyExpMetaMem,3.2.3,Win32,60
,,,,,,,,,,,,,,,,,,,,5,0.016000032,5,0.020999908,1,0,1200,325,1,1199,disability,1116,2019-10-25_13h29.13.176,SurveyExpMetaMem,3.2.3,Win32,60
,,,,,,,,,,,,,,,,,,,,5,0.019000053,5,0.012000084,1,0,1200,362,1,1199,despair,1116,2019-10-25_13h29.13.176,SurveyExpMetaMem,3.2.3,Win32,60
,,,,,,,,,,,,,,,,,,,,5,0.023000002,5,0.019999981,1,0,1200,179,1,1199,star,1116,2019-10-25_13h29.13.176,SurveyExpMetaMem,3.2.3,Win32,60
,,,,,,,,,,,,,,,,,,,,5,0.00999999,5,0.023000002,1,0,1200,1081,1,1199,damage,1116,2019-10-25_13h29.13.176,SurveyExpMetaMem,3.2.3,Win32,60
,,,,,,,,,,,,,,,,,,,,5,0.019000053,5,0.010999918,1,0,1200,703,1,1199,book,1116,2019-10-25_13h29.13.176,SurveyExpMetaMem,3.2.3,Win32,60
,,,,,,,,,,,,,,,,,,,,5,0.020999908,5,0.019000053,1,0,1200,26,1,1199,inspired,1116,2019-10-25_13h29.13.176,SurveyExpMetaMem,3.2.3,Win32,60
,,,,,,,,,,,,,,,,,,,,5,0.009000063,5,0.019999981,1,0,1200,776,1,1199,doll,1116,2019-10-25_13h29.13.176,SurveyExpMetaMem,3.2.3,Win32,60
,,,,,,,,,,,,,,,,,,,,5,0.014999866,5,0.023000002,1,0,1200,945,1,1199,demon,1116,2019-10-25_13h29.13.176,SurveyExpMetaMem,3.2.3,Win32,60
,,,,,,,,,,,,,,,,,,,,5,0.019999981,5,0.013000011,1,0,1200,302,1,1199,loneliness,1116,2019-10-25_13h29.13.176,SurveyExpMetaMem,3.2.3,Win32,60
,,,,,,,,,,,,,,,,,,,,5,0.023999929,5,0.019000053,1,0,1200,583,1,1199,obey,1116,2019-10-25_13h29.13.176,SurveyExpMetaMem,3.2.3,Win32,60
,,,,,,,,,,,,,,,,,,,,5,0.011999846,5,0.022000074,1,0,1200,518,1,1199,report,1116,2019-10-25_13h29.13.176,SurveyExpMetaMem,3.2.3,Win32,60
,,,,,,,,,,,,,,,,,,,,5,0.016000032,5,0.026000023,1,0,1200,677,1,1199,handwriting,1116,2019-10-25_13h29.13.176,SurveyExpMetaMem,3.2.3,Win32,60
,,,,,,,,,,,,,,,,,,,,5,0.017999887,5,0.013999939,1,0,1200,1149,1,1199,fight,1116,2019-10-25_13h29.13.176,SurveyExpMetaMem,3.2.3,Win32,60
,,,,,,,,,,,,,,,,,,,,5,0.023000002,5,0.019000053,1,0,1200,629,1,1199,barn,1116,2019-10-25_13h29.13.176,SurveyExpMetaMem,3.2.3,Win32,60
,,,,,,,,,,,,,,,,,,,,5,0.009000063,5,0.020999908,1,0,1200,439,1,1199,spit,1116,2019-10-25_13h29.13.176,SurveyExpMetaMem,3.2.3,Win32,60
,,,,,,,,,,,,,,,,,,,,5,0.013999939,5,0.026000023,1,0,1200,577,1,1199,retreat,1116,2019-10-25_13h29.13.176,SurveyExpMetaMem,3.2.3,Win32,60
,,,,,,,,,,,,,,,,,,,,5,0.019000053,5,0.011999846,1,0,1200,561,1,1199,plain,1116,2019-10-25_13h29.13.176,SurveyExpMetaMem,3.2.3,Win32,60
,,,,,,,,,,,,,,,,,,,,5,0.022000074,5,0.020000219,1,0,1200,695,1,1199,teacher,1116,2019-10-25_13h29.13.176,SurveyExpMetaMem,3.2.3,Win32,60
,,,,,,,,,,,,,,,,,,,,5,0.009000063,5,0.019000053,1,0,1200,719,1,1199,western,1116,2019-10-25_13h29.13.176,SurveyExpMetaMem,3.2.3,Win32,60
,,,,,,,,,,,,,,,,,,,,5,0.013000011,5,0.025000095,1,0,1200,285,1,1199,gold,1116,2019-10-25_13h29.13.176,SurveyExpMetaMem,3.2.3,Win32,60
,,,,,,,,,,,,,,,,,,,,5,0.018000126,5,0.009000063,1,0,1200,783,1,1199,sprinkle,1116,2019-10-25_13h29.13.176,SurveyExpMetaMem,3.2.3,Win32,60
,,,,,,,,,,,,,,,,,,,,5,0.018999815,5,0.015000105,1,0,1200,807,1,1199,person,1116,2019-10-25_13h29.13.176,SurveyExpMetaMem,3.2.3,Win32,60
,,,,,,,,,,,,,,,,,,,,5,0.023000002,5,0.021000147,1,0,1200,1087,1,1199,affair,1116,2019-10-25_13h29.13.176,SurveyExpMetaMem,3.2.3,Win32,60
,,,,,,,,,,,,,,,,,,,,5,0.010999918,5,0.020999908,1,0,1200,510,1,1199,excuse,1116,2019-10-25_13h29.13.176,SurveyExpMetaMem,3.2.3,Win32,60
,,,,,,,,,,,,,,,,,,,,5,0.019999981,5,0.011000156,1,0,1200,40,1,1199,kissing,1116,2019-10-25_13h29.13.176,SurveyExpMetaMem,3.2.3,Win32,60
,,,,,,,,,,,,,,,,,,,,5,0.019000053,5,0.011000156,1,0,1200,552,1,1199,shadow,1116,2019-10-25_13h29.13.176,SurveyExpMetaMem,3.2.3,Win32,60
,,,,,,,,,,,,,,,,,,,,5,0.020999908,5,0.019999981,1,0,1200,558,1,1199,punk,1116,2019-10-25_13h29.13.176,SurveyExpMetaMem,3.2.3,Win32,60
,,,,,,,,,,,,,,,,,,,,5,0.006999969,5,0.020999908,1,0,1200,237,1,1199,beautiful,1116,2019-10-25_13h29.13.176,SurveyExpMetaMem,3.2.3,Win32,60
,,,,,,,,,,,,,,,,,,,,5,0.013999939,5,0.024999857,1,0,1200,214,1,1199,revive,1116,2019-10-25_13h29.13.176,SurveyExpMetaMem,3.2.3,Win32,60
,,,,,,,,,,,,,,,,,,,,5,0.019000053,5,0.012000084,1,0,1200,942,1,1199,aggravation,1116,2019-10-25_13h29.13.176,SurveyExpMetaMem,3.2.3,Win32,60
,,,,,,,,,,,,,,,,,,,,5,0.023999929,5,0.017999887,1,0,1200,1175,1,1199,prostitute,1116,2019-10-25_13h29.13.176,SurveyExpMetaMem,3.2.3,Win32,60
,,,,,,,,,,,,,,,,,,,,5,0.010999918,5,0.024000168,1,0,1200,46,1,1199,god,1116,2019-10-25_13h29.13.176,SurveyExpMetaMem,3.2.3,Win32,60
,,,,,,,,,,,,,,,,,,,,5,0.017999887,5,0.012000084,1,0,1200,142,1,1199,christmas,1116,2019-10-25_13h29.13.176,SurveyExpMetaMem,3.2.3,Win32,60
,,,,,,,,,,,,,,,,,,,,5,0.021999836,5,0.018999815,1,0,1200,467,1,1199,FALSE,1116,2019-10-25_13h29.13.176,SurveyExpMetaMem,3.2.3,Win32,60
,,,,,,,,,,,,,,,,,,,,5,0.009000063,5,0.022000074,1,0,1200,829,1,1199,innocent,1116,2019-10-25_13h29.13.176,SurveyExpMetaMem,3.2.3,Win32,60
,,,,,,,,,,,,,,,,,,,,5,0.01699996,5,0.008999825,1,0,1200,166,1,1199,unite,1116,2019-10-25_13h29.13.176,SurveyExpMetaMem,3.2.3,Win32,60
,,,,,,,,,,,,,,,,,,,,5,0.021000147,5,0.013999939,1,0,1200,748,1,1199,town,1116,2019-10-25_13h29.13.176,SurveyExpMetaMem,3.2.3,Win32,60
,,,,,,,,,,,,,,,,,,,,5,0.024999857,5,0.018999815,1,0,1200,76,1,1199,midnight,1116,2019-10-25_13h29.13.176,SurveyExpMetaMem,3.2.3,Win32,60
,,,,,,,,,,,,,,,,,,,,5,0.012000084,5,0.022000074,1,0,1200,351,1,1199,germs,1116,2019-10-25_13h29.13.176,SurveyExpMetaMem,3.2.3,Win32,60
,,,,,,,,,,,,,,,,,,,,5,0.018000126,5,0.007999897,1,0,1200,907,1,1199,terrorist,1116,2019-10-25_13h29.13.176,SurveyExpMetaMem,3.2.3,Win32,60
,,,,,,,,,,,,,,,,,,,,5,0.019000053,5,0.011999846,1,0,1200,32,1,1199,festival,1116,2019-10-25_13h29.13.176,SurveyExpMetaMem,3.2.3,Win32,60
,,,,,,,,,,,,,,,,,,,,5,0.020999908,5,0.018999815,1,0,1200,209,1,1199,husband,1116,2019-10-25_13h29.13.176,SurveyExpMetaMem,3.2.3,Win32,60
,,,,,,,,,,,,,,,,,,,,5,0.007999897,5,0.019999981,1,0,1200,682,1,1199,camel,1116,2019-10-25_13h29.13.176,SurveyExpMetaMem,3.2.3,Win32,60
,,,,,,,,,,,,,,,,,,,,5,0.013999939,5,0.023999929,1,0,1200,131,1,1199,treat,1116,2019-10-25_13h29.13.176,SurveyExpMetaMem,3.2.3,Win32,60
,,,,,,,,,,,,,,,,,,,,5,0.019999981,5,0.010999918,1,0,1200,995,1,1199,cult,1116,2019-10-25_13h29.13.176,SurveyExpMetaMem,3.2.3,Win32,60
,,,,,,,,,,,,,,,,,,,,5,0.024000168,5,0.019000053,1,0,1200,317,1,1199,cry,1116,2019-10-25_13h29.13.176,SurveyExpMetaMem,3.2.3,Win32,60
,,,,,,,,,,,,,,,,,,,,5,0.010999918,5,0.022000074,1,0,1200,967,1,1199,horrible,1116,2019-10-25_13h29.13.176,SurveyExpMetaMem,3.2.3,Win32,60
,,,,,,,,,,,,,,,,,,,,5,0.019000053,5,0.006999969,1,0,1200,824,1,1199,favor,1116,2019-10-25_13h29.13.176,SurveyExpMetaMem,3.2.3,Win32,60
,,,,,,,,,,,,,,,,,,,,5,0.019000053,5,0.013000011,1,0,1200,1051,1,1199,insane,1116,2019-10-25_13h29.13.176,SurveyExpMetaMem,3.2.3,Win32,60
,,,,,,,,,,,,,,,,,,,,5,0.022000074,5,0.019999981,1,0,1200,930,1,1199,poison,1116,2019-10-25_13h29.13.176,SurveyExpMetaMem,3.2.3,Win32,60
,,,,,,,,,,,,,,,,,,,,5,0.006999969,5,0.019000053,1,0,1200,947,1,1199,shame,1116,2019-10-25_13h29.13.176,SurveyExpMetaMem,3.2.3,Win32,60
,,,,,,,,,,,,,,,,,,,,5,0.010999918,5,0.023999929,1,0,1200,275,1,1199,brilliant,1116,2019-10-25_13h29.13.176,SurveyExpMetaMem,3.2.3,Win32,60
,,,,,,,,,,,,,,,,,,,,5,0.019000053,5,0.012000084,1,0,1200,1095,1,1199,fright,1116,2019-10-25_13h29.13.176,SurveyExpMetaMem,3.2.3,Win32,60
,,,,,,,,,,,,,,,,,,,,5,0.022000074,5,0.019999981,1,0,1200,846,1,1199,able,1116,2019-10-25_13h29.13.176,SurveyExpMetaMem,3.2.3,Win32,60
,,,,,,,,,,,,,,,,,,,,5,0.00999999,5,0.016000032,1,0,1200,857,1,1199,thankful,1116,2019-10-25_13h29.13.176,SurveyExpMetaMem,3.2.3,Win32,60
,,,,,,,,,,,,,,,,,,,,5,0.020000219,5,0.011000156,1,0,1200,397,1,1199,complaint,1116,2019-10-25_13h29.13.176,SurveyExpMetaMem,3.2.3,Win32,60
,,,,,,,,,,,,,,,,,,,,5,0.020999908,5,0.019999981,1,0,1200,1180,1,1199,heat,1116,2019-10-25_13h29.13.176,SurveyExpMetaMem,3.2.3,Win32,60
,,,,,,,,,,,,,,,,,,,,5,0.009000063,5,0.020999908,1,0,1200,350,1,1199,inadequate,1116,2019-10-25_13h29.13.176,SurveyExpMetaMem,3.2.3,Win32,60
,,,,,,,,,,,,,,,,,,,,5,0.018000126,5,0.00999999,1,0,1200,1100,1,1199,evil,1116,2019-10-25_13h29.13.176,SurveyExpMetaMem,3.2.3,Win32,60
,,,,,,,,,,,,,,,,,,,,5,0.020000219,5,0.013999939,1,0,1200,100,1,1199,intense,1116,2019-10-25_13h29.13.176,SurveyExpMetaMem,3.2.3,Win32,60
,,,,,,,,,,,,,,,,,,,,5,0.023000002,5,0.019000053,1,0,1200,1189,1,1199,lava,1116,2019-10-25_13h29.13.176,SurveyExpMetaMem,3.2.3,Win32,60
,,,,,,,,,,,,,,,,,,,,5,0.011000156,5,0.024999857,1,0,1200,1052,1,1199,angry,1116,2019-10-25_13h29.13.176,SurveyExpMetaMem,3.2.3,Win32,60
,,,,,,,,,,,,,,,,,,,,5,0.016000032,5,0.00999999,1,0,1200,177,1,1199,frosting,1116,2019-10-25_13h29.13.176,SurveyExpMetaMem,3.2.3,Win32,60
,,,,,,,,,,,,,,,,,,,,5,0.019999981,5,0.019000053,1,0,1200,1006,1,1199,rash,1116,2019-10-25_13h29.13.176,SurveyExpMetaMem,3.2.3,Win32,60
,,,,,,,,,,,,,,,,,,,,5,0.00999999,5,0.019999981,1,0,1200,193,1,1199,party,1116,2019-10-25_13h29.13.176,SurveyExpMetaMem,3.2.3,Win32,60
,,,,,,,,,,,,,,,,,,,,5,0.018999815,5,0.008999825,1,0,1200,254,1,1199,crush,1116,2019-10-25_13h29.13.176,SurveyExpMetaMem,3.2.3,Win32,60
,,,,,,,,,,,,,,,,,,,,5,0.019999981,5,0.012000084,1,0,1200,547,1,1199,cellar,1116,2019-10-25_13h29.13.176,SurveyExpMetaMem,3.2.3,Win32,60
,,,,,,,,,,,,,,,,,,,,5,0.023000002,5,0.019000053,1,0,1200,913,1,1199,ulcer,1116,2019-10-25_13h29.13.176,SurveyExpMetaMem,3.2.3,Win32,60
,,,,,,,,,,,,,,,,,,,,5,0.009000063,5,0.021000147,1,0,1200,160,1,1199,reunion,1116,2019-10-25_13h29.13.176,SurveyExpMetaMem,3.2.3,Win32,60
,,,,,,,,,,,,,,,,,,,,5,0.013000011,5,0.024000168,1,0,1200,388,1,1199,mildew,1116,2019-10-25_13h29.13.176,SurveyExpMetaMem,3.2.3,Win32,60
,,,,,,,,,,,,,,,,,,,,5,0.017999887,5,0.00999999,1,0,1200,710,1,1199,gender,1116,2019-10-25_13h29.13.176,SurveyExpMetaMem,3.2.3,Win32,60
,,,,,,,,,,,,,,,,,,,,5,0.019999981,5,0.018000126,1,0,1200,536,1,1199,vacant,1116,2019-10-25_13h29.13.176,SurveyExpMetaMem,3.2.3,Win32,60
,,,,,,,,,,,,,,,,,,,,5,0.008999825,5,0.019999981,1,0,1200,881,1,1199,protected,1116,2019-10-25_13h29.13.176,SurveyExpMetaMem,3.2.3,Win32,60
,,,,,,,,,,,,,,,,,,,,5,0.013000011,5,0.026000023,1,0,1200,399,1,1199,withdrawn,1116,2019-10-25_13h29.13.176,SurveyExpMetaMem,3.2.3,Win32,60
,,,,,,,,,,,,,,,,,,,,5,0.019000053,5,0.013999939,1,0,1200,1085,1,1199,sever,1116,2019-10-25_13h29.13.176,SurveyExpMetaMem,3.2.3,Win32,60
,,,,,,,,,,,,,,,,,,,,5,0.023000002,5,0.019000053,1,0,1200,702,1,1199,den,1116,2019-10-25_13h29.13.176,SurveyExpMetaMem,3.2.3,Win32,60
,,,,,,,,,,,,,,,,,,,,5,0.011000156,5,0.023999929,1,0,1200,605,1,1199,year,1116,2019-10-25_13h29.13.176,SurveyExpMetaMem,3.2.3,Win32,60
,,,,,,,,,,,,,,,,,,,,5,0.017999887,5,0.012000084,1,0,1200,1019,1,1199,fraud,1116,2019-10-25_13h29.13.176,SurveyExpMetaMem,3.2.3,Win32,60
,,,,,,,,,,,,,,,,,,,,5,0.022000074,5,0.019000053,1,0,1200,634,1,1199,glacier,1116,2019-10-25_13h29.13.176,SurveyExpMetaMem,3.2.3,Win32,60
,,,,,,,,,,,,,,,,,,,,5,0.009000063,5,0.021999836,1,0,1200,1173,1,1199,lurk,1116,2019-10-25_13h29.13.176,SurveyExpMetaMem,3.2.3,Win32,60
,,,,,,,,,,,,,,,,,,,,5,0.018000126,5,0.009000063,1,0,1200,607,1,1199,greyhound,1116,2019-10-25_13h29.13.176,SurveyExpMetaMem,3.2.3,Win32,60
,,,,,,,,,,,,,,,,,,,,5,0.017999887,5,0.013000011,1,0,1200,647,1,1199,accord,1116,2019-10-25_13h29.13.176,SurveyExpMetaMem,3.2.3,Win32,60
,,,,,,,,,,,,,,,,,,,,5,0.025000095,5,0.020000219,1,0,1200,735,1,1199,tea,1116,2019-10-25_13h29.13.176,SurveyExpMetaMem,3.2.3,Win32,60
,,,,,,,,,,,,,,,,,,,,5,0.013000011,5,0.023999929,1,0,1200,599,1,1199,obstinate,1116,2019-10-25_13h29.13.176,SurveyExpMetaMem,3.2.3,Win32,60
,,,,,,,,,,,,,,,,,,,,5,0.023999929,5,0.012000084,1,0,1200,1139,1,1199,scare,1116,2019-10-25_13h29.13.176,SurveyExpMetaMem,3.2.3,Win32,60
,,,,,,,,,,,,,,,,,,,,5,0.023000002,5,0.01699996,1,0,1200,445,1,1199,bleak,1116,2019-10-25_13h29.13.176,SurveyExpMetaMem,3.2.3,Win32,60
,,,,,,,,,,,,,,,,,,,,5,0.011000156,5,0.022000074,1,0,1200,504,1,1199,cane,1116,2019-10-25_13h29.13.176,SurveyExpMetaMem,3.2.3,Win32,60
,,,,,,,,,,,,,,,,,,,,5,0.019000053,5,0.012000084,1,0,1200,482,1,1199,cell,1116,2019-10-25_13h29.13.176,SurveyExpMetaMem,3.2.3,Win32,60
,,,,,,,,,,,,,,,,,,,,5,0.019999981,5,0.017999887,1,0,1200,9,1,1199,try,1116,2019-10-25_13h29.13.176,SurveyExpMetaMem,3.2.3,Win32,60
,,,,,,,,,,,,,,,,,,,,5,0.008000135,5,0.019999981,1,0,1200,597,1,1199,drool,1116,2019-10-25_13h29.13.176,SurveyExpMetaMem,3.2.3,Win32,60
,,,,,,,,,,,,,,,,,,,,5,0.01699996,5,0.008000135,1,0,1200,255,1,1199,ass,1116,2019-10-25_13h29.13.176,SurveyExpMetaMem,3.2.3,Win32,60
,,,,,,,,,,,,,,,,,,,,5,0.019000053,5,0.013000011,1,0,1200,152,1,1199,hire,1116,2019-10-25_13h29.13.176,SurveyExpMetaMem,3.2.3,Win32,60
,,,,,,,,,,,,,,,,,,,,5,0.023000002,5,0.018999815,1,0,1200,964,1,1199,grieve,1116,2019-10-25_13h29.13.176,SurveyExpMetaMem,3.2.3,Win32,60
,,,,,,,,,,,,,,,,,,,,5,0.010999918,5,0.024999857,1,0,1200,516,1,1199,smug,1116,2019-10-25_13h29.13.176,SurveyExpMetaMem,3.2.3,Win32,60
,,,,,,,,,,,,,,,,,,,,5,0.017999887,5,0.00999999,1,0,1200,741,1,1199,wheat,1116,2019-10-25_13h29.13.176,SurveyExpMetaMem,3.2.3,Win32,60
,,,,,,,,,,,,,,,,,,,,5,0.019999981,5,0.013000011,1,0,1200,123,1,1199,favorite,1116,2019-10-25_13h29.13.176,SurveyExpMetaMem,3.2.3,Win32,60
,,,,,,,,,,,,,,,,,,,,5,0.024999857,5,0.019999981,1,0,1200,787,1,1199,dawn,1116,2019-10-25_13h29.13.176,SurveyExpMetaMem,3.2.3,Win32,60
,,,,,,,,,,,,,,,,,,,,5,0.013999939,5,0.022000074,1,0,1200,731,1,1199,decency,1116,2019-10-25_13h29.13.176,SurveyExpMetaMem,3.2.3,Win32,60
,,,,,,,,,,,,,,,,,,,,5,0.021000147,5,0.009000063,1,0,1200,248,1,1199,win,1116,2019-10-25_13h29.13.176,SurveyExpMetaMem,3.2.3,Win32,60
,,,,,,,,,,,,,,,,,,,,5,0.019999981,5,0.013000011,1,0,1200,1030,1,1199,offend,1116,2019-10-25_13h29.13.176,SurveyExpMetaMem,3.2.3,Win32,60
,,,,,,,,,,,,,,,,,,,,5,0.023000002,5,0.018999815,1,0,1200,938,1,1199,seasick,1116,2019-10-25_13h29.13.176,SurveyExpMetaMem,3.2.3,Win32,60
,,,,,,,,,,,,,,,,,,,,5,0.00999999,5,0.021000147,1,0,1200,854,1,1199,river,1116,2019-10-25_13h29.13.176,SurveyExpMetaMem,3.2.3,Win32,60
,,,,,,,,,,,,,,,,,,,,5,0.015999794,5,0.024999857,1,0,1200,1164,1,1199,battle,1116,2019-10-25_13h29.13.176,SurveyExpMetaMem,3.2.3,Win32,60
,,,,,,,,,,,,,,,,,,,,5,0.019000053,5,0.012000084,1,0,1200,433,1,1199,uninteresting,1116,2019-10-25_13h29.13.176,SurveyExpMetaMem,3.2.3,Win32,60
,,,,,,,,,,,,,,,,,,,,5,0.022000074,5,0.019000053,1,0,1200,997,1,1199,injury,1116,2019-10-25_13h29.13.176,SurveyExpMetaMem,3.2.3,Win32,60
,,,,,,,,,,,,,,,,,,,,5,0.008999825,5,0.020000219,1,0,1200,1158,1,1199,dentist,1116,2019-10-25_13h29.13.176,SurveyExpMetaMem,3.2.3,Win32,60
,,,,,,,,,,,,,,,,,,,,5,0.013000011,5,0.026000023,1,0,1200,637,1,1199,flock,1116,2019-10-25_13h29.13.176,SurveyExpMetaMem,3.2.3,Win32,60
,,,,,,,,,,,,,,,,,,,,5,0.017999887,5,0.011000156,1,0,1200,1090,1,1199,destruction,1116,2019-10-25_13h29.13.176,SurveyExpMetaMem,3.2.3,Win32,60
,,,,,,,,,,,,,,,,,,,,5,0.019999981,5,0.018000126,1,0,1200,989,1,1199,banish,1116,2019-10-25_13h29.13.176,SurveyExpMetaMem,3.2.3,Win32,60
,,,,,,,,,,,,,,,,,,,,5,0.008000135,5,0.019999981,1,0,1200,1022,1,1199,creepy,1116,2019-10-25_13h29.13.176,SurveyExpMetaMem,3.2.3,Win32,60
,,,,,,,,,,,,,,,,,,,,5,0.010000229,5,0.022000074,1,0,1200,723,1,1199,cinnamon,1116,2019-10-25_13h29.13.176,SurveyExpMetaMem,3.2.3,Win32,60
,,,,,,,,,,,,,,,,,,,,5,0.019000053,5,0.00999999,1,0,1200,1133,1,1199,slip,1116,2019-10-25_13h29.13.176,SurveyExpMetaMem,3.2.3,Win32,60
,,,,,,,,,,,,,,,,,,,,5,0.020999908,5,0.014999866,1,0,1200,67,1,1199,penthouse,1116,2019-10-25_13h29.13.176,SurveyExpMetaMem,3.2.3,Win32,60
,,,,,,,,,,,,,,,,,,,,5,0.023999929,5,0.019000053,1,0,1200,451,1,1199,lame,1116,2019-10-25_13h29.13.176,SurveyExpMetaMem,3.2.3,Win32,60
,,,,,,,,,,,,,,,,,,,,5,0.00999999,5,0.022000074,1,0,1200,277,1,1199,cupcake,1116,2019-10-25_13h29.13.176,SurveyExpMetaMem,3.2.3,Win32,60
,,,,,,,,,,,,,,,,,,,,5,0.017999887,5,0.007999897,1,0,1200,903,1,1199,cancer,1116,2019-10-25_13h29.13.176,SurveyExpMetaMem,3.2.3,Win32,60
,,,,,,,,,,,,,,,,,,,,5,0.017999887,5,0.010999918,1,0,1200,571,1,1199,marrow,1116,2019-10-25_13h29.13.176,SurveyExpMetaMem,3.2.3,Win32,60
,,,,,,,,,,,,,,,,,,,,5,0.022000074,5,0.018000126,1,0,1200,998,1,1199,virus,1116,2019-10-25_13h29.13.176,SurveyExpMetaMem,3.2.3,Win32,60
,,,,,,,,,,,,,,,,,,,,5,0.00999999,5,0.021000147,1,0,1200,393,1,1199,droop,1116,2019-10-25_13h29.13.176,SurveyExpMetaMem,3.2.3,Win32,60
,,,,,,,,,,,,,,,,,,,,5,0.017999887,5,0.011000156,1,0,1200,469,1,1199,resent,1116,2019-10-25_13h29.13.176,SurveyExpMetaMem,3.2.3,Win32,60
,,,,,,,,,,,,,,,,,,,,5,0.021000147,5,0.017999887,1,0,1200,646,1,1199,wear,1116,2019-10-25_13h29.13.176,SurveyExpMetaMem,3.2.3,Win32,60
,,,,,,,,,,,,,,,,,,,,5,0.007999897,5,0.019999981,1,0,1200,148,1,1199,victory,1116,2019-10-25_13h29.13.176,SurveyExpMetaMem,3.2.3,Win32,60
,,,,,,,,,,,,,,,,,,,,5,0.012000084,5,0.025000095,1,0,1200,384,1,1199,idiot,1116,2019-10-25_13h29.13.176,SurveyExpMetaMem,3.2.3,Win32,60
,,,,,,,,,,,,,,,,,,,,5,0.019000053,5,0.013000011,1,0,1200,604,1,1199,lamp,1116,2019-10-25_13h29.13.176,SurveyExpMetaMem,3.2.3,Win32,60
,,,,,,,,,,,,,,,,,,,,5,0.023000002,5,0.019999981,1,0,1200,320,1,1199,deformed,1116,2019-10-25_13h29.13.176,SurveyExpMetaMem,3.2.3,Win32,60
,,,,,,,,,,,,,,,,,,,,5,0.011999846,5,0.023000002,1,0,1200,303,1,1199,death,1116,2019-10-25_13h29.13.176,SurveyExpMetaMem,3.2.3,Win32,60
,,,,,,,,,,,,,,,,,,,,5,0.019000053,5,0.00999999,1,0,1200,134,1,1199,dollar,1116,2019-10-25_13h29.13.176,SurveyExpMetaMem,3.2.3,Win32,60
,,,,,,,,,,,,,,,,,,,,5,0.020999908,5,0.019999981,1,0,1200,118,1,1199,conquer,1116,2019-10-25_13h29.13.176,SurveyExpMetaMem,3.2.3,Win32,60
,,,,,,,,,,,,,,,,,,,,5,0.007999897,5,0.021000147,1,0,1200,1079,1,1199,critic,1116,2019-10-25_13h29.13.176,SurveyExpMetaMem,3.2.3,Win32,60
,,,,,,,,,,,,,,,,,,,,5,0.013999939,5,0.026000023,1,0,1200,244,1,1199,sexy,1116,2019-10-25_13h29.13.176,SurveyExpMetaMem,3.2.3,Win32,60
,,,,,,,,,,,,,,,,,,,,5,0.019999981,5,0.013000011,1,0,1200,162,1,1199,royalty,1116,2019-10-25_13h29.13.176,SurveyExpMetaMem,3.2.3,Win32,60
,,,,,,,,,,,,,,,,,,,,5,0.024999857,5,0.019999981,1,0,1200,1054,1,1199,jealous,1116,2019-10-25_13h29.13.176,SurveyExpMetaMem,3.2.3,Win32,60
,,,,,,,,,,,,,,,,,,,,5,0.011999846,5,0.023999929,1,0,1200,1039,1,1199,stalk,1116,2019-10-25_13h29.13.176,SurveyExpMetaMem,3.2.3,Win32,60
,,,,,,,,,,,,,,,,,,,,5,0.018000126,5,0.013000011,1,0,1200,1063,1,1199,quarrel,1116,2019-10-25_13h29.13.176,SurveyExpMetaMem,3.2.3,Win32,60
,,,,,,,,,,,,,,,,,,,,5,0.021999836,5,0.019999981,1,0,1200,1068,1,1199,riot,1116,2019-10-25_13h29.13.176,SurveyExpMetaMem,3.2.3,Win32,60
,,,,,,,,,,,,,,,,,,,,5,0.009000063,5,0.021999836,1,0,1200,1170,1,1199,police,1116,2019-10-25_13h29.13.176,SurveyExpMetaMem,3.2.3,Win32,60
,,,,,,,,,,,,,,,,,,,,5,0.01699996,5,0.00999999,1,0,1200,415,1,1199,grime,1116,2019-10-25_13h29.13.176,SurveyExpMetaMem,3.2.3,Win32,60
,,,,,,,,,,,,,,,,,,,,5,0.019999981,5,0.016000032,1,0,1200,608,1,1199,carrot,1116,2019-10-25_13h29.13.176,SurveyExpMetaMem,3.2.3,Win32,60
,,,,,,,,,,,,,,,,,,,,5,0.025000095,5,0.019999981,1,0,1200,221,1,1199,sparkle,1116,2019-10-25_13h29.13.176,SurveyExpMetaMem,3.2.3,Win32,60
,,,,,,,,,,,,,,,,,,,,5,0.013000011,5,0.024999857,1,0,1200,827,1,1199,saint,1116,2019-10-25_13h29.13.176,SurveyExpMetaMem,3.2.3,Win32,60
,,,,,,,,,,,,,,,,,,,,5,0.017999887,5,0.012000084,1,0,1200,633,1,1199,cattle,1116,2019-10-25_13h29.13.176,SurveyExpMetaMem,3.2.3,Win32,60
,,,,,,,,,,,,,,,,,,,,5,0.023000002,5,0.017000198,1,0,1200,1179,1,1199,nerves,1116,2019-10-25_13h29.13.176,SurveyExpMetaMem,3.2.3,Win32,60
,,,,,,,,,,,,,,,,,,,,5,0.012000084,5,0.023000002,1,0,1200,535,1,1199,ramble,1116,2019-10-25_13h29.13.176,SurveyExpMetaMem,3.2.3,Win32,60
,,,,,,,,,,,,,,,,,,,,5,0.01699996,5,0.00999999,1,0,1200,526,1,1199,dry,1116,2019-10-25_13h29.13.176,SurveyExpMetaMem,3.2.3,Win32,60
,,,,,,,,,,,,,,,,,,,,5,0.020999908,5,0.013999939,1,0,1200,785,1,1199,pond,1116,2019-10-25_13h29.13.176,SurveyExpMetaMem,3.2.3,Win32,60
,,,,,,,,,,,,,,,,,,,,5,0.023000002,5,0.019000053,1,0,1200,543,1,1199,gloat,1116,2019-10-25_13h29.13.176,SurveyExpMetaMem,3.2.3,Win32,60
,,,,,,,,,,,,,,,,,,,,5,0.010999918,5,0.022000074,1,0,1200,1113,1,1199,dagger,1116,2019-10-25_13h29.13.176,SurveyExpMetaMem,3.2.3,Win32,60
,,,,,,,,,,,,,,,,,,,,5,0.014000177,5,0.026000023,1,0,1200,1009,1,1199,frightened,1116,2019-10-25_13h29.13.176,SurveyExpMetaMem,3.2.3,Win32,60
,,,,,,,,,,,,,,,,,,,,5,0.018999815,5,0.010999918,1,0,1200,833,1,1199,nice,1116,2019-10-25_13h29.13.176,SurveyExpMetaMem,3.2.3,Win32,60
,,,,,,,,,,,,,,,,,,,,5,0.021999836,5,0.019000053,1,0,1200,1178,1,1199,weight,1116,2019-10-25_13h29.13.176,SurveyExpMetaMem,3.2.3,Win32,60
,,,,,,,,,,,,,,,,,,,,5,0.00999999,5,0.018000126,1,0,1200,55,1,1199,rare,1116,2019-10-25_13h29.13.176,SurveyExpMetaMem,3.2.3,Win32,60
,,,,,,,,,,,,,,,,,,,,5,0.011999846,5,0.025000095,1,0,1200,818,1,1199,priest,1116,2019-10-25_13h29.13.176,SurveyExpMetaMem,3.2.3,Win32,60
,,,,,,,,,,,,,,,,,,,,5,0.019000053,5,0.00999999,1,0,1200,143,1,1199,weekend,1116,2019-10-25_13h29.13.176,SurveyExpMetaMem,3.2.3,Win32,60
,,,,,,,,,,,,,,,,,,,,5,0.020999908,5,0.015000105,1,0,1200,887,1,1199,elegant,1116,2019-10-25_13h29.13.176,SurveyExpMetaMem,3.2.3,Win32,60
,,,,,,,,,,,,,,,,,,,,5,0.022999763,5,0.019999981,1,0,1200,676,1,1199,straighten,1116,2019-10-25_13h29.13.176,SurveyExpMetaMem,3.2.3,Win32,60
,,,,,,,,,,,,,,,,,,,,5,0.00999999,5,0.021000147,1,0,1200,174,1,1199,snow,1116,2019-10-25_13h29.13.176,SurveyExpMetaMem,3.2.3,Win32,60
,,,,,,,,,,,,,,,,,,,,5,0.014999866,5,0.021000147,1,0,1200,423,1,1199,stain,1116,2019-10-25_13h29.13.176,SurveyExpMetaMem,3.2.3,Win32,60
,,,,,,,,,,,,,,,,,,,,5,0.018000126,5,0.00999999,1,0,1200,464,1,1199,tick,1116,2019-10-25_13h29.13.176,SurveyExpMetaMem,3.2.3,Win32,60
,,,,,,,,,,,,,,,,,,,,5,0.020999908,5,0.014999866,1,0,1200,721,1,1199,contemporary,1116,2019-10-25_13h29.13.176,SurveyExpMetaMem,3.2.3,Win32,60
,,,,,,,,,,,,,,,,,,,,5,0.026000023,5,0.019000053,1,0,1200,849,1,1199,blue,1116,2019-10-25_13h29.13.176,SurveyExpMetaMem,3.2.3,Win32,60
,,,,,,,,,,,,,,,,,,,,5,0.012000084,5,0.023999929,1,0,1200,91,1,1199,pretty,1116,2019-10-25_13h29.13.176,SurveyExpMetaMem,3.2.3,Win32,60
,,,,,,,,,,,,,,,,,,,,5,0.018000126,5,0.010999918,1,0,1200,1034,1,1199,pester,1116,2019-10-25_13h29.13.176,SurveyExpMetaMem,3.2.3,Win32,60
,,,,,,,,,,,,,,,,,,,,5,0.018999815,5,0.013999939,1,0,1200,635,1,1199,sensitive,1116,2019-10-25_13h29.13.176,SurveyExpMetaMem,3.2.3,Win32,60
,,,,,,,,,,,,,,,,,,,,5,0.025000095,5,0.019000053,1,0,1200,876,1,1199,politeness,1116,2019-10-25_13h29.13.176,SurveyExpMetaMem,3.2.3,Win32,60
,,,,,,,,,,,,,,,,,,,,5,0.010999918,5,0.023000002,1,0,1200,1132,1,1199,anarchy,1116,2019-10-25_13h29.13.176,SurveyExpMetaMem,3.2.3,Win32,60
,,,,,,,,,,,,,,,,,,,,5,0.017999887,5,0.00999999,1,0,1200,1104,1,1199,avalanche,1116,2019-10-25_13h29.13.176,SurveyExpMetaMem,3.2.3,Win32,60
,,,,,,,,,,,,,,,,,,,,5,0.021000147,5,0.010999918,1,0,1200,109,1,1199,new,1116,2019-10-25_13h29.13.176,SurveyExpMetaMem,3.2.3,Win32,60
,,,,,,,,,,,,,,,,,,,,5,0.024000168,5,0.020000219,1,0,1200,294,1,1199,confident,1116,2019-10-25_13h29.13.176,SurveyExpMetaMem,3.2.3,Win32,60
,,,,,,,,,,,,,,,,,,,,5,0.00999999,5,0.021999836,1,0,1200,871,1,1199,comfort,1116,2019-10-25_13h29.13.176,SurveyExpMetaMem,3.2.3,Win32,60
,,,,,,,,,,,,,,,,,,,,5,0.019000053,5,0.009000063,1,0,1200,326,1,1199,scam,1116,2019-10-25_13h29.13.176,SurveyExpMetaMem,3.2.3,Win32,60
,,,,,,,,,,,,,,,,,,,,5,0.019000053,5,0.013000011,1,0,1200,45,1,1199,sex,1116,2019-10-25_13h29.13.176,SurveyExpMetaMem,3.2.3,Win32,60
,,,,,,,,,,,,,,,,,,,,5,0.023000002,5,0.017999887,1,0,1200,192,1,1199,pleased,1116,2019-10-25_13h29.13.176,SurveyExpMetaMem,3.2.3,Win32,60
,,,,,,,,,,,,,,,,,,,,5,0.007999897,5,0.018999815,1,0,1200,355,1,1199,graveyard,1116,2019-10-25_13h29.13.176,SurveyExpMetaMem,3.2.3,Win32,60
,,,,,,,,,,,,,,,,,,,,5,0.012000084,5,0.023999929,1,0,1200,206,1,1199,comet,1116,2019-10-25_13h29.13.176,SurveyExpMetaMem,3.2.3,Win32,60
,,,,,,,,,,,,,,,,,,,,5,0.018000126,5,0.009000063,1,0,1200,329,1,1199,worse,1116,2019-10-25_13h29.13.176,SurveyExpMetaMem,3.2.3,Win32,60
,,,,,,,,,,,,,,,,,,,,5,0.019000053,5,0.013000011,1,0,1200,562,1,1199,average,1116,2019-10-25_13h29.13.176,SurveyExpMetaMem,3.2.3,Win32,60
,,,,,,,,,,,,,,,,,,,,5,0.023000002,5,0.019999981,1,0,1200,1007,1,1199,tornado,1116,2019-10-25_13h29.13.176,SurveyExpMetaMem,3.2.3,Win32,60
,,,,,,,,,,,,,,,,,,,,5,0.008999825,5,0.020999908,1,0,1200,1143,1,1199,arrogant,1116,2019-10-25_13h29.13.176,SurveyExpMetaMem,3.2.3,Win32,60
,,,,,,,,,,,,,,,,,,,,5,0.014000177,5,0.024000168,1,0,1200,194,1,1199,celebration,1116,2019-10-25_13h29.13.176,SurveyExpMetaMem,3.2.3,Win32,60
,,,,,,,,,,,,,,,,,,,,5,0.017999887,5,0.011999846,1,0,1200,494,1,1199,butcher,1116,2019-10-25_13h29.13.176,SurveyExpMetaMem,3.2.3,Win32,60
,,,,,,,,,,,,,,,,,,,,5,0.019999981,5,0.021000147,1,0,1200,790,1,1199,binoculars,1116,2019-10-25_13h29.13.176,SurveyExpMetaMem,3.2.3,Win32,60
,,,,,,,,,,,,,,,,,,,,5,0.007999897,5,0.019999981,1,0,1200,667,1,1199,dew,1116,2019-10-25_13h29.13.176,SurveyExpMetaMem,3.2.3,Win32,60
,,,,,,,,,,,,,,,,,,,,5,0.012000084,5,0.023999929,1,0,1200,16,1,1199,sing,1116,2019-10-25_13h29.13.176,SurveyExpMetaMem,3.2.3,Win32,60
,,,,,,,,,,,,,,,,,,,,5,0.019999981,5,0.012000084,1,0,1200,674,1,1199,fitting,1116,2019-10-25_13h29.13.176,SurveyExpMetaMem,3.2.3,Win32,60
,,,,,,,,,,,,,,,,,,,,5,0.020000219,5,0.014000177,1,0,1200,242,1,1199,triumph,1116,2019-10-25_13h29.13.176,SurveyExpMetaMem,3.2.3,Win32,60
,,,,,,,,,,,,,,,,,,,,5,0.023999929,5,0.019999981,1,0,1200,213,1,1199,fair,1116,2019-10-25_13h29.13.176,SurveyExpMetaMem,3.2.3,Win32,60
,,,,,,,,,,,,,,,,,,,,5,0.010999918,5,0.020999908,1,0,1200,497,1,1199,pungent,1116,2019-10-25_13h29.13.176,SurveyExpMetaMem,3.2.3,Win32,60
,,,,,,,,,,,,,,,,,,,,5,0.019000053,5,0.008000135,1,0,1200,668,1,1199,unit,1116,2019-10-25_13h29.13.176,SurveyExpMetaMem,3.2.3,Win32,60
,,,,,,,,,,,,,,,,,,,,5,0.020000219,5,0.012000084,1,0,1200,127,1,1199,glamorous,1116,2019-10-25_13h29.13.176,SurveyExpMetaMem,3.2.3,Win32,60
,,,,,,,,,,,,,,,,,,,,5,0.020999908,5,0.021000147,1,0,1200,151,1,1199,react,1116,2019-10-25_13h29.13.176,SurveyExpMetaMem,3.2.3,Win32,60
,,,,,,,,,,,,,,,,,,,,5,0.008999825,5,0.023000002,1,0,1200,862,1,1199,ease,1116,2019-10-25_13h29.13.176,SurveyExpMetaMem,3.2.3,Win32,60
,,,,,,,,,,,,,,,,,,,,5,0.011000156,5,0.005999804,1,0,1200,1144,1,1199,yelp,1116,2019-10-25_13h29.13.176,SurveyExpMetaMem,3.2.3,Win32,60
,,,,,,,,,,,,,,,,,,,,5,0.019000053,5,0.013999939,1,0,1200,701,1,1199,telephone,1116,2019-10-25_13h29.13.176,SurveyExpMetaMem,3.2.3,Win32,60
,,,,,,,,,,,,,,,,,,,,5,0.023000002,5,0.019000053,1,0,1200,904,1,1199,murderer,1116,2019-10-25_13h29.13.176,SurveyExpMetaMem,3.2.3,Win32,60
,,,,,,,,,,,,,,,,,,,,5,0.012000084,5,0.021999836,1,0,1200,319,1,1199,malaria,1116,2019-10-25_13h29.13.176,SurveyExpMetaMem,3.2.3,Win32,60
,,,,,,,,,,,,,,,,,,,,5,0.01699996,5,0.013000011,1,0,1200,349,1,1199,mope,1116,2019-10-25_13h29.13.176,SurveyExpMetaMem,3.2.3,Win32,60
,,,,,,,,,,,,,,,,,,,,5,0.023999929,5,0.019999981,1,0,1200,240,1,1199,giggles,1116,2019-10-25_13h29.13.176,SurveyExpMetaMem,3.2.3,Win32,60
,,,,,,,,,,,,,,,,,,,,5,0.00999999,5,0.022000074,1,0,1200,796,1,1199,rose,1116,2019-10-25_13h29.13.176,SurveyExpMetaMem,3.2.3,Win32,60
,,,,,,,,,,,,,,,,,,,,5,0.015000105,5,0.025000095,1,0,1200,224,1,1199,strengthen,1116,2019-10-25_13h29.13.176,SurveyExpMetaMem,3.2.3,Win32,60
,,,,,,,,,,,,,,,,,,,,5,0.020999908,5,0.014000177,1,0,1200,365,1,1199,discouraged,1116,2019-10-25_13h29.13.176,SurveyExpMetaMem,3.2.3,Win32,60
,,,,,,,,,,,,,,,,,,,,5,0.025000095,5,0.019999981,1,0,1200,620,1,1199,spray,1116,2019-10-25_13h29.13.176,SurveyExpMetaMem,3.2.3,Win32,60
,,,,,,,,,,,,,,,,,,,,5,0.011999846,5,0.023000002,1,0,1200,632,1,1199,avenue,1116,2019-10-25_13h29.13.176,SurveyExpMetaMem,3.2.3,Win32,60
,,,,,,,,,,,,,,,,,,,,5,0.018999815,5,0.010999918,1,0,1200,485,1,1199,pinch,1116,2019-10-25_13h29.13.176,SurveyExpMetaMem,3.2.3,Win32,60
,,,,,,,,,,,,,,,,,,,,5,0.021000147,5,0.014999866,1,0,1200,884,1,1199,grateful,1116,2019-10-25_13h29.13.176,SurveyExpMetaMem,3.2.3,Win32,60
,,,,,,,,,,,,,,,,,,,,5,0.026000023,5,0.020999908,1,0,1200,186,1,1199,holiday,1116,2019-10-25_13h29.13.176,SurveyExpMetaMem,3.2.3,Win32,60
,,,,,,,,,,,,,,,,,,,,5,0.013000011,5,0.023999929,1,0,1200,117,1,1199,powerful,1116,2019-10-25_13h29.13.176,SurveyExpMetaMem,3.2.3,Win32,60
,,,,,,,,,,,,,,,,,,,,5,0.018999815,5,0.009000063,1,0,1200,1001,1,1199,rude,1116,2019-10-25_13h29.13.176,SurveyExpMetaMem,3.2.3,Win32,60
,,,,,,,,,,,,,,,,,,,,5,0.020999908,5,0.013999939,1,0,1200,1059,1,1199,harsh,1116,2019-10-25_13h29.13.176,SurveyExpMetaMem,3.2.3,Win32,60
,,,,,,,,,,,,,,,,,,,,5,0.024999857,5,0.020999908,1,0,1200,1188,1,1199,swear,1116,2019-10-25_13h29.13.176,SurveyExpMetaMem,3.2.3,Win32,60
,,,,,,,,,,,,,,,,,,,,5,0.00999999,5,0.022000074,1,0,1200,495,1,1199,dust,1116,2019-10-25_13h29.13.176,SurveyExpMetaMem,3.2.3,Win32,60
,,,,,,,,,,,,,,,,,,,,5,0.013000011,5,0.025000095,1,0,1200,946,1,1199,amputate,1116,2019-10-25_13h29.13.176,SurveyExpMetaMem,3.2.3,Win32,60
,,,,,,,,,,,,,,,,,,,,5,0.017999887,5,0.012000084,1,0,1200,73,1,1199,rhythm,1116,2019-10-25_13h29.13.176,SurveyExpMetaMem,3.2.3,Win32,60
,,,,,,,,,,,,,,,,,,,,5,0.022000074,5,0.019000053,1,0,1200,983,1,1199,demonic,1116,2019-10-25_13h29.13.176,SurveyExpMetaMem,3.2.3,Win32,60
,,,,,,,,,,,,,,,,,,,,5,0.012000084,5,0.023000002,1,0,1200,1130,1,1199,slut,1116,2019-10-25_13h29.13.176,SurveyExpMetaMem,3.2.3,Win32,60
,,,,,,,,,,,,,,,,,,,,5,0.01699996,5,0.010999918,1,0,1200,359,1,1199,bored,1116,2019-10-25_13h29.13.176,SurveyExpMetaMem,3.2.3,Win32,60
,,,,,,,,,,,,,,,,,,,,5,0.020999908,5,0.016000032,1,0,1200,1101,1,1199,scary,1116,2019-10-25_13h29.13.176,SurveyExpMetaMem,3.2.3,Win32,60
,,,,,,,,,,,,,,,,,,,,5,0.025000095,5,0.021000147,1,0,1200,57,1,1199,important,1116,2019-10-25_13h29.13.176,SurveyExpMetaMem,3.2.3,Win32,60
,,,,,,,,,,,,,,,,,,,,5,0.013000011,5,0.021999836,1,0,1200,52,1,1199,dare,1116,2019-10-25_13h29.13.176,SurveyExpMetaMem,3.2.3,Win32,60
,,,,,,,,,,,,,,,,,,,,5,0.016000032,5,0.026000023,1,0,1200,1172,1,1199,overwhelmed,1116,2019-10-25_13h29.13.176,SurveyExpMetaMem,3.2.3,Win32,60
,,,,,,,,,,,,,,,,,,,,5,0.022000074,5,0.018000126,1,0,1200,383,1,1199,messy,1116,2019-10-25_13h29.13.176,SurveyExpMetaMem,3.2.3,Win32,60
,,,,,,,,,,,,,,,,,,,,5,0.009000063,5,0.019000053,1,0,1200,1050,1,1199,scorn,1116,2019-10-25_13h29.13.176,SurveyExpMetaMem,3.2.3,Win32,60
,,,,,,,,,,,,,,,,,,,,5,0.013000011,5,0.023999929,1,0,1200,685,1,1199,makeup,1116,2019-10-25_13h29.13.176,SurveyExpMetaMem,3.2.3,Win32,60
,,,,,,,,,,,,,,,,,,,,5,0.018000126,5,0.00999999,1,0,1200,610,1,1199,miniature,1116,2019-10-25_13h29.13.176,SurveyExpMetaMem,3.2.3,Win32,60
,,,,,,,,,,,,,,,,,,,,5,0.022000074,5,0.015000105,1,0,1200,95,1,1199,giggle,1116,2019-10-25_13h29.13.176,SurveyExpMetaMem,3.2.3,Win32,60
,,,,,,,,,,,,,,,,,,,,5,0.023000002,5,0.017999887,1,0,1200,63,1,1199,clothes,1116,2019-10-25_13h29.13.176,SurveyExpMetaMem,3.2.3,Win32,60
,,,,,,,,,,,,,,,,,,,,5,0.010999918,5,0.023000002,1,0,1200,777,1,1199,casual,1116,2019-10-25_13h29.13.176,SurveyExpMetaMem,3.2.3,Win32,60
,,,,,,,,,,,,,,,,,,,,5,0.018000126,5,0.009000063,1,0,1200,159,1,1199,teenager,1116,2019-10-25_13h29.13.176,SurveyExpMetaMem,3.2.3,Win32,60
,,,,,,,,,,,,,,,,,,,,5,0.019999981,5,0.011000156,1,0,1200,756,1,1199,plant,1116,2019-10-25_13h29.13.176,SurveyExpMetaMem,3.2.3,Win32,60
,,,,,,,,,,,,,,,,,,,,5,0.020999908,5,0.019000053,1,0,1200,465,1,1199,void,1116,2019-10-25_13h29.13.176,SurveyExpMetaMem,3.2.3,Win32,60
,,,,,,,,,,,,,,,,,,,,5,0.00999999,5,0.022000074,1,0,1200,937,1,1199,prison,1116,2019-10-25_13h29.13.176,SurveyExpMetaMem,3.2.3,Win32,60
,,,,,,,,,,,,,,,,,,,,5,0.010999918,5,0.023000002,1,0,1200,508,1,1199,haphazard,1116,2019-10-25_13h29.13.176,SurveyExpMetaMem,3.2.3,Win32,60
,,,,,,,,,,,,,,,,,,,,5,0.019000053,5,0.010999918,1,0,1200,591,1,1199,bereavement,1116,2019-10-25_13h29.13.176,SurveyExpMetaMem,3.2.3,Win32,60
,,,,,,,,,,,,,,,,,,,,5,0.019999981,5,0.014000177,1,0,1200,164,1,1199,marry,1116,2019-10-25_13h29.13.176,SurveyExpMetaMem,3.2.3,Win32,60
,,,,,,,,,,,,,,,,,,,,5,0.024999857,5,0.019000053,1,0,1200,409,1,1199,old,1116,2019-10-25_13h29.13.176,SurveyExpMetaMem,3.2.3,Win32,60
,,,,,,,,,,,,,,,,,,,,5,0.00999999,5,0.020999908,1,0,1200,444,1,1199,mold,1116,2019-10-25_13h29.13.176,SurveyExpMetaMem,3.2.3,Win32,60
,,,,,,,,,,,,,,,,,,,,5,0.019000053,5,0.008999825,1,0,1200,1103,1,1199,mob,1116,2019-10-25_13h29.13.176,SurveyExpMetaMem,3.2.3,Win32,60
,,,,,,,,,,,,,,,,,,,,5,0.019999981,5,0.011000156,1,0,1200,977,1,1199,choke,1116,2019-10-25_13h29.13.176,SurveyExpMetaMem,3.2.3,Win32,60
,,,,,,,,,,,,,,,,,,,,5,0.021000147,5,0.019999981,1,0,1200,1047,1,1199,psycho,1116,2019-10-25_13h29.13.176,SurveyExpMetaMem,3.2.3,Win32,60
,,,,,,,,,,,,,,,,,,,,5,0.008000135,5,0.022000074,1,0,1200,208,1,1199,wild,1116,2019-10-25_13h29.13.176,SurveyExpMetaMem,3.2.3,Win32,60
,,,,,,,,,,,,,,,,,,,,5,0.010999918,5,0.022000074,1,0,1200,12,1,1199,mountain,1116,2019-10-25_13h29.13.176,SurveyExpMetaMem,3.2.3,Win32,60
,,,,,,,,,,,,,,,,,,,,5,0.018000126,5,0.008000135,1,0,1200,280,1,1199,cookout,1116,2019-10-25_13h29.13.176,SurveyExpMetaMem,3.2.3,Win32,60
,,,,,,,,,,,,,,,,,,,,5,0.019999981,5,0.013999939,1,0,1200,828,1,1199,cooperative,1116,2019-10-25_13h29.13.176,SurveyExpMetaMem,3.2.3,Win32,60
,,,,,,,,,,,,,,,,,,,,5,0.023000002,5,0.019999981,1,0,1200,1167,1,1199,bribe,1116,2019-10-25_13h29.13.176,SurveyExpMetaMem,3.2.3,Win32,60
,,,,,,,,,,,,,,,,,,,,5,0.011000156,5,0.020999908,1,0,1200,1128,1,1199,fighting,1116,2019-10-25_13h29.13.176,SurveyExpMetaMem,3.2.3,Win32,60
,,,,,,,,,,,,,,,,,,,,5,0.018999815,5,0.007999897,1,0,1200,267,1,1199,bold,1116,2019-10-25_13h29.13.176,SurveyExpMetaMem,3.2.3,Win32,60
,,,,,,,,,,,,,,,,,,,,5,0.018000126,5,0.012000084,1,0,1200,1031,1,1199,fear,1116,2019-10-25_13h29.13.176,SurveyExpMetaMem,3.2.3,Win32,60
,,,,,,,,,,,,,,,,,,,,5,0.021000147,5,0.019000053,1,0,1200,234,1,1199,redeem,1116,2019-10-25_13h29.13.176,SurveyExpMetaMem,3.2.3,Win32,60
,,,,,,,,,,,,,,,,,,,,5,0.009000063,5,0.022000074,1,0,1200,965,1,1199,traffic,1116,2019-10-25_13h29.13.176,SurveyExpMetaMem,3.2.3,Win32,60
,,,,,,,,,,,,,,,,,,,,5,0.012999773,5,0.024000168,1,0,1200,689,1,1199,land,1116,2019-10-25_13h29.13.176,SurveyExpMetaMem,3.2.3,Win32,60
,,,,,,,,,,,,,,,,,,,,5,0.017999887,5,0.00999999,1,0,1200,489,1,1199,timid,1116,2019-10-25_13h29.13.176,SurveyExpMetaMem,3.2.3,Win32,60
,,,,,,,,,,,,,,,,,,,,5,0.020999908,5,0.017999887,1,0,1200,1118,1,1199,frantic,1116,2019-10-25_13h29.13.176,SurveyExpMetaMem,3.2.3,Win32,60
,,,,,,,,,,,,,,,,,,,,5,0.025000095,5,0.023999929,1,0,1200,106,1,1199,voyage,1116,2019-10-25_13h29.13.176,SurveyExpMetaMem,3.2.3,Win32,60
,,,,,,,,,,,,,,,,,,,,5,0.019000053,5,0.009000063,1,0,1200,77,1,1199,adore,1116,2019-10-25_13h29.13.176,SurveyExpMetaMem,3.2.3,Win32,60
,,,,,,,,,,,,,,,,,,,,5,0.018999815,5,0.019999981,1,0,1200,382,1,1199,vulnerable,1116,2019-10-25_13h29.13.176,SurveyExpMetaMem,3.2.3,Win32,60
,,,,,,,,,,,,,,,,,,,,5,0.007999897,5,0.022000074,1,0,1200,891,1,1199,kind,1116,2019-10-25_13h29.13.176,SurveyExpMetaMem,3.2.3,Win32,60
,,,,,,,,,,,,,,,,,,,,5,0.013999939,5,0.020999908,1,0,1200,985,1,1199,pollution,1116,2019-10-25_13h29.13.176,SurveyExpMetaMem,3.2.3,Win32,60
,,,,,,,,,,,,,,,,,,,,5,0.018000126,5,0.00999999,1,0,1200,354,1,1199,cowardice,1116,2019-10-25_13h29.13.176,SurveyExpMetaMem,3.2.3,Win32,60
,,,,,,,,,,,,,,,,,,,,5,0.019999981,5,0.019999981,1,0,1200,426,1,1199,con,1116,2019-10-25_13h29.13.176,SurveyExpMetaMem,3.2.3,Win32,60
,,,,,,,,,,,,,,,,,,,,5,0.006999969,5,0.021000147,1,0,1200,638,1,1199,quench,1116,2019-10-25_13h29.13.176,SurveyExpMetaMem,3.2.3,Win32,60
,,,,,,,,,,,,,,,,,,,,5,0.010999918,5,0.021999836,1,0,1200,23,1,1199,earn,1116,2019-10-25_13h29.13.176,SurveyExpMetaMem,3.2.3,Win32,60
,,,,,,,,,,,,,,,,,,,,5,0.020999908,5,0.007999897,1,0,1200,940,1,1199,war,1116,2019-10-25_13h29.13.176,SurveyExpMetaMem,3.2.3,Win32,60
,,,,,,,,,,,,,,,,,,,,5,0.005000114,5,0.014000177,1,0,1200,750,1,1199,porpoise,1116,2019-10-25_13h29.13.176,SurveyExpMetaMem,3.2.3,Win32,60
,,,,,,,,,,,,,,,,,,,,5,0.024999857,5,0.017999887,1,0,1200,424,1,1199,fault,1116,2019-10-25_13h29.13.176,SurveyExpMetaMem,3.2.3,Win32,60
,,,,,,,,,,,,,,,,,,,,5,0.011000156,5,0.020999908,1,0,1200,841,1,1199,bathtub,1116,2019-10-25_13h29.13.176,SurveyExpMetaMem,3.2.3,Win32,60
,,,,,,,,,,,,,,,,,,,,5,0.017000198,5,0.013000011,1,0,1200,958,1,1199,traitor,1116,2019-10-25_13h29.13.176,SurveyExpMetaMem,3.2.3,Win32,60
,,,,,,,,,,,,,,,,,,,,5,0.019999981,5,0.019999981,1,0,1200,766,1,1199,flag,1116,2019-10-25_13h29.13.176,SurveyExpMetaMem,3.2.3,Win32,60
,,,,,,,,,,,,,,,,,,,,5,0.016000032,5,0.008999825,1,0,1200,1148,1,1199,suspicious,1116,2019-10-25_13h29.13.176,SurveyExpMetaMem,3.2.3,Win32,60
,,,,,,,,,,,,,,,,,,,,5,0.009000063,5,0.022000074,1,0,1200,281,1,1199,summer,1116,2019-10-25_13h29.13.176,SurveyExpMetaMem,3.2.3,Win32,60
,,,,,,,,,,,,,,,,,,,,5,0.012000084,5,0.022000074,1,0,1200,27,1,1199,gourmet,1116,2019-10-25_13h29.13.176,SurveyExpMetaMem,3.2.3,Win32,60
,,,,,,,,,,,,,,,,,,,,5,0.019000053,5,0.01699996,1,0,1200,707,1,1199,adapt,1116,2019-10-25_13h29.13.176,SurveyExpMetaMem,3.2.3,Win32,60
,,,,,,,,,,,,,,,,,,,,5,0.00999999,5,0.017000198,1,0,1200,952,1,1199,troubled,1116,2019-10-25_13h29.13.176,SurveyExpMetaMem,3.2.3,Win32,60
,,,,,,,,,,,,,,,,,,,,5,0.012000084,5,0.023000002,1,0,1200,892,1,1199,untroubled,1116,2019-10-25_13h29.13.176,SurveyExpMetaMem,3.2.3,Win32,60
,,,,,,,,,,,,,,,,,,,,5,0.014999866,5,0.027999878,1,0,1200,287,1,1199,optimistic,1116,2019-10-25_13h29.13.176,SurveyExpMetaMem,3.2.3,Win32,60
,,,,,,,,,,,,,,,,,,,,5,0.018000126,5,0.014000177,1,0,1200,1129,1,1199,spanking,1116,2019-10-25_13h29.13.176,SurveyExpMetaMem,3.2.3,Win32,60
,,,,,,,,,,,,,,,,,,,,5,0.023999929,5,0.020999908,1,0,1200,175,1,1199,playground,1116,2019-10-25_13h29.13.176,SurveyExpMetaMem,3.2.3,Win32,60
,,,,,,,,,,,,,,,,,,,,5,0.013999939,5,0.023999929,1,0,1200,1026,1,1199,crisis,1116,2019-10-25_13h29.13.176,SurveyExpMetaMem,3.2.3,Win32,60
,,,,,,,,,,,,,,,,,,,,5,0.018999815,5,0.009000063,1,0,1200,932,1,1199,bankrupt,1116,2019-10-25_13h29.13.176,SurveyExpMetaMem,3.2.3,Win32,60
,,,,,,,,,,,,,,,,,,,,5,0.019000053,5,0.013999939,1,0,1200,653,1,1199,detail,1116,2019-10-25_13h29.13.176,SurveyExpMetaMem,3.2.3,Win32,60
,,,,,,,,,,,,,,,,,,,,5,0.023000002,5,0.019000053,1,0,1200,727,1,1199,author,1116,2019-10-25_13h29.13.176,SurveyExpMetaMem,3.2.3,Win32,60
,,,,,,,,,,,,,,,,,,,,5,0.00999999,5,0.022000074,1,0,1200,733,1,1199,poetry,1116,2019-10-25_13h29.13.176,SurveyExpMetaMem,3.2.3,Win32,60
,,,,,,,,,,,,,,,,,,,,5,0.01699996,5,0.008999825,1,0,1200,1062,1,1199,shoplifter,1116,2019-10-25_13h29.13.176,SurveyExpMetaMem,3.2.3,Win32,60
,,,,,,,,,,,,,,,,,,,,5,0.018999815,5,0.012000084,1,0,1200,1066,1,1199,annoy,1116,2019-10-25_13h29.13.176,SurveyExpMetaMem,3.2.3,Win32,60
,,,,,,,,,,,,,,,,,,,,5,0.020999908,5,0.020000219,1,0,1200,988,1,1199,deserter,1116,2019-10-25_13h29.13.176,SurveyExpMetaMem,3.2.3,Win32,60
,,,,,,,,,,,,,,,,,,,,5,0.00999999,5,0.019000053,1,0,1200,580,1,1199,fur,1116,2019-10-25_13h29.13.176,SurveyExpMetaMem,3.2.3,Win32,60
,,,,,,,,,,,,,,,,,,,,5,0.011999846,5,0.023000002,1,0,1200,579,1,1199,bus,1116,2019-10-25_13h29.13.176,SurveyExpMetaMem,3.2.3,Win32,60
,,,,,,,,,,,,,,,,,,,,5,0.018999815,5,0.00999999,1,0,1200,712,1,1199,harvest,1116,2019-10-25_13h29.13.176,SurveyExpMetaMem,3.2.3,Win32,60
,,,,,,,,,,,,,,,,,,,,5,0.021000147,5,0.013999939,1,0,1200,196,1,1199,smile,1116,2019-10-25_13h29.13.176,SurveyExpMetaMem,3.2.3,Win32,60
,,,,,,,,,,,,,,,,,,,,5,0.023000002,5,0.018000126,1,0,1200,473,1,1199,senseless,1116,2019-10-25_13h29.13.176,SurveyExpMetaMem,3.2.3,Win32,60
,,,,,,,,,,,,,,,,,,,,5,0.011000156,5,0.023000002,1,0,1200,111,1,1199,band,1116,2019-10-25_13h29.13.176,SurveyExpMetaMem,3.2.3,Win32,60
,,,,,,,,,,,,,,,,,,,,5,0.017000198,5,0.008999825,1,0,1200,502,1,1199,crap,1116,2019-10-25_13h29.13.176,SurveyExpMetaMem,3.2.3,Win32,60
,,,,,,,,,,,,,,,,,,,,5,0.022000074,5,0.013999939,1,0,1200,749,1,1199,glasses,1116,2019-10-25_13h29.13.176,SurveyExpMetaMem,3.2.3,Win32,60
,,,,,,,,,,,,,,,,,,,,5,0.023999929,5,0.019000053,1,0,1200,555,1,1199,school,1116,2019-10-25_13h29.13.176,SurveyExpMetaMem,3.2.3,Win32,60
,,,,,,,,,,,,,,,,,,,,5,0.012000084,5,0.024999857,1,0,1200,718,1,1199,flow,1116,2019-10-25_13h29.13.176,SurveyExpMetaMem,3.2.3,Win32,60
,,,,,,,,,,,,,,,,,,,,5,0.019000053,5,0.013000011,1,0,1200,973,1,1199,anger,1116,2019-10-25_13h29.13.176,SurveyExpMetaMem,3.2.3,Win32,60
,,,,,,,,,,,,,,,,,,,,5,0.023999929,5,0.019999981,1,0,1200,864,1,1199,blanket,1116,2019-10-25_13h29.13.176,SurveyExpMetaMem,3.2.3,Win32,60
,,,,,,,,,,,,,,,,,,,,5,0.010999918,5,0.024999857,1,0,1200,33,1,1199,sister,1116,2019-10-25_13h29.13.176,SurveyExpMetaMem,3.2.3,Win32,60
,,,,,,,,,,,,,,,,,,,,5,0.01699996,5,0.008000135,1,0,1200,492,1,1199,naive,1116,2019-10-25_13h29.13.176,SurveyExpMetaMem,3.2.3,Win32,60
,,,,,,,,,,,,,,,,,,,,5,0.019000053,5,0.013999939,1,0,1200,183,1,1199,congratulate,1116,2019-10-25_13h29.13.176,SurveyExpMetaMem,3.2.3,Win32,60
,,,,,,,,,,,,,,,,,,,,5,0.023999929,5,0.018000126,1,0,1200,443,1,1199,incorrect,1116,2019-10-25_13h29.13.176,SurveyExpMetaMem,3.2.3,Win32,60
,,,,,,,,,,,,,,,,,,,,5,0.00999999,5,0.019999981,1,0,1200,499,1,1199,stop,1116,2019-10-25_13h29.13.176,SurveyExpMetaMem,3.2.3,Win32,60
,,,,,,,,,,,,,,,,,,,,5,0.013000011,5,0.026000023,1,0,1200,858,1,1199,donate,1116,2019-10-25_13h29.13.176,SurveyExpMetaMem,3.2.3,Win32,60
,,,,,,,,,,,,,,,,,,,,5,0.018000126,5,0.011000156,1,0,1200,662,1,1199,bib,1116,2019-10-25_13h29.13.176,SurveyExpMetaMem,3.2.3,Win32,60
,,,,,,,,,,,,,,,,,,,,5,0.022000074,5,0.017999887,1,0,1200,278,1,1199,king,1116,2019-10-25_13h29.13.176,SurveyExpMetaMem,3.2.3,Win32,60
,,,,,,,,,,,,,,,,,,,,5,0.007999897,5,0.018999815,1,0,1200,560,1,1199,spurn,1116,2019-10-25_13h29.13.176,SurveyExpMetaMem,3.2.3,Win32,60
,,,,,,,,,,,,,,,,,,,,5,0.011000156,5,0.023000002,1,0,1200,126,1,1199,rich,1116,2019-10-25_13h29.13.176,SurveyExpMetaMem,3.2.3,Win32,60
,,,,,,,,,,,,,,,,,,,,5,0.018000126,5,0.010999918,1,0,1200,875,1,1199,fluffy,1116,2019-10-25_13h29.13.176,SurveyExpMetaMem,3.2.3,Win32,60
,,,,,,,,,,,,,,,,,,,,5,0.021000147,5,0.015000105,1,0,1200,596,1,1199,factory,1116,2019-10-25_13h29.13.176,SurveyExpMetaMem,3.2.3,Win32,60
,,,,,,,,,,,,,,,,,,,,5,0.024000168,5,0.019999981,1,0,1200,1161,1,1199,shock,1116,2019-10-25_13h29.13.176,SurveyExpMetaMem,3.2.3,Win32,60
,,,,,,,,,,,,,,,,,,,,5,0.00999999,5,0.023000002,1,0,1200,229,1,1199,heaven,1116,2019-10-25_13h29.13.176,SurveyExpMetaMem,3.2.3,Win32,60
,,,,,,,,,,,,,,,,,,,,5,0.01699996,5,0.011000156,1,0,1200,816,1,1199,hippotamus,1116,2019-10-25_13h29.13.176,SurveyExpMetaMem,3.2.3,Win32,60
,,,,,,,,,,,,,,,,,,,,5,0.019000053,5,0.011000156,1,0,1200,187,1,1199,excite,1116,2019-10-25_13h29.13.176,SurveyExpMetaMem,3.2.3,Win32,60
,,,,,,,,,,,,,,,,,,,,5,0.023000002,5,0.017000198,1,0,1200,1092,1,1199,rattlesnake,1116,2019-10-25_13h29.13.176,SurveyExpMetaMem,3.2.3,Win32,60
,,,,,,,,,,,,,,,,,,,,5,0.012000084,5,0.022000074,1,0,1200,959,1,1199,divorce,1116,2019-10-25_13h29.13.176,SurveyExpMetaMem,3.2.3,Win32,60
,,,,,,,,,,,,,,,,,,,,5,0.017999887,5,0.00999999,1,0,1200,747,1,1199,furniture,1116,2019-10-25_13h29.13.176,SurveyExpMetaMem,3.2.3,Win32,60
,,,,,,,,,,,,,,,,,,,,5,0.020999908,5,0.019000053,1,0,1200,1197,1,1199,command,1116,2019-10-25_13h29.13.176,SurveyExpMetaMem,3.2.3,Win32,60
,,,,,,,,,,,,,,,,,,,,5,0.006999969,5,0.020999908,1,0,1200,1024,1,1199,burn,1116,2019-10-25_13h29.13.176,SurveyExpMetaMem,3.2.3,Win32,60
,,,,,,,,,,,,,,,,,,,,5,0.013000011,5,0.026000023,1,0,1200,344,1,1199,pessimistic,1116,2019-10-25_13h29.13.176,SurveyExpMetaMem,3.2.3,Win32,60
,,,,,,,,,,,,,,,,,,,,5,0.019000053,5,0.013000011,1,0,1200,1171,1,1199,chaos,1116,2019-10-25_13h29.13.176,SurveyExpMetaMem,3.2.3,Win32,60
,,,,,,,,,,,,,,,,,,,,5,0.024999857,5,0.019000053,1,0,1200,799,1,1199,precise,1116,2019-10-25_13h29.13.176,SurveyExpMetaMem,3.2.3,Win32,60
,,,,,,,,,,,,,,,,,,,,5,0.012000084,5,0.023000002,1,0,1200,1029,1,1199,abduction,1116,2019-10-25_13h29.13.176,SurveyExpMetaMem,3.2.3,Win32,60
,,,,,,,,,,,,,,,,,,,,5,0.017000198,5,0.010999918,1,0,1200,934,1,1199,sob,1116,2019-10-25_13h29.13.176,SurveyExpMetaMem,3.2.3,Win32,60
,,,,,,,,,,,,,,,,,,,,5,0.021000147,5,0.018000126,1,0,1200,1153,1,1199,mangle,1116,2019-10-25_13h29.13.176,SurveyExpMetaMem,3.2.3,Win32,60
,,,,,,,,,,,,,,,,,,,,5,0.00999999,5,0.021999836,1,0,1200,144,1,1199,aroused,1116,2019-10-25_13h29.13.176,SurveyExpMetaMem,3.2.3,Win32,60
,,,,,,,,,,,,,,,,,,,,5,0.017999887,5,0.009000063,1,0,1200,34,1,1199,personality,1116,2019-10-25_13h29.13.176,SurveyExpMetaMem,3.2.3,Win32,60
,,,,,,,,,,,,,,,,,,,,5,0.020999908,5,0.016000032,1,0,1200,968,1,1199,insult,1116,2019-10-25_13h29.13.176,SurveyExpMetaMem,3.2.3,Win32,60
,,,,,,,,,,,,,,,,,,,,5,0.023000002,5,0.019000053,1,0,1200,825,1,1199,swan,1116,2019-10-25_13h29.13.176,SurveyExpMetaMem,3.2.3,Win32,60
,,,,,,,,,,,,,,,,,,,,5,0.013000011,5,0.024000168,1,0,1200,197,1,1199,happy,1116,2019-10-25_13h29.13.176,SurveyExpMetaMem,3.2.3,Win32,60
,,,,,,,,,,,,,,,,,,,,5,0.017999887,5,0.011999846,1,0,1200,514,1,1199,defer,1116,2019-10-25_13h29.13.176,SurveyExpMetaMem,3.2.3,Win32,60
,,,,,,,,,,,,,,,,,,,,5,0.024000168,5,0.019000053,1,0,1200,270,1,1199,toddler,1116,2019-10-25_13h29.13.176,SurveyExpMetaMem,3.2.3,Win32,60
,,,,,,,,,,,,,,,,,,,,5,0.00999999,5,0.023000002,1,0,1200,664,1,1199,quiet,1116,2019-10-25_13h29.13.176,SurveyExpMetaMem,3.2.3,Win32,60
,,,,,,,,,,,,,,,,,,,,5,0.01699996,5,0.00999999,1,0,1200,1187,1,1199,drill,1116,2019-10-25_13h29.13.176,SurveyExpMetaMem,3.2.3,Win32,60
,,,,,,,,,,,,,,,,,,,,5,0.021000147,5,0.01699996,1,0,1200,899,1,1199,relax,1116,2019-10-25_13h29.13.176,SurveyExpMetaMem,3.2.3,Win32,60
,,,,,,,,,,,,,,,,,,,,5,0.024999857,5,0.020000219,1,0,1200,798,1,1199,crystal,1116,2019-10-25_13h29.13.176,SurveyExpMetaMem,3.2.3,Win32,60
,,,,,,,,,,,,,,,,,,,,5,0.013000011,5,0.024999857,1,0,1200,140,1,1199,riches,1116,2019-10-25_13h29.13.176,SurveyExpMetaMem,3.2.3,Win32,60
,,,,,,,,,,,,,,,,,,,,5,0.019999981,5,0.015000105,1,0,1200,330,1,1199,sunburn,1116,2019-10-25_13h29.13.176,SurveyExpMetaMem,3.2.3,Win32,60
,,,,,,,,,,,,,,,,,,,,5,0.023000002,5,0.017999887,1,0,1200,1119,1,1199,confusion,1116,2019-10-25_13h29.13.176,SurveyExpMetaMem,3.2.3,Win32,60
,,,,,,,,,,,,,,,,,,,,5,0.012000084,5,0.024000168,1,0,1200,513,1,1199,bland,1116,2019-10-25_13h29.13.176,SurveyExpMetaMem,3.2.3,Win32,60
,,,,,,,,,,,,,,,,,,,,5,0.018000126,5,0.00999999,1,0,1200,241,1,1199,car,1116,2019-10-25_13h29.13.176,SurveyExpMetaMem,3.2.3,Win32,60
,,,,,,,,,,,,,,,,,,,,5,0.022000074,5,0.019000053,1,0,1200,1166,1,1199,compulsive,1116,2019-10-25_13h29.13.176,SurveyExpMetaMem,3.2.3,Win32,60
,,,,,,,,,,,,,,,,,,,,5,0.00999999,5,0.022000074,1,0,1200,311,1,1199,discomfort,1116,2019-10-25_13h29.13.176,SurveyExpMetaMem,3.2.3,Win32,60
,,,,,,,,,,,,,,,,,,,,5,0.017999887,5,0.007999897,1,0,1200,971,1,1199,crash,1116,2019-10-25_13h29.13.176,SurveyExpMetaMem,3.2.3,Win32,60
,,,,,,,,,,,,,,,,,,,,5,0.017999887,5,0.011999846,1,0,1200,1045,1,1199,scalding,1116,2019-10-25_13h29.13.176,SurveyExpMetaMem,3.2.3,Win32,60
,,,,,,,,,,,,,,,,,,,,5,0.020999908,5,0.019000053,1,0,1200,442,1,1199,foolish,1116,2019-10-25_13h29.13.176,SurveyExpMetaMem,3.2.3,Win32,60
,,,,,,,,,,,,,,,,,,,,5,0.009000063,5,0.019999981,1,0,1200,1077,1,1199,unsure,1116,2019-10-25_13h29.13.176,SurveyExpMetaMem,3.2.3,Win32,60
,,,,,,,,,,,,,,,,,,,,5,0.012000084,5,0.025000095,1,0,1200,64,1,1199,brain,1116,2019-10-25_13h29.13.176,SurveyExpMetaMem,3.2.3,Win32,60
,,,,,,,,,,,,,,,,,,,,5,0.017999887,5,0.00999999,1,0,1200,716,1,1199,blouse,1116,2019-10-25_13h29.13.176,SurveyExpMetaMem,3.2.3,Win32,60
,,,,,,,,,,,,,,,,,,,,5,0.020999908,5,0.015000105,1,0,1200,391,1,1199,detach,1116,2019-10-25_13h29.13.176,SurveyExpMetaMem,3.2.3,Win32,60
,,,,,,,,,,,,,,,,,,,,5,0.024999857,5,0.019000053,1,0,1200,1048,1,1199,paranoid,1116,2019-10-25_13h29.13.176,SurveyExpMetaMem,3.2.3,Win32,60
,,,,,,,,,,,,,,,,,,,,5,0.00999999,5,0.023999929,1,0,1200,170,1,1199,entertainment,1116,2019-10-25_13h29.13.176,SurveyExpMetaMem,3.2.3,Win32,60
,,,,,,,,,,,,,,,,,,,,5,0.018000126,5,0.00999999,1,0,1200,503,1,1199,sludge,1116,2019-10-25_13h29.13.176,SurveyExpMetaMem,3.2.3,Win32,60
,,,,,,,,,,,,,,,,,,,,5,0.021000147,5,0.011000156,1,0,1200,199,1,1199,laughter,1116,2019-10-25_13h29.13.176,SurveyExpMetaMem,3.2.3,Win32,60
,,,,,,,,,,,,,,,,,,,,5,0.024000168,5,0.020000219,1,0,1200,331,1,1199,casket,1116,2019-10-25_13h29.13.176,SurveyExpMetaMem,3.2.3,Win32,60
,,,,,,,,,,,,,,,,,,,,5,0.00999999,5,0.020999908,1,0,1200,113,1,1199,bridesmaid,1116,2019-10-25_13h29.13.176,SurveyExpMetaMem,3.2.3,Win32,60
,,,,,,,,,,,,,,,,,,,,5,0.018000126,5,0.009000063,1,0,1200,999,1,1199,burdened,1116,2019-10-25_13h29.13.176,SurveyExpMetaMem,3.2.3,Win32,60
,,,,,,,,,,,,,,,,,,,,5,0.018999815,5,0.011999846,1,0,1200,396,1,1199,unpopular,1116,2019-10-25_13h29.13.176,SurveyExpMetaMem,3.2.3,Win32,60
,,,,,,,,,,,,,,,,,,,,5,0.023000002,5,0.017999887,1,0,1200,120,1,1199,imaginative,1116,2019-10-25_13h29.13.176,SurveyExpMetaMem,3.2.3,Win32,60
,,,,,,,,,,,,,,,,,,,,5,0.008000135,5,0.019999981,1,0,1200,734,1,1199,piano,1116,2019-10-25_13h29.13.176,SurveyExpMetaMem,3.2.3,Win32,60
,,,,,,,,,,,,,,,,,,,,5,0.013000011,5,0.024999857,1,0,1200,283,1,1199,elated,1116,2019-10-25_13h29.13.176,SurveyExpMetaMem,3.2.3,Win32,60
,,,,,,,,,,,,,,,,,,,,5,0.018000126,5,0.00999999,1,0,1200,764,1,1199,coin,1116,2019-10-25_13h29.13.176,SurveyExpMetaMem,3.2.3,Win32,60
,,,,,,,,,,,,,,,,,,,,5,0.021000147,5,0.016000032,1,0,1200,672,1,1199,ketchup,1116,2019-10-25_13h29.13.176,SurveyExpMetaMem,3.2.3,Win32,60
,,,,,,,,,,,,,,,,,,,,5,0.023999929,5,0.017999887,1,0,1200,602,1,1199,vegetable,1116,2019-10-25_13h29.13.176,SurveyExpMetaMem,3.2.3,Win32,60
,,,,,,,,,,,,,,,,,,,,5,0.010999918,5,0.020999908,1,0,1200,897,1,1199,peaceful,1116,2019-10-25_13h29.13.176,SurveyExpMetaMem,3.2.3,Win32,60
,,,,,,,,,,,,,,,,,,,,5,0.01699996,5,0.008000135,1,0,1200,519,1,1199,listless,1116,2019-10-25_13h29.13.176,SurveyExpMetaMem,3.2.3,Win32,60
,,,,,,,,,,,,,,,,,,,,5,0.019999981,5,0.012000084,1,0,1200,392,1,1199,moody,1116,2019-10-25_13h29.13.176,SurveyExpMetaMem,3.2.3,Win32,60
,,,,,,,,,,,,,,,,,,,,5,0.024000168,5,0.019999981,1,0,1200,778,1,1199,adorn,1116,2019-10-25_13h29.13.176,SurveyExpMetaMem,3.2.3,Win32,60
,,,,,,,,,,,,,,,,,,,,5,0.009000063,5,0.021000147,1,0,1200,803,1,1199,tidy,1116,2019-10-25_13h29.13.176,SurveyExpMetaMem,3.2.3,Win32,60
,,,,,,,,,,,,,,,,,,,,5,0.013000011,5,0.025000095,1,0,1200,69,1,1199,special,1116,2019-10-25_13h29.13.176,SurveyExpMetaMem,3.2.3,Win32,60
,,,,,,,,,,,,,,,,,,,,5,0.018000126,5,0.011000156,1,0,1200,260,1,1199,control,1116,2019-10-25_13h29.13.176,SurveyExpMetaMem,3.2.3,Win32,60
,,,,,,,,,,,,,,,,,,,,5,0.023000002,5,0.019000053,1,0,1200,496,1,1199,slow,1116,2019-10-25_13h29.13.176,SurveyExpMetaMem,3.2.3,Win32,60
,,,,,,,,,,,,,,,,,,,,5,0.00999999,5,0.021000147,1,0,1200,709,1,1199,ancestor,1116,2019-10-25_13h29.13.176,SurveyExpMetaMem,3.2.3,Win32,60
,,,,,,,,,,,,,,,,,,,,5,0.014000177,5,0.026000023,1,0,1200,147,1,1199,cure,1116,2019-10-25_13h29.13.176,SurveyExpMetaMem,3.2.3,Win32,60
,,,,,,,,,,,,,,,,,,,,5,0.019999981,5,0.010999918,1,0,1200,941,1,1199,leprosy,1116,2019-10-25_13h29.13.176,SurveyExpMetaMem,3.2.3,Win32,60
,,,,,,,,,,,,,,,,,,,,5,0.023000002,5,0.019999981,1,0,1200,895,1,1199,peace,1116,2019-10-25_13h29.13.176,SurveyExpMetaMem,3.2.3,Win32,60
,,,,,,,,,,,,,,,,,,,,5,0.007999897,5,0.019999981,1,0,1200,550,1,1199,fart,1116,2019-10-25_13h29.13.176,SurveyExpMetaMem,3.2.3,Win32,60
,,,,,,,,,,,,,,,,,,,,5,0.010999918,5,0.024000168,1,0,1200,673,1,1199,bedspread,1116,2019-10-25_13h29.13.176,SurveyExpMetaMem,3.2.3,Win32,60
,,,,,,,,,,,,,,,,,,,,5,0.017999887,5,0.007999897,1,0,1200,1165,1,1199,revolt,1116,2019-10-25_13h29.13.176,SurveyExpMetaMem,3.2.3,Win32,60
,,,,,,,,,,,,,,,,,,,,5,0.019999981,5,0.012000084,1,0,1200,102,1,1199,motorcycle,1116,2019-10-25_13h29.13.176,SurveyExpMetaMem,3.2.3,Win32,60
,,,,,,,,,,,,,,,,,,,,5,0.023999929,5,0.018000126,1,0,1200,129,1,1199,fly,1116,2019-10-25_13h29.13.176,SurveyExpMetaMem,3.2.3,Win32,60
,,,,,,,,,,,,,,,,,,,,5,0.00999999,5,0.02699995,1,0,1200,333,1,1199,weak,1116,2019-10-25_13h29.13.176,SurveyExpMetaMem,3.2.3,Win32,60
,,,,,,,,,,,,,,,,,,,,5,0.013999939,5,0.026000023,1,0,1200,640,1,1199,cabin,1116,2019-10-25_13h29.13.176,SurveyExpMetaMem,3.2.3,Win32,60
,,,,,,,,,,,,,,,,,,,,5,0.019000053,5,0.012000084,1,0,1200,198,1,1199,comedy,1116,2019-10-25_13h29.13.176,SurveyExpMetaMem,3.2.3,Win32,60
,,,,,,,,,,,,,,,,,,,,5,0.020999908,5,0.019000053,1,0,1200,30,1,1199,impressed,1116,2019-10-25_13h29.13.176,SurveyExpMetaMem,3.2.3,Win32,60
,,,,,,,,,,,,,,,,,,,,5,0.007999897,5,0.021000147,1,0,1200,1145,1,1199,officer,1116,2019-10-25_13h29.13.176,SurveyExpMetaMem,3.2.3,Win32,60
,,,,,,,,,,,,,,,,,,,,5,0.013000011,5,0.024000168,1,0,1200,446,1,1199,greedy,1116,2019-10-25_13h29.13.176,SurveyExpMetaMem,3.2.3,Win32,60
,,,,,,,,,,,,,,,,,,,,5,0.020000219,5,0.010999918,1,0,1200,104,1,1199,freeway,1116,2019-10-25_13h29.13.176,SurveyExpMetaMem,3.2.3,Win32,60
,,,,,,,,,,,,,,,,,,,,5,0.019999981,5,0.013999939,1,0,1200,83,1,1199,appreciative,1116,2019-10-25_13h29.13.176,SurveyExpMetaMem,3.2.3,Win32,60
,,,,,,,,,,,,,,,,,,,,5,0.025000095,5,0.019000053,1,0,1200,717,1,1199,modest,1116,2019-10-25_13h29.13.176,SurveyExpMetaMem,3.2.3,Win32,60
,,,,,,,,,,,,,,,,,,,,5,0.00999999,5,0.023000002,1,0,1200,1160,1,1199,enlist,1116,2019-10-25_13h29.13.176,SurveyExpMetaMem,3.2.3,Win32,60
,,,,,,,,,,,,,,,,,,,,5,0.017999887,5,0.010999918,1,0,1200,890,1,1199,carefree,1116,2019-10-25_13h29.13.176,SurveyExpMetaMem,3.2.3,Win32,60
,,,,,,,,,,,,,,,,,,,,5,0.020999908,5,0.017999887,1,0,1200,387,1,1199,tax,1116,2019-10-25_13h29.13.176,SurveyExpMetaMem,3.2.3,Win32,60
,,,,,,,,,,,,,,,,,,,,5,0.009000063,5,0.019999981,1,0,1200,163,1,1199,gem,1116,2019-10-25_13h29.13.176,SurveyExpMetaMem,3.2.3,Win32,60
,,,,,,,,,,,,,,,,,,,,5,0.015000105,5,0.025000095,1,0,1200,714,1,1199,courtyard,1116,2019-10-25_13h29.13.176,SurveyExpMetaMem,3.2.3,Win32,60
,,,,,,,,,,,,,,,,,,,,5,0.019999981,5,0.011000156,1,0,1200,176,1,1199,champ,1116,2019-10-25_13h29.13.176,SurveyExpMetaMem,3.2.3,Win32,60
,,,,,,,,,,,,,,,,,,,,5,0.022000074,5,0.017000198,1,0,1200,413,1,1199,deficient,1116,2019-10-25_13h29.13.176,SurveyExpMetaMem,3.2.3,Win32,60
,,,,,,,,,,,,,,,,,,,,5,0.024999857,5,0.019999981,1,0,1200,1067,1,1199,wicked,1116,2019-10-25_13h29.13.176,SurveyExpMetaMem,3.2.3,Win32,60
,,,,,,,,,,,,,,,,,,,,5,0.013999939,5,0.024999857,1,0,1200,414,1,1199,pity,1116,2019-10-25_13h29.13.176,SurveyExpMetaMem,3.2.3,Win32,60
,,,,,,,,,,,,,,,,,,,,5,0.017000198,5,0.010999918,1,0,1200,96,1,1199,joke,1116,2019-10-25_13h29.13.176,SurveyExpMetaMem,3.2.3,Win32,60
,,,,,,,,,,,,,,,,,,,,5,0.019999981,5,0.014999866,1,0,1200,523,1,1199,witch,1116,2019-10-25_13h29.13.176,SurveyExpMetaMem,3.2.3,Win32,60
,,,,,,,,,,,,,,,,,,,,5,0.024000168,5,0.019999981,1,0,1200,233,1,1199,exhilaration,1116,2019-10-25_13h29.13.176,SurveyExpMetaMem,3.2.3,Win32,60
,,,,,,,,,,,,,,,,,,,,5,0.010999918,5,0.022000074,1,0,1200,852,1,1199,caring,1116,2019-10-25_13h29.13.176,SurveyExpMetaMem,3.2.3,Win32,60
,,,,,,,,,,,,,,,,,,,,5,0.017000198,5,0.008000135,1,0,1200,1124,1,1199,seize,1116,2019-10-25_13h29.13.176,SurveyExpMetaMem,3.2.3,Win32,60
,,,,,,,,,,,,,,,,,,,,5,0.019000053,5,0.012000084,1,0,1200,1147,1,1199,demand,1116,2019-10-25_13h29.13.176,SurveyExpMetaMem,3.2.3,Win32,60
,,,,,,,,,,,,,,,,,,,,5,0.023000002,5,0.019000053,1,0,1200,474,1,1199,weary,1116,2019-10-25_13h29.13.176,SurveyExpMetaMem,3.2.3,Win32,60
,,,,,,,,,,,,,,,,,,,,5,0.007999897,5,0.019999981,1,0,1200,684,1,1199,send,1116,2019-10-25_13h29.13.176,SurveyExpMetaMem,3.2.3,Win32,60
,,,,,,,,,,,,,,,,,,,,5,0.013000011,5,0.023000002,1,0,1200,379,1,1199,slob,1116,2019-10-25_13h29.13.176,SurveyExpMetaMem,3.2.3,Win32,60
,,,,,,,,,,,,,,,,,,,,5,0.018000126,5,0.00999999,1,0,1200,292,1,1199,birthday,1116,2019-10-25_13h29.13.176,SurveyExpMetaMem,3.2.3,Win32,60
,,,,,,,,,,,,,,,,,,,,5,0.022000074,5,0.019999981,1,0,1200,771,1,1199,practical,1116,2019-10-25_13h29.13.176,SurveyExpMetaMem,3.2.3,Win32,60
,,,,,,,,,,,,,,,,,,,,5,0.009000063,5,0.020999908,1,0,1200,578,1,1199,govern,1116,2019-10-25_13h29.13.176,SurveyExpMetaMem,3.2.3,Win32,60
,,,,,,,,,,,,,,,,,,,,5,0.013000011,5,0.024999857,1,0,1200,1198,1,1199,lightning,1116,2019-10-25_13h29.13.176,SurveyExpMetaMem,3.2.3,Win32,60
,,,,,,,,,,,,,,,,,,,,5,0.019000053,5,0.012000084,1,0,1200,584,1,1199,anus,1116,2019-10-25_13h29.13.176,SurveyExpMetaMem,3.2.3,Win32,60
,,,,,,,,,,,,,,,,,,,,5,0.023000002,5,0.01699996,1,0,1200,793,1,1199,virtue,1116,2019-10-25_13h29.13.176,SurveyExpMetaMem,3.2.3,Win32,60
,,,,,,,,,,,,,,,,,,,,5,0.00999999,5,0.023000002,1,0,1200,601,1,1199,roof,1116,2019-10-25_13h29.13.176,SurveyExpMetaMem,3.2.3,Win32,60
,,,,,,,,,,,,,,,,,,,,5,0.018999815,5,0.00999999,1,0,1200,171,1,1199,imagination,1116,2019-10-25_13h29.13.176,SurveyExpMetaMem,3.2.3,Win32,60
,,,,,,,,,,,,,,,,,,,,5,0.022000074,5,0.018999815,1,0,1200,902,1,1199,rejected,1116,2019-10-25_13h29.13.176,SurveyExpMetaMem,3.2.3,Win32,60
,,,,,,,,,,,,,,,,,,,,5,0.009000063,5,0.020999908,1,0,1200,145,1,1199,me,1116,2019-10-25_13h29.13.176,SurveyExpMetaMem,3.2.3,Win32,60
,,,,,,,,,,,,,,,,,,,,5,0.017000198,5,0.009000063,1,0,1200,1015,1,1199,frighten,1116,2019-10-25_13h29.13.176,SurveyExpMetaMem,3.2.3,Win32,60
,,,,,,,,,,,,,,,,,,,,5,0.018999815,5,0.017999887,1,0,1200,1177,1,1199,pang,1116,2019-10-25_13h29.13.176,SurveyExpMetaMem,3.2.3,Win32,60
,,,,,,,,,,,,,,,,,,,,5,0.006999969,5,0.017999887,1,0,1200,619,1,1199,pulpit,1116,2019-10-25_13h29.13.176,SurveyExpMetaMem,3.2.3,Win32,60
,,,,,,,,,,,,,,,,,,,,5,0.011000156,5,0.023999929,1,0,1200,615,1,1199,lad,1116,2019-10-25_13h29.13.176,SurveyExpMetaMem,3.2.3,Win32,60
,,,,,,,,,,,,,,,,,,,,5,0.019000053,5,0.012000084,1,0,1200,146,1,1199,congratulations,1116,2019-10-25_13h29.13.176,SurveyExpMetaMem,3.2.3,Win32,60
,,,,,,,,,,,,,,,,,,,,5,0.023999929,5,0.019000053,1,0,1200,1035,1,1199,expel,1116,2019-10-25_13h29.13.176,SurveyExpMetaMem,3.2.3,Win32,60
,,,,,,,,,,,,,,,,,,,,5,0.010999918,5,0.021999836,1,0,1200,1083,1,1199,delayed,1116,2019-10-25_13h29.13.176,SurveyExpMetaMem,3.2.3,Win32,60
,,,,,,,,,,,,,,,,,,,,5,0.01699996,5,0.00999999,1,0,1200,466,1,1199,gnaw,1116,2019-10-25_13h29.13.176,SurveyExpMetaMem,3.2.3,Win32,60
,,,,,,,,,,,,,,,,,,,,5,0.019000053,5,0.015000105,1,0,1200,191,1,1199,compassion,1116,2019-10-25_13h29.13.176,SurveyExpMetaMem,3.2.3,Win32,60
,,,,,,,,,,,,,,,,,,,,5,0.025000095,5,0.019000053,1,0,1200,235,1,1199,cheery,1116,2019-10-25_13h29.13.176,SurveyExpMetaMem,3.2.3,Win32,60
,,,,,,,,,,,,,,,,,,,,5,0.014999866,5,0.025000095,1,0,1200,708,1,1199,nursery,1116,2019-10-25_13h29.13.176,SurveyExpMetaMem,3.2.3,Win32,60
,,,,,,,,,,,,,,,,,,,,5,0.019999981,5,0.013000011,1,0,1200,990,1,1199,enraged,1116,2019-10-25_13h29.13.176,SurveyExpMetaMem,3.2.3,Win32,60
,,,,,,,,,,,,,,,,,,,,5,0.025000095,5,0.017999887,1,0,1200,318,1,1199,disappointment,1116,2019-10-25_13h29.13.176,SurveyExpMetaMem,3.2.3,Win32,60
,,,,,,,,,,,,,,,,,,,,5,0.003000021,5,0.023000002,1,0,1200,740,1,1199,groceries,1116,2019-10-25_13h29.13.176,SurveyExpMetaMem,3.2.3,Win32,60
,,,,,,,,,,,,,,,,,,,,5,0.018000126,5,0.011000156,1,0,1200,132,1,1199,silly,1116,2019-10-25_13h29.13.176,SurveyExpMetaMem,3.2.3,Win32,60
,,,,,,,,,,,,,,,,,,,,5,0.023000002,5,0.018999815,1,0,1200,1012,1,1199,gunshot,1116,2019-10-25_13h29.13.176,SurveyExpMetaMem,3.2.3,Win32,60
,,,,,,,,,,,,,,,,,,,,5,0.008000135,5,0.020999908,1,0,1200,348,1,1199,impotent,1116,2019-10-25_13h29.13.176,SurveyExpMetaMem,3.2.3,Win32,60
,,,,,,,,,,,,,,,,,,,,5,0.012000084,5,0.023000002,1,0,1200,870,1,1199,safe,1116,2019-10-25_13h29.13.176,SurveyExpMetaMem,3.2.3,Win32,60
,,,,,,,,,,,,,,,,,,,,5,0.018999815,5,0.008999825,1,0,1200,1020,1,1199,malice,1116,2019-10-25_13h29.13.176,SurveyExpMetaMem,3.2.3,Win32,60
,,,,,,,,,,,,,,,,,,,,5,0.021000147,5,0.019999981,1,0,1200,114,1,1199,raise,1116,2019-10-25_13h29.13.176,SurveyExpMetaMem,3.2.3,Win32,60
,,,,,,,,,,,,,,,,,,,,5,0.006999969,5,0.019999981,1,0,1200,157,1,1199,reveal,1116,2019-10-25_13h29.13.176,SurveyExpMetaMem,3.2.3,Win32,60
,,,,,,,,,,,,,,,,,,,,5,0.012000084,5,0.023000002,1,0,1200,746,1,1199,proper,1116,2019-10-25_13h29.13.176,SurveyExpMetaMem,3.2.3,Win32,60
,,,,,,,,,,,,,,,,,,,,5,0.017999887,5,0.010999918,1,0,1200,456,1,1199,piss,1116,2019-10-25_13h29.13.176,SurveyExpMetaMem,3.2.3,Win32,60
,,,,,,,,,,,,,,,,,,,,5,0.021000147,5,0.019999981,1,0,1200,806,1,1199,tree,1116,2019-10-25_13h29.13.176,SurveyExpMetaMem,3.2.3,Win32,60
,,,,,,,,,,,,,,,,,,,,5,0.008000135,5,0.022000074,1,0,1200,980,1,1199,liar,1116,2019-10-25_13h29.13.176,SurveyExpMetaMem,3.2.3,Win32,60
,,,,,,,,,,,,,,,,,,,,5,0.014999866,5,0.025999784,1,0,1200,316,1,1199,sorrow,1116,2019-10-25_13h29.13.176,SurveyExpMetaMem,3.2.3,Win32,60
,,,,,,,,,,,,,,,,,,,,5,0.019999981,5,0.013000011,1,0,1200,883,1,1199,sky,1116,2019-10-25_13h29.13.176,SurveyExpMetaMem,3.2.3,Win32,60
,,,,,,,,,,,,,,,,,,,,5,0.023999929,5,0.018000126,1,0,1200,704,1,1199,flute,1116,2019-10-25_13h29.13.176,SurveyExpMetaMem,3.2.3,Win32,60
,,,,,,,,,,,,,,,,,,,,5,0.00999999,5,0.022000074,1,0,1200,90,1,1199,satisfaction,1116,2019-10-25_13h29.13.176,SurveyExpMetaMem,3.2.3,Win32,60
,,,,,,,,,,,,,,,,,,,,5,0.012000084,5,0.023999929,1,0,1200,910,1,1199,abusive,1116,2019-10-25_13h29.13.176,SurveyExpMetaMem,3.2.3,Win32,60
,,,,,,,,,,,,,,,,,,,,5,0.017999887,5,0.00999999,1,0,1200,408,1,1199,bore,1116,2019-10-25_13h29.13.176,SurveyExpMetaMem,3.2.3,Win32,60
,,,,,,,,,,,,,,,,,,,,5,0.019999981,5,0.019000053,1,0,1200,487,1,1199,junk,1116,2019-10-25_13h29.13.176,SurveyExpMetaMem,3.2.3,Win32,60
,,,,,,,,,,,,,,,,,,,,5,0.006999969,5,0.023000002,1,0,1200,804,1,1199,peach,1116,2019-10-25_13h29.13.176,SurveyExpMetaMem,3.2.3,Win32,60
,,,,,,,,,,,,,,,,,,,,5,0.010999918,5,0.023999929,1,0,1200,89,1,1199,cruiseship,1116,2019-10-25_13h29.13.176,SurveyExpMetaMem,3.2.3,Win32,60
,,,,,,,,,,,,,,,,,,,,5,0.01699996,5,0.00999999,1,0,1200,943,1,1199,trauma,1116,2019-10-25_13h29.13.176,SurveyExpMetaMem,3.2.3,Win32,60
,,,,,,,,,,,,,,,,,,,,5,0.019000053,5,0.013999939,1,0,1200,859,1,1199,serene,1116,2019-10-25_13h29.13.176,SurveyExpMetaMem,3.2.3,Win32,60
,,,,,,,,,,,,,,,,,,,,5,0.023999929,5,0.026000023,1,0,1200,732,1,1199,humble,1116,2019-10-25_13h29.13.176,SurveyExpMetaMem,3.2.3,Win32,60
,,,,,,,,,,,,,,,,,,,,5,0.012000084,5,0.021000147,1,0,1200,56,1,1199,spice,1116,2019-10-25_13h29.13.176,SurveyExpMetaMem,3.2.3,Win32,60
,,,,,,,,,,,,,,,,,,,,5,0.015000105,5,0.024000168,1,0,1200,298,1,1199,success,1116,2019-10-25_13h29.13.176,SurveyExpMetaMem,3.2.3,Win32,60
,,,,,,,,,,,,,,,,,,,,5,0.017999887,5,0.010999918,1,0,1200,380,1,1199,expire,1116,2019-10-25_13h29.13.176,SurveyExpMetaMem,3.2.3,Win32,60
,,,,,,,,,,,,,,,,,,,,5,0.020999908,5,0.019000053,1,0,1200,705,1,1199,tolerant,1116,2019-10-25_13h29.13.176,SurveyExpMetaMem,3.2.3,Win32,60
,,,,,,,,,,,,,,,,,,,,5,0.005999804,5,0.019999981,1,0,1200,1002,1,1199,wounds,1116,2019-10-25_13h29.13.176,SurveyExpMetaMem,3.2.3,Win32,60
,,,,,,,,,,,,,,,,,,,,5,0.00999999,5,0.019999981,1,0,1200,588,1,1199,bandage,1116,2019-10-25_13h29.13.176,SurveyExpMetaMem,3.2.3,Win32,60
,,,,,,,,,,,,,,,,,,,,5,0.016000032,5,0.007999897,1,0,1200,567,1,1199,folly,1116,2019-10-25_13h29.13.176,SurveyExpMetaMem,3.2.3,Win32,60
,,,,,,,,,,,,,,,,,,,,5,0.019999981,5,0.013999939,1,0,1200,406,1,1199,tired,1116,2019-10-25_13h29.13.176,SurveyExpMetaMem,3.2.3,Win32,60
,,,,,,,,,,,,,,,,,,,,5,0.024000168,5,0.020000219,1,0,1200,1141,1,1199,shark,1116,2019-10-25_13h29.13.176,SurveyExpMetaMem,3.2.3,Win32,60
,,,,,,,,,,,,,,,,,,,,5,0.00999999,5,0.021999836,1,0,1200,372,1,1199,inferior,1116,2019-10-25_13h29.13.176,SurveyExpMetaMem,3.2.3,Win32,60
,,,,,,,,,,,,,,,,,,,,5,0.012000084,5,0.027999878,1,0,1200,459,1,1199,heavy,1116,2019-10-25_13h29.13.176,SurveyExpMetaMem,3.2.3,Win32,60
,,,,,,,,,,,,,,,,,,,,5,0.019999981,5,0.013999939,1,0,1200,665,1,1199,read,1116,2019-10-25_13h29.13.176,SurveyExpMetaMem,3.2.3,Win32,60
,,,,,,,,,,,,,,,,,,,,5,0.023000002,5,0.020000219,1,0,1200,122,1,1199,prince,1116,2019-10-25_13h29.13.176,SurveyExpMetaMem,3.2.3,Win32,60
,,,,,,,,,,,,,,,,,,,,5,0.010999918,5,0.020999908,1,0,1200,430,1,1199,cancel,1116,2019-10-25_13h29.13.176,SurveyExpMetaMem,3.2.3,Win32,60
,,,,,,,,,,,,,,,,,,,,5,0.011999846,5,0.023000002,1,0,1200,47,1,1199,enjoy,1116,2019-10-25_13h29.13.176,SurveyExpMetaMem,3.2.3,Win32,60
,,,,,,,,,,,,,,,,,,,,5,0.019000053,5,0.011000156,1,0,1200,874,1,1199,butterfly,1116,2019-10-25_13h29.13.176,SurveyExpMetaMem,3.2.3,Win32,60
,,,,,,,,,,,,,,,,,,,,5,0.019999981,5,0.014999866,1,0,1200,173,1,1199,hope,1116,2019-10-25_13h29.13.176,SurveyExpMetaMem,3.2.3,Win32,60
,,,,,,,,,,,,,,,,,,,,5,0.026000023,5,0.019000053,1,0,1200,520,1,1199,gullible,1116,2019-10-25_13h29.13.176,SurveyExpMetaMem,3.2.3,Win32,60
,,,,,,,,,,,,,,,,,,,,5,0.013000011,5,0.021999836,1,0,1200,782,1,1199,open,1116,2019-10-25_13h29.13.176,SurveyExpMetaMem,3.2.3,Win32,60
,,,,,,,,,,,,,,,,,,,,5,0.019000053,5,0.011000156,1,0,1200,745,1,1199,inform,1116,2019-10-25_13h29.13.176,SurveyExpMetaMem,3.2.3,Win32,60
,,,,,,,,,,,,,,,,,,,,5,0.018999815,5,0.011000156,1,0,1200,93,1,1199,smiling,1116,2019-10-25_13h29.13.176,SurveyExpMetaMem,3.2.3,Win32,60
,,,,,,,,,,,,,,,,,,,,5,0.023999929,5,0.019000053,1,0,1200,797,1,1199,hamburger,1116,2019-10-25_13h29.13.176,SurveyExpMetaMem,3.2.3,Win32,60
,,,,,,,,,,,,,,,,,,,,5,0.009000063,5,0.021999836,1,0,1200,211,1,1199,surfer,1116,2019-10-25_13h29.13.176,SurveyExpMetaMem,3.2.3,Win32,60
,,,,,,,,,,,,,,,,,,,,5,0.013000011,5,0.02699995,1,0,1200,960,1,1199,irritated,1116,2019-10-25_13h29.13.176,SurveyExpMetaMem,3.2.3,Win32,60
,,,,,,,,,,,,,,,,,,,,5,0.019999981,5,0.013000011,1,0,1200,556,1,1199,allege,1116,2019-10-25_13h29.13.176,SurveyExpMetaMem,3.2.3,Win32,60
,,,,,,,,,,,,,,,,,,,,5,0.023000002,5,0.019000053,1,0,1200,1117,1,1199,court,1116,2019-10-25_13h29.13.176,SurveyExpMetaMem,3.2.3,Win32,60
,,,,,,,,,,,,,,,,,,,,5,0.00999999,5,0.021000147,1,0,1200,660,1,1199,rock,1116,2019-10-25_13h29.13.176,SurveyExpMetaMem,3.2.3,Win32,60
,,,,,,,,,,,,,,,,,,,,5,0.013000011,5,0.024999857,1,0,1200,878,1,1199,sleep,1116,2019-10-25_13h29.13.176,SurveyExpMetaMem,3.2.3,Win32,60
,,,,,,,,,,,,,,,,,,,,5,0.01699996,5,0.011000156,1,0,1200,565,1,1199,frozen,1116,2019-10-25_13h29.13.176,SurveyExpMetaMem,3.2.3,Win32,60
,,,,,,,,,,,,,,,,,,,,5,0.023000002,5,0.014999866,1,0,1200,323,1,1199,ungrateful,1116,2019-10-25_13h29.13.176,SurveyExpMetaMem,3.2.3,Win32,60
,,,,,,,,,,,,,,,,,,,,5,0.024999857,5,0.018999815,1,0,1200,429,1,1199,cough,1116,2019-10-25_13h29.13.176,SurveyExpMetaMem,3.2.3,Win32,60
,,,,,,,,,,,,,,,,,,,,5,0.011999846,5,0.023999929,1,0,1200,675,1,1199,golfer,1116,2019-10-25_13h29.13.176,SurveyExpMetaMem,3.2.3,Win32,60
,,,,,,,,,,,,,,,,,,,,5,0.019000053,5,0.009000063,1,0,1200,691,1,1199,circle,1116,2019-10-25_13h29.13.176,SurveyExpMetaMem,3.2.3,Win32,60
,,,,,,,,,,,,,,,,,,,,5,0.022000074,5,0.023999929,1,0,1200,512,1,1199,insect,1116,2019-10-25_13h29.13.176,SurveyExpMetaMem,3.2.3,Win32,60
,,,,,,,,,,,,,,,,,,,,5,0.024999857,5,0.019000053,1,0,1200,1105,1,1199,flee,1116,2019-10-25_13h29.13.176,SurveyExpMetaMem,3.2.3,Win32,60
,,,,,,,,,,,,,,,,,,,,5,0.00999999,5,0.023000002,1,0,1200,253,1,1199,soldier,1116,2019-10-25_13h29.13.176,SurveyExpMetaMem,3.2.3,Win32,60
,,,,,,,,,,,,,,,,,,,,5,0.015999794,5,0.02699995,1,0,1200,336,1,1199,wasteful,1116,2019-10-25_13h29.13.176,SurveyExpMetaMem,3.2.3,Win32,60
,,,,,,,,,,,,,,,,,,,,5,0.018000126,5,0.015999794,1,0,1200,936,1,1199,assault,1116,2019-10-25_13h29.13.176,SurveyExpMetaMem,3.2.3,Win32,60
,,,,,,,,,,,,,,,,,,,,5,0.026000023,5,0.019999981,1,0,1200,525,1,1199,stagnant,1116,2019-10-25_13h29.13.176,SurveyExpMetaMem,3.2.3,Win32,60
,,,,,,,,,,,,,,,,,,,,5,0.011999846,5,0.024000168,1,0,1200,301,1,1199,sad,1116,2019-10-25_13h29.13.176,SurveyExpMetaMem,3.2.3,Win32,60
,,,,,,,,,,,,,,,,,,,,5,0.019000053,5,0.010999918,1,0,1200,297,1,1199,pleasure,1116,2019-10-25_13h29.13.176,SurveyExpMetaMem,3.2.3,Win32,60
,,,,,,,,,,,,,,,,,,,,5,0.021999836,5,0.013999939,1,0,1200,1136,1,1199,appall,1116,2019-10-25_13h29.13.176,SurveyExpMetaMem,3.2.3,Win32,60
,,,,,,,,,,,,,,,,,,,,5,0.024999857,5,0.019000053,1,0,1200,71,1,1199,spirit,1116,2019-10-25_13h29.13.176,SurveyExpMetaMem,3.2.3,Win32,60
,,,,,,,,,,,,,,,,,,,,5,0.013000011,5,0.025000095,1,0,1200,98,1,1199,affection,1116,2019-10-25_13h29.13.176,SurveyExpMetaMem,3.2.3,Win32,60
,,,,,,,,,,,,,,,,,,,,5,0.019000053,5,0.011999846,1,0,1200,625,1,1199,hat,1116,2019-10-25_13h29.13.176,SurveyExpMetaMem,3.2.3,Win32,60
,,,,,,,,,,,,,,,,,,,,5,0.020999908,5,0.021000147,1,0,1200,419,1,1199,immature,1116,2019-10-25_13h29.13.176,SurveyExpMetaMem,3.2.3,Win32,60
,,,,,,,,,,,,,,,,,,,,5,0.009000063,5,0.020999908,1,0,1200,1121,1,1199,ban,1116,2019-10-25_13h29.13.176,SurveyExpMetaMem,3.2.3,Win32,60
,,,,,,,,,,,,,,,,,,,,5,0.013000011,5,0.023000002,1,0,1200,1098,1,1199,confused,1116,2019-10-25_13h29.13.176,SurveyExpMetaMem,3.2.3,Win32,60
,,,,,,,,,,,,,,,,,,,,5,0.017999887,5,0.00999999,1,0,1200,290,1,1199,enthusiasm,1116,2019-10-25_13h29.13.176,SurveyExpMetaMem,3.2.3,Win32,60
,,,,,,,,,,,,,,,,,,,,5,0.021000147,5,0.014000177,1,0,1200,31,1,1199,brownie,1116,2019-10-25_13h29.13.176,SurveyExpMetaMem,3.2.3,Win32,60
,,,,,,,,,,,,,,,,,,,,5,0.023000002,5,0.019999981,1,0,1200,869,1,1199,assure,1116,2019-10-25_13h29.13.176,SurveyExpMetaMem,3.2.3,Win32,60
,,,,,,,,,,,,,,,,,,,,5,0.010999918,5,0.023999929,1,0,1200,811,1,1199,tenderness,1116,2019-10-25_13h29.13.176,SurveyExpMetaMem,3.2.3,Win32,60
,,,,,,,,,,,,,,,,,,,,5,0.013000011,5,0.026000023,1,0,1200,1116,1,1199,emergency,1116,2019-10-25_13h29.13.176,SurveyExpMetaMem,3.2.3,Win32,60
,,,,,,,,,,,,,,,,,,,,5,0.019000053,5,0.013000011,1,0,1200,993,1,1199,remorse,1116,2019-10-25_13h29.13.176,SurveyExpMetaMem,3.2.3,Win32,60
,,,,,,,,,,,,,,,,,,,,5,0.023000002,5,0.019999981,1,0,1200,1044,1,1199,lost,1116,2019-10-25_13h29.13.176,SurveyExpMetaMem,3.2.3,Win32,60
,,,,,,,,,,,,,,,,,,,,5,0.009000063,5,0.021999836,1,0,1200,845,1,1199,honey,1116,2019-10-25_13h29.13.176,SurveyExpMetaMem,3.2.3,Win32,60
,,,,,,,,,,,,,,,,,,,,5,0.013000011,5,0.023000002,1,0,1200,461,1,1199,ail,1116,2019-10-25_13h29.13.176,SurveyExpMetaMem,3.2.3,Win32,60
