mouse_4.x,mouse_4.y,mouse_4.leftButton,mouse_4.midButton,mouse_4.rightButton,mouse.x,mouse.y,mouse.leftButton,mouse.midButton,mouse.rightButton,mouse_2.x,mouse_2.y,mouse_2.leftButton,mouse_2.midButton,mouse_2.rightButton,mouse_3.x,mouse_3.y,mouse_3.leftButton,mouse_3.midButton,mouse_3.rightButton,A_key_resp.keys,A_key_resp.rt,key_resp.keys,key_resp.rt,trials.thisRepN,trials.thisTrialN,trials.thisN,trials.thisIndex,trials.ran,trials.order,word,ParticipantID,date,expName,psychopyVersion,OS,frameRate
0.1425,-0.235,1,0,0,0.595,0.06625,1,0,0,0.50625,-0.10875,1,0,0,0.50625,-0.10875,1,0,0,5,19.62000012,8,7.46999979,1,0,1200,235,1,1199,cheery,11139,2019-10-21_17h08.10.979,SurveyExpMetaMem,3.2.3,MacIntel,60
,,,,,,,,,,,,,,,,,,,,9,9.029999971,9,9.147000074,1,0,1200,120,1,1199,imaginative,11139,2019-10-21_17h08.10.979,SurveyExpMetaMem,3.2.3,MacIntel,60
,,,,,,,,,,,,,,,,,,,,4,4.43599987,9,3.144999981,1,0,1200,848,1,1199,graceful,11139,2019-10-21_17h08.10.979,SurveyExpMetaMem,3.2.3,MacIntel,60
,,,,,,,,,,,,,,,,,,,,6,7.177999973,4,3.88499999,1,0,1200,476,1,1199,warden,11139,2019-10-21_17h08.10.979,SurveyExpMetaMem,3.2.3,MacIntel,60
,,,,,,,,,,,,,,,,,,,,5,6.290999889,5,1.197999954,1,0,1200,489,1,1199,timid,11139,2019-10-21_17h08.10.979,SurveyExpMetaMem,3.2.3,MacIntel,60
,,,,,,,,,,,,,,,,,,,,1,5.105999947,1,4.621999979,1,0,1200,766,1,1199,flag,11139,2019-10-21_17h08.10.979,SurveyExpMetaMem,3.2.3,MacIntel,60
,,,,,,,,,,,,,,,,,,,,6,5.173999786,7,6.368000031,1,0,1200,129,1,1199,fly,11139,2019-10-21_17h08.10.979,SurveyExpMetaMem,3.2.3,MacIntel,60
,,,,,,,,,,,,,,,,,,,,3,10.13400006,5,3.049000025,1,0,1200,422,1,1199,doubtful,11139,2019-10-21_17h08.10.979,SurveyExpMetaMem,3.2.3,MacIntel,60
,,,,,,,,,,,,,,,,,,,,5,6.190999985,5,0.527999878,1,0,1200,1010,1,1199,arson,11139,2019-10-21_17h08.10.979,SurveyExpMetaMem,3.2.3,MacIntel,60
,,,,,,,,,,,,,,,,,,,,3,4.487999916,3,1.145999908,1,0,1200,352,1,1199,negligent,11139,2019-10-21_17h08.10.979,SurveyExpMetaMem,3.2.3,MacIntel,60
,,,,,,,,,,,,,,,,,,,,6,4.588999987,6,2.682999849,1,0,1200,827,1,1199,saint,11139,2019-10-21_17h08.10.979,SurveyExpMetaMem,3.2.3,MacIntel,60
,,,,,,,,,,,,,,,,,,,,6,8.547999859,3,4.162999868,1,0,1200,1183,1,1199,emotional,11139,2019-10-21_17h08.10.979,SurveyExpMetaMem,3.2.3,MacIntel,60
,,,,,,,,,,,,,,,,,,,,9,3.987999916,9,0.929999828,1,0,1200,894,1,1199,sunset,11139,2019-10-21_17h08.10.979,SurveyExpMetaMem,3.2.3,MacIntel,60
,,,,,,,,,,,,,,,,,,,,4,3.802999973,7,2.770999908,1,0,1200,808,1,1199,violinist,11139,2019-10-21_17h08.10.979,SurveyExpMetaMem,3.2.3,MacIntel,60
,,,,,,,,,,,,,,,,,,,,5,3.894999981,5,0.780999899,1,0,1200,106,1,1199,voyage,11139,2019-10-21_17h08.10.979,SurveyExpMetaMem,3.2.3,MacIntel,60
,,,,,,,,,,,,,,,,,,,,8,7.044999838,1,2.048999786,1,0,1200,1012,1,1199,gunshot,11139,2019-10-21_17h08.10.979,SurveyExpMetaMem,3.2.3,MacIntel,60
,,,,,,,,,,,,,,,,,,,,5,2.750999928,5,0.444999933,1,0,1200,725,1,1199,checkerboard,11139,2019-10-21_17h08.10.979,SurveyExpMetaMem,3.2.3,MacIntel,60
,,,,,,,,,,,,,,,,,,,,7,3.503999949,9,2.181999922,1,0,1200,80,1,1199,wonderful,11139,2019-10-21_17h08.10.979,SurveyExpMetaMem,3.2.3,MacIntel,60
,,,,,,,,,,,,,,,,,,,,2,3.833999872,1,1.717000008,1,0,1200,1066,1,1199,annoy,11139,2019-10-21_17h08.10.979,SurveyExpMetaMem,3.2.3,MacIntel,60
,,,,,,,,,,,,,,,,,,,,6,5.687999964,3,3.011999846,1,0,1200,1186,1,1199,goddamn,11139,2019-10-21_17h08.10.979,SurveyExpMetaMem,3.2.3,MacIntel,60
,,,,,,,,,,,,,,,,,,,,5,1.947999954,5,0.360999823,1,0,1200,859,1,1199,serene,11139,2019-10-21_17h08.10.979,SurveyExpMetaMem,3.2.3,MacIntel,60
,,,,,,,,,,,,,,,,,,,,5,1.80099988,5,0.177999973,1,0,1200,1057,1,1199,deceit,11139,2019-10-21_17h08.10.979,SurveyExpMetaMem,3.2.3,MacIntel,60
,,,,,,,,,,,,,,,,,,,,5,12.57099986,3,4.521999836,1,0,1200,721,1,1199,contemporary,11139,2019-10-21_17h08.10.979,SurveyExpMetaMem,3.2.3,MacIntel,60
,,,,,,,,,,,,,,,,,,,,8,4.252000093,9,1.631999969,1,0,1200,130,1,1199,great,11139,2019-10-21_17h08.10.979,SurveyExpMetaMem,3.2.3,MacIntel,60
,,,,,,,,,,,,,,,,,,,,8,2.568000078,7,5.170999765,1,0,1200,875,1,1199,fluffy,11139,2019-10-21_17h08.10.979,SurveyExpMetaMem,3.2.3,MacIntel,60
,,,,,,,,,,,,,,,,,,,,7,3.854000092,8,1.447999954,1,0,1200,515,1,1199,blues,11139,2019-10-21_17h08.10.979,SurveyExpMetaMem,3.2.3,MacIntel,60
,,,,,,,,,,,,,,,,,,,,5,2.635999918,5,0.378000021,1,0,1200,480,1,1199,hinder,11139,2019-10-21_17h08.10.979,SurveyExpMetaMem,3.2.3,MacIntel,60
,,,,,,,,,,,,,,,,,,,,7,2.650999784,8,1.480999947,1,0,1200,669,1,1199,plaza,11139,2019-10-21_17h08.10.979,SurveyExpMetaMem,3.2.3,MacIntel,60
,,,,,,,,,,,,,,,,,,,,8,2.88499999,9,1.582999945,1,0,1200,813,1,1199,walking,11139,2019-10-21_17h08.10.979,SurveyExpMetaMem,3.2.3,MacIntel,60
,,,,,,,,,,,,,,,,,,,,9,4.565999746,9,1.348999977,1,0,1200,277,1,1199,cupcake,11139,2019-10-21_17h08.10.979,SurveyExpMetaMem,3.2.3,MacIntel,60
,,,,,,,,,,,,,,,,,,,,1,6.105999947,1,1.847999811,1,0,1200,439,1,1199,spit,11139,2019-10-21_17h08.10.979,SurveyExpMetaMem,3.2.3,MacIntel,60
,,,,,,,,,,,,,,,,,,,,6,2.977999926,9,2.150999784,1,0,1200,824,1,1199,favor,11139,2019-10-21_17h08.10.979,SurveyExpMetaMem,3.2.3,MacIntel,60
,,,,,,,,,,,,,,,,,,,,5,1.779999971,5,0.679000139,1,0,1200,613,1,1199,cup,11139,2019-10-21_17h08.10.979,SurveyExpMetaMem,3.2.3,MacIntel,60
,,,,,,,,,,,,,,,,,,,,9,2.434000015,9,2.11500001,1,0,1200,287,1,1199,optimistic,11139,2019-10-21_17h08.10.979,SurveyExpMetaMem,3.2.3,MacIntel,60
,,,,,,,,,,,,,,,,,,,,5,2.232999802,5,0.475999832,1,0,1200,717,1,1199,modest,11139,2019-10-21_17h08.10.979,SurveyExpMetaMem,3.2.3,MacIntel,60
,,,,,,,,,,,,,,,,,,,,5,1.163000107,5,0.262999773,1,0,1200,785,1,1199,pond,11139,2019-10-21_17h08.10.979,SurveyExpMetaMem,3.2.3,MacIntel,60
,,,,,,,,,,,,,,,,,,,,8,2.534999847,8,2.335999966,1,0,1200,172,1,1199,potential,11139,2019-10-21_17h08.10.979,SurveyExpMetaMem,3.2.3,MacIntel,60
,,,,,,,,,,,,,,,,,,,,2,3.133999825,1,2.399999857,1,0,1200,307,1,1199,sick,11139,2019-10-21_17h08.10.979,SurveyExpMetaMem,3.2.3,MacIntel,60
,,,,,,,,,,,,,,,,,,,,9,2.730999947,9,0.980999947,1,0,1200,775,1,1199,pancakes,11139,2019-10-21_17h08.10.979,SurveyExpMetaMem,3.2.3,MacIntel,60
,,,,,,,,,,,,,,,,,,,,5,2.497999907,5,0.379999876,1,0,1200,629,1,1199,barn,11139,2019-10-21_17h08.10.979,SurveyExpMetaMem,3.2.3,MacIntel,60
,,,,,,,,,,,,,,,,,,,,7,2.350999832,7,2.717000008,1,0,1200,820,1,1199,oxygen,11139,2019-10-21_17h08.10.979,SurveyExpMetaMem,3.2.3,MacIntel,60
,,,,,,,,,,,,,,,,,,,,4,2.56099987,3,2.517999887,1,0,1200,1148,1,1199,suspicious,11139,2019-10-21_17h08.10.979,SurveyExpMetaMem,3.2.3,MacIntel,60
,,,,,,,,,,,,,,,,,,,,5,1.946999788,5,0.395999908,1,0,1200,18,1,1199,mail,11139,2019-10-21_17h08.10.979,SurveyExpMetaMem,3.2.3,MacIntel,60
,,,,,,,,,,,,,,,,,,,,8,2.16899991,9,1.247999907,1,0,1200,139,1,1199,generosity,11139,2019-10-21_17h08.10.979,SurveyExpMetaMem,3.2.3,MacIntel,60
,,,,,,,,,,,,,,,,,,,,5,1.998999834,5,0.362999916,1,0,1200,781,1,1199,emerald,11139,2019-10-21_17h08.10.979,SurveyExpMetaMem,3.2.3,MacIntel,60
,,,,,,,,,,,,,,,,,,,,5,2.868000031,5,0.512999773,1,0,1200,1102,1,1199,nuclear,11139,2019-10-21_17h08.10.979,SurveyExpMetaMem,3.2.3,MacIntel,60
,,,,,,,,,,,,,,,,,,,,6,4.440999746,3,1.681999922,1,0,1200,995,1,1199,cult,11139,2019-10-21_17h08.10.979,SurveyExpMetaMem,3.2.3,MacIntel,60
,,,,,,,,,,,,,,,,,,,,8,2.078999996,7,1.358999968,1,0,1200,191,1,1199,compassion,11139,2019-10-21_17h08.10.979,SurveyExpMetaMem,3.2.3,MacIntel,60
,,,,,,,,,,,,,,,,,,,,6,3.237999916,8,1.896999836,1,0,1200,771,1,1199,practical,11139,2019-10-21_17h08.10.979,SurveyExpMetaMem,3.2.3,MacIntel,60
,,,,,,,,,,,,,,,,,,,,5,4.302999735,3,3.345999956,1,0,1200,398,1,1199,handicapped,11139,2019-10-21_17h08.10.979,SurveyExpMetaMem,3.2.3,MacIntel,60
,,,,,,,,,,,,,,,,,,,,5,7.569999933,1,1.799000025,1,0,1200,1071,1,1199,uncomfortable,11139,2019-10-21_17h08.10.979,SurveyExpMetaMem,3.2.3,MacIntel,60
,,,,,,,,,,,,,,,,,,,,9,1.846999884,9,0.945999861,1,0,1200,124,1,1199,honeymoon,11139,2019-10-21_17h08.10.979,SurveyExpMetaMem,3.2.3,MacIntel,60
,,,,,,,,,,,,,,,,,,,,3,2.514999866,1,3.437000036,1,0,1200,1024,1,1199,burn,11139,2019-10-21_17h08.10.979,SurveyExpMetaMem,3.2.3,MacIntel,60
,,,,,,,,,,,,,,,,,,,,9,1.628999949,9,0.980999947,1,0,1200,115,1,1199,sexual,11139,2019-10-21_17h08.10.979,SurveyExpMetaMem,3.2.3,MacIntel,60
,,,,,,,,,,,,,,,,,,,,5,1.780999899,5,0.344000101,1,0,1200,663,1,1199,trout,11139,2019-10-21_17h08.10.979,SurveyExpMetaMem,3.2.3,MacIntel,60
,,,,,,,,,,,,,,,,,,,,3,5.472999811,5,1.599999905,1,0,1200,1123,1,1199,haunt,11139,2019-10-21_17h08.10.979,SurveyExpMetaMem,3.2.3,MacIntel,60
,,,,,,,,,,,,,,,,,,,,6,2.149999857,8,2.016999722,1,0,1200,755,1,1199,soap,11139,2019-10-21_17h08.10.979,SurveyExpMetaMem,3.2.3,MacIntel,60
,,,,,,,,,,,,,,,,,,,,5,4.622999907,1,2.900999784,1,0,1200,944,1,1199,kill,11139,2019-10-21_17h08.10.979,SurveyExpMetaMem,3.2.3,MacIntel,60
,,,,,,,,,,,,,,,,,,,,7,2.771999836,8,1.747999907,1,0,1200,863,1,1199,fireplace,11139,2019-10-21_17h08.10.979,SurveyExpMetaMem,3.2.3,MacIntel,60
,,,,,,,,,,,,,,,,,,,,5,1.379999876,5,0.263999939,1,0,1200,701,1,1199,telephone,11139,2019-10-21_17h08.10.979,SurveyExpMetaMem,3.2.3,MacIntel,60
,,,,,,,,,,,,,,,,,,,,5,1.46600008,5,0.230000019,1,0,1200,996,1,1199,sting,11139,2019-10-21_17h08.10.979,SurveyExpMetaMem,3.2.3,MacIntel,60
,,,,,,,,,,,,,,,,,,,,2,2.503999949,5,1.495999813,1,0,1200,610,1,1199,miniature,11139,2019-10-21_17h08.10.979,SurveyExpMetaMem,3.2.3,MacIntel,60
,,,,,,,,,,,,,,,,,,,,7,2.701999903,5,1.496999979,1,0,1200,654,1,1199,brief,11139,2019-10-21_17h08.10.979,SurveyExpMetaMem,3.2.3,MacIntel,60
,,,,,,,,,,,,,,,,,,,,6,2.503000021,5,1.263999939,1,0,1200,688,1,1199,jelly,11139,2019-10-21_17h08.10.979,SurveyExpMetaMem,3.2.3,MacIntel,60
,,,,,,,,,,,,,,,,,,,,4,10.21700001,3,1.250999928,1,0,1200,395,1,1199,lack,11139,2019-10-21_17h08.10.979,SurveyExpMetaMem,3.2.3,MacIntel,60
,,,,,,,,,,,,,,,,,,,,5,3.039000034,5,0.412999868,1,0,1200,699,1,1199,leg,11139,2019-10-21_17h08.10.979,SurveyExpMetaMem,3.2.3,MacIntel,60
,,,,,,,,,,,,,,,,,,,,7,1.845999956,7,1.231999874,1,0,1200,36,1,1199,puppy,11139,2019-10-21_17h08.10.979,SurveyExpMetaMem,3.2.3,MacIntel,60
,,,,,,,,,,,,,,,,,,,,5,1.481999874,5,0.381000042,1,0,1200,188,1,1199,profit,11139,2019-10-21_17h08.10.979,SurveyExpMetaMem,3.2.3,MacIntel,60
,,,,,,,,,,,,,,,,,,,,6,2.584000111,8,1.280999899,1,0,1200,72,1,1199,attract,11139,2019-10-21_17h08.10.979,SurveyExpMetaMem,3.2.3,MacIntel,60
,,,,,,,,,,,,,,,,,,,,5,3.135999918,5,0.295999765,1,0,1200,866,1,1199,haven,11139,2019-10-21_17h08.10.979,SurveyExpMetaMem,3.2.3,MacIntel,60
,,,,,,,,,,,,,,,,,,,,5,1.34800005,5,0.263000011,1,0,1200,270,1,1199,toddler,11139,2019-10-21_17h08.10.979,SurveyExpMetaMem,3.2.3,MacIntel,60
,,,,,,,,,,,,,,,,,,,,5,2.633999825,5,0.182999849,1,0,1200,469,1,1199,resent,11139,2019-10-21_17h08.10.979,SurveyExpMetaMem,3.2.3,MacIntel,60
,,,,,,,,,,,,,,,,,,,,5,1.823999882,5,0.191999912,1,0,1200,739,1,1199,seagull,11139,2019-10-21_17h08.10.979,SurveyExpMetaMem,3.2.3,MacIntel,60
,,,,,,,,,,,,,,,,,,,,5,0.728999853,5,0.212999821,1,0,1200,370,1,1199,rodent,11139,2019-10-21_17h08.10.979,SurveyExpMetaMem,3.2.3,MacIntel,60
,,,,,,,,,,,,,,,,,,,,6,2.818999767,8,1.816999912,1,0,1200,209,1,1199,husband,11139,2019-10-21_17h08.10.979,SurveyExpMetaMem,3.2.3,MacIntel,60
,,,,,,,,,,,,,,,,,,,,5,3.696000099,1,1.19299984,1,0,1200,948,1,1199,pain,11139,2019-10-21_17h08.10.979,SurveyExpMetaMem,3.2.3,MacIntel,60
,,,,,,,,,,,,,,,,,,,,5,2.826999903,5,0.513000011,1,0,1200,487,1,1199,junk,11139,2019-10-21_17h08.10.979,SurveyExpMetaMem,3.2.3,MacIntel,60
,,,,,,,,,,,,,,,,,,,,6,4.271000147,5,2.368000031,1,0,1200,189,1,1199,thoughtful,11139,2019-10-21_17h08.10.979,SurveyExpMetaMem,3.2.3,MacIntel,60
,,,,,,,,,,,,,,,,,,,,6,2.57799983,5,1.548999786,1,0,1200,544,1,1199,snail,11139,2019-10-21_17h08.10.979,SurveyExpMetaMem,3.2.3,MacIntel,60
,,,,,,,,,,,,,,,,,,,,5,2.015999794,5,0.394999981,1,0,1200,730,1,1199,slogan,11139,2019-10-21_17h08.10.979,SurveyExpMetaMem,3.2.3,MacIntel,60
,,,,,,,,,,,,,,,,,,,,8,1.799000025,7,3.017999887,1,0,1200,1179,1,1199,nerves,11139,2019-10-21_17h08.10.979,SurveyExpMetaMem,3.2.3,MacIntel,60
,,,,,,,,,,,,,,,,,,,,5,1.656999826,3,1.396999836,1,0,1200,919,1,1199,loss,11139,2019-10-21_17h08.10.979,SurveyExpMetaMem,3.2.3,MacIntel,60
,,,,,,,,,,,,,,,,,,,,5,4.624999762,1,1.014999866,1,0,1200,901,1,1199,rape,11139,2019-10-21_17h08.10.979,SurveyExpMetaMem,3.2.3,MacIntel,60
,,,,,,,,,,,,,,,,,,,,6,3.035999775,8,1.279999971,1,0,1200,381,1,1199,sloppy,11139,2019-10-21_17h08.10.979,SurveyExpMetaMem,3.2.3,MacIntel,60
,,,,,,,,,,,,,,,,,,,,8,3.420999765,9,1.357999802,1,0,1200,891,1,1199,kind,11139,2019-10-21_17h08.10.979,SurveyExpMetaMem,3.2.3,MacIntel,60
,,,,,,,,,,,,,,,,,,,,5,2.394000053,5,0.309999943,1,0,1200,1168,1,1199,financial,11139,2019-10-21_17h08.10.979,SurveyExpMetaMem,3.2.3,MacIntel,60
,,,,,,,,,,,,,,,,,,,,5,1.400999784,5,0.246000051,1,0,1200,738,1,1199,horse,11139,2019-10-21_17h08.10.979,SurveyExpMetaMem,3.2.3,MacIntel,60
,,,,,,,,,,,,,,,,,,,,5,1.164000034,5,0.246000051,1,0,1200,1166,1,1199,compulsive,11139,2019-10-21_17h08.10.979,SurveyExpMetaMem,3.2.3,MacIntel,60
,,,,,,,,,,,,,,,,,,,,5,1.230999947,5,0.195999861,1,0,1200,634,1,1199,glacier,11139,2019-10-21_17h08.10.979,SurveyExpMetaMem,3.2.3,MacIntel,60
,,,,,,,,,,,,,,,,,,,,8,1.549000025,9,0.881000042,1,0,1200,71,1,1199,spirit,11139,2019-10-21_17h08.10.979,SurveyExpMetaMem,3.2.3,MacIntel,60
,,,,,,,,,,,,,,,,,,,,9,2.381999969,9,0.729999781,1,0,1200,886,1,1199,sunflower,11139,2019-10-21_17h08.10.979,SurveyExpMetaMem,3.2.3,MacIntel,60
,,,,,,,,,,,,,,,,,,,,5,2.417000055,1,1.243999958,1,0,1200,1137,1,1199,knife,11139,2019-10-21_17h08.10.979,SurveyExpMetaMem,3.2.3,MacIntel,60
,,,,,,,,,,,,,,,,,,,,5,1.559999943,5,0.277999878,1,0,1200,464,1,1199,tick,11139,2019-10-21_17h08.10.979,SurveyExpMetaMem,3.2.3,MacIntel,60
,,,,,,,,,,,,,,,,,,,,6,3.301999807,5,1.598999977,1,0,1200,1189,1,1199,lava,11139,2019-10-21_17h08.10.979,SurveyExpMetaMem,3.2.3,MacIntel,60
,,,,,,,,,,,,,,,,,,,,8,1.781999826,8,1.865999937,1,0,1200,225,1,1199,strong,11139,2019-10-21_17h08.10.979,SurveyExpMetaMem,3.2.3,MacIntel,60
,,,,,,,,,,,,,,,,,,,,3,5.422999859,9,2.183000088,1,0,1200,867,1,1199,relaxed,11139,2019-10-21_17h08.10.979,SurveyExpMetaMem,3.2.3,MacIntel,60
,,,,,,,,,,,,,,,,,,,,5,3.286000013,5,0.362999916,1,0,1200,103,1,1199,conquest,11139,2019-10-21_17h08.10.979,SurveyExpMetaMem,3.2.3,MacIntel,60
,,,,,,,,,,,,,,,,,,,,5,1.764999866,5,0.345999956,1,0,1200,369,1,1199,blind,11139,2019-10-21_17h08.10.979,SurveyExpMetaMem,3.2.3,MacIntel,60
,,,,,,,,,,,,,,,,,,,,8,2.127000093,7,2.194999933,1,0,1200,161,1,1199,limousine,11139,2019-10-21_17h08.10.979,SurveyExpMetaMem,3.2.3,MacIntel,60
,,,,,,,,,,,,,,,,,,,,5,2.964999914,2,1.362999916,1,0,1200,502,1,1199,crap,11139,2019-10-21_17h08.10.979,SurveyExpMetaMem,3.2.3,MacIntel,60
,,,,,,,,,,,,,,,,,,,,5,4.224999905,5,1.380999804,1,0,1200,154,1,1199,race,11139,2019-10-21_17h08.10.979,SurveyExpMetaMem,3.2.3,MacIntel,60
,,,,,,,,,,,,,,,,,,,,5,0.964999914,5,0.328999758,1,0,1200,401,1,1199,feeble,11139,2019-10-21_17h08.10.979,SurveyExpMetaMem,3.2.3,MacIntel,60
,,,,,,,,,,,,,,,,,,,,5,1.565000057,5,0.413000107,1,0,1200,1004,1,1199,burglar,11139,2019-10-21_17h08.10.979,SurveyExpMetaMem,3.2.3,MacIntel,60
,,,,,,,,,,,,,,,,,,,,7,2.032999992,8,1.416000128,1,0,1200,769,1,1199,relate,11139,2019-10-21_17h08.10.979,SurveyExpMetaMem,3.2.3,MacIntel,60
,,,,,,,,,,,,,,,,,,,,5,1.44900012,5,0.429999828,1,0,1200,1125,1,1199,outrage,11139,2019-10-21_17h08.10.979,SurveyExpMetaMem,3.2.3,MacIntel,60
,,,,,,,,,,,,,,,,,,,,5,0.816999912,5,0.390999794,1,0,1200,474,1,1199,weary,11139,2019-10-21_17h08.10.979,SurveyExpMetaMem,3.2.3,MacIntel,60
,,,,,,,,,,,,,,,,,,,,5,3.032999992,5,3.069000006,1,0,1200,1099,1,1199,fire,11139,2019-10-21_17h08.10.979,SurveyExpMetaMem,3.2.3,MacIntel,60
,,,,,,,,,,,,,,,,,,,,5,2.917000055,5,2.601999998,1,0,1200,951,1,1199,castrate,11139,2019-10-21_17h08.10.979,SurveyExpMetaMem,3.2.3,MacIntel,60
,,,,,,,,,,,,,,,,,,,,5,1.898999929,5,0.447000027,1,0,1200,61,1,1199,zoom,11139,2019-10-21_17h08.10.979,SurveyExpMetaMem,3.2.3,MacIntel,60
,,,,,,,,,,,,,,,,,,,,2,3.351999998,1,1.365999937,1,0,1200,921,1,1199,humiliation,11139,2019-10-21_17h08.10.979,SurveyExpMetaMem,3.2.3,MacIntel,60
,,,,,,,,,,,,,,,,,,,,5,1.498000145,5,0.411999941,1,0,1200,399,1,1199,withdrawn,11139,2019-10-21_17h08.10.979,SurveyExpMetaMem,3.2.3,MacIntel,60
,,,,,,,,,,,,,,,,,,,,3,4.93900013,1,1.381000042,1,0,1200,1100,1,1199,evil,11139,2019-10-21_17h08.10.979,SurveyExpMetaMem,3.2.3,MacIntel,60
,,,,,,,,,,,,,,,,,,,,7,2.80099988,6,2.386999846,1,0,1200,825,1,1199,swan,11139,2019-10-21_17h08.10.979,SurveyExpMetaMem,3.2.3,MacIntel,60
,,,,,,,,,,,,,,,,,,,,5,1.59800005,5,0.363999844,1,0,1200,361,1,1199,glum,11139,2019-10-21_17h08.10.979,SurveyExpMetaMem,3.2.3,MacIntel,60
,,,,,,,,,,,,,,,,,,,,5,1.346999884,5,0.230000019,1,0,1200,990,1,1199,enraged,11139,2019-10-21_17h08.10.979,SurveyExpMetaMem,3.2.3,MacIntel,60
,,,,,,,,,,,,,,,,,,,,5,1.615999937,3,1.365999699,1,0,1200,408,1,1199,bore,11139,2019-10-21_17h08.10.979,SurveyExpMetaMem,3.2.3,MacIntel,60
,,,,,,,,,,,,,,,,,,,,8,3.636999846,8,1.082999945,1,0,1200,679,1,1199,yellow,11139,2019-10-21_17h08.10.979,SurveyExpMetaMem,3.2.3,MacIntel,60
,,,,,,,,,,,,,,,,,,,,5,1.729999781,5,0.346999884,1,0,1200,375,1,1199,manure,11139,2019-10-21_17h08.10.979,SurveyExpMetaMem,3.2.3,MacIntel,60
,,,,,,,,,,,,,,,,,,,,5,0.812999964,5,0.342999935,1,0,1200,941,1,1199,leprosy,11139,2019-10-21_17h08.10.979,SurveyExpMetaMem,3.2.3,MacIntel,60
,,,,,,,,,,,,,,,,,,,,5,2.025999784,5,0.345000029,1,0,1200,531,1,1199,omit,11139,2019-10-21_17h08.10.979,SurveyExpMetaMem,3.2.3,MacIntel,60
,,,,,,,,,,,,,,,,,,,,5,0.796999931,5,0.231999874,1,0,1200,1085,1,1199,sever,11139,2019-10-21_17h08.10.979,SurveyExpMetaMem,3.2.3,MacIntel,60
,,,,,,,,,,,,,,,,,,,,6,2.21600008,5,1.247999907,1,0,1200,257,1,1199,cockpit,11139,2019-10-21_17h08.10.979,SurveyExpMetaMem,3.2.3,MacIntel,60
,,,,,,,,,,,,,,,,,,,,5,2.602999926,1,0.996000051,1,0,1200,968,1,1199,insult,11139,2019-10-21_17h08.10.979,SurveyExpMetaMem,3.2.3,MacIntel,60
,,,,,,,,,,,,,,,,,,,,5,2.954999924,3,1.046999931,1,0,1200,1058,1,1199,bloody,11139,2019-10-21_17h08.10.979,SurveyExpMetaMem,3.2.3,MacIntel,60
,,,,,,,,,,,,,,,,,,,,5,3.480999708,1,1.883000135,1,0,1200,328,1,1199,disgrace,11139,2019-10-21_17h08.10.979,SurveyExpMetaMem,3.2.3,MacIntel,60
,,,,,,,,,,,,,,,,,,,,5,1.73300004,5,0.361999989,1,0,1200,19,1,1199,firefighter,11139,2019-10-21_17h08.10.979,SurveyExpMetaMem,3.2.3,MacIntel,60
,,,,,,,,,,,,,,,,,,,,7,5.372999907,7,2.46600008,1,0,1200,308,1,1199,worthless,11139,2019-10-21_17h08.10.979,SurveyExpMetaMem,3.2.3,MacIntel,60
,,,,,,,,,,,,,,,,,,,,5,1.112999916,5,0.378999949,1,0,1200,426,1,1199,con,11139,2019-10-21_17h08.10.979,SurveyExpMetaMem,3.2.3,MacIntel,60
,,,,,,,,,,,,,,,,,,,,3,2.710999966,1,1.263000011,1,0,1200,318,1,1199,disappointment,11139,2019-10-21_17h08.10.979,SurveyExpMetaMem,3.2.3,MacIntel,60
,,,,,,,,,,,,,,,,,,,,5,3.049999952,5,0.412999868,1,0,1200,598,1,1199,feet,11139,2019-10-21_17h08.10.979,SurveyExpMetaMem,3.2.3,MacIntel,60
,,,,,,,,,,,,,,,,,,,,8,1.898999929,9,1.131999969,1,0,1200,65,1,1199,restaurant,11139,2019-10-21_17h08.10.979,SurveyExpMetaMem,3.2.3,MacIntel,60
,,,,,,,,,,,,,,,,,,,,7,2.903000116,5,1.947999954,1,0,1200,632,1,1199,avenue,11139,2019-10-21_17h08.10.979,SurveyExpMetaMem,3.2.3,MacIntel,60
,,,,,,,,,,,,,,,,,,,,5,1.010999918,5,0.388999939,1,0,1200,1197,1,1199,command,11139,2019-10-21_17h08.10.979,SurveyExpMetaMem,3.2.3,MacIntel,60
,,,,,,,,,,,,,,,,,,,,5,0.745999813,5,0.246999979,1,0,1200,490,1,1199,detached,11139,2019-10-21_17h08.10.979,SurveyExpMetaMem,3.2.3,MacIntel,60
,,,,,,,,,,,,,,,,,,,,8,2.25,8,1.181999922,1,0,1200,854,1,1199,river,11139,2019-10-21_17h08.10.979,SurveyExpMetaMem,3.2.3,MacIntel,60
,,,,,,,,,,,,,,,,,,,,5,0.963000059,5,0.315000057,1,0,1200,958,1,1199,traitor,11139,2019-10-21_17h08.10.979,SurveyExpMetaMem,3.2.3,MacIntel,60
,,,,,,,,,,,,,,,,,,,,5,1.231999874,5,0.279999971,1,0,1200,649,1,1199,donkey,11139,2019-10-21_17h08.10.979,SurveyExpMetaMem,3.2.3,MacIntel,60
,,,,,,,,,,,,,,,,,,,,5,1.31799984,5,0.229000092,1,0,1200,456,1,1199,piss,11139,2019-10-21_17h08.10.979,SurveyExpMetaMem,3.2.3,MacIntel,60
,,,,,,,,,,,,,,,,,,,,7,2.250999928,8,1.431999922,1,0,1200,889,1,1199,wise,11139,2019-10-21_17h08.10.979,SurveyExpMetaMem,3.2.3,MacIntel,60
,,,,,,,,,,,,,,,,,,,,5,1.601000071,5,0.211999893,1,0,1200,716,1,1199,blouse,11139,2019-10-21_17h08.10.979,SurveyExpMetaMem,3.2.3,MacIntel,60
,,,,,,,,,,,,,,,,,,,,9,1.631999969,9,0.816999912,1,0,1200,238,1,1199,sunshine,11139,2019-10-21_17h08.10.979,SurveyExpMetaMem,3.2.3,MacIntel,60
,,,,,,,,,,,,,,,,,,,,5,2.450000048,3,1.265000105,1,0,1200,1176,1,1199,vampire,11139,2019-10-21_17h08.10.979,SurveyExpMetaMem,3.2.3,MacIntel,60
,,,,,,,,,,,,,,,,,,,,9,2.535000086,9,1.566999912,1,0,1200,242,1,1199,triumph,11139,2019-10-21_17h08.10.979,SurveyExpMetaMem,3.2.3,MacIntel,60
,,,,,,,,,,,,,,,,,,,,5,6.109999895,1,0.973999977,1,0,1200,907,1,1199,terrorist,11139,2019-10-21_17h08.10.979,SurveyExpMetaMem,3.2.3,MacIntel,60
,,,,,,,,,,,,,,,,,,,,5,1.281999826,1,0.713000059,1,0,1200,400,1,1199,urine,11139,2019-10-21_17h08.10.979,SurveyExpMetaMem,3.2.3,MacIntel,60
,,,,,,,,,,,,,,,,,,,,5,5.852999926,1,1.622999907,1,0,1200,1023,1,1199,disorder,11139,2019-10-21_17h08.10.979,SurveyExpMetaMem,3.2.3,MacIntel,60
,,,,,,,,,,,,,,,,,,,,5,1.513999939,5,0.697000027,1,0,1200,425,1,1199,crutch,11139,2019-10-21_17h08.10.979,SurveyExpMetaMem,3.2.3,MacIntel,60
,,,,,,,,,,,,,,,,,,,,7,2.796999693,8,1.046999931,1,0,1200,631,1,1199,delicate,11139,2019-10-21_17h08.10.979,SurveyExpMetaMem,3.2.3,MacIntel,60
,,,,,,,,,,,,,,,,,,,,5,1.513999939,1,0.723999977,1,0,1200,985,1,1199,pollution,11139,2019-10-21_17h08.10.979,SurveyExpMetaMem,3.2.3,MacIntel,60
,,,,,,,,,,,,,,,,,,,,7,6.256999969,6,2.109999895,1,0,1200,382,1,1199,vulnerable,11139,2019-10-21_17h08.10.979,SurveyExpMetaMem,3.2.3,MacIntel,60
,,,,,,,,,,,,,,,,,,,,5,1.224999905,5,0.278999805,1,0,1200,207,1,1199,erect,11139,2019-10-21_17h08.10.979,SurveyExpMetaMem,3.2.3,MacIntel,60
,,,,,,,,,,,,,,,,,,,,9,2.411000013,9,1.195999861,1,0,1200,96,1,1199,joke,11139,2019-10-21_17h08.10.979,SurveyExpMetaMem,3.2.3,MacIntel,60
,,,,,,,,,,,,,,,,,,,,5,1.457999945,5,0.394999981,1,0,1200,1153,1,1199,mangle,11139,2019-10-21_17h08.10.979,SurveyExpMetaMem,3.2.3,MacIntel,60
,,,,,,,,,,,,,,,,,,,,8,3.403000116,3,1.967000008,1,0,1200,1026,1,1199,crisis,11139,2019-10-21_17h08.10.979,SurveyExpMetaMem,3.2.3,MacIntel,60
,,,,,,,,,,,,,,,,,,,,5,1.881000042,5,0.345999956,1,0,1200,280,1,1199,cookout,11139,2019-10-21_17h08.10.979,SurveyExpMetaMem,3.2.3,MacIntel,60
,,,,,,,,,,,,,,,,,,,,5,2.218999863,2,0.691999912,1,0,1200,455,1,1199,chubby,11139,2019-10-21_17h08.10.979,SurveyExpMetaMem,3.2.3,MacIntel,60
,,,,,,,,,,,,,,,,,,,,5,1.149999857,5,0.278999805,1,0,1200,633,1,1199,cattle,11139,2019-10-21_17h08.10.979,SurveyExpMetaMem,3.2.3,MacIntel,60
,,,,,,,,,,,,,,,,,,,,6,4.940999985,3,1.096999884,1,0,1200,343,1,1199,fever,11139,2019-10-21_17h08.10.979,SurveyExpMetaMem,3.2.3,MacIntel,60
,,,,,,,,,,,,,,,,,,,,8,4.437999964,3,1.733999729,1,0,1200,1194,1,1199,obsession,11139,2019-10-21_17h08.10.979,SurveyExpMetaMem,3.2.3,MacIntel,60
,,,,,,,,,,,,,,,,,,,,6,3.779999971,5,1.65199995,1,0,1200,110,1,1199,animal,11139,2019-10-21_17h08.10.979,SurveyExpMetaMem,3.2.3,MacIntel,60
,,,,,,,,,,,,,,,,,,,,8,2.065000057,9,1.431999922,1,0,1200,104,1,1199,freeway,11139,2019-10-21_17h08.10.979,SurveyExpMetaMem,3.2.3,MacIntel,60
,,,,,,,,,,,,,,,,,,,,5,2.05099988,1,1.565999746,1,0,1200,1178,1,1199,weight,11139,2019-10-21_17h08.10.979,SurveyExpMetaMem,3.2.3,MacIntel,60
,,,,,,,,,,,,,,,,,,,,5,1.180999994,5,0.395999908,1,0,1200,466,1,1199,gnaw,11139,2019-10-21_17h08.10.979,SurveyExpMetaMem,3.2.3,MacIntel,60
,,,,,,,,,,,,,,,,,,,,7,2.999999762,5,1.499000072,1,0,1200,151,1,1199,react,11139,2019-10-21_17h08.10.979,SurveyExpMetaMem,3.2.3,MacIntel,60
,,,,,,,,,,,,,,,,,,,,5,0.829999924,5,0.346999884,1,0,1200,1091,1,1199,cram,11139,2019-10-21_17h08.10.979,SurveyExpMetaMem,3.2.3,MacIntel,60
,,,,,,,,,,,,,,,,,,,,8,2.450999975,9,1.097000122,1,0,1200,871,1,1199,comfort,11139,2019-10-21_17h08.10.979,SurveyExpMetaMem,3.2.3,MacIntel,60
,,,,,,,,,,,,,,,,,,,,5,1.977999926,5,0.277999878,1,0,1200,652,1,1199,tend,11139,2019-10-21_17h08.10.979,SurveyExpMetaMem,3.2.3,MacIntel,60
,,,,,,,,,,,,,,,,,,,,9,1.947999954,9,0.81799984,1,0,1200,227,1,1199,musician,11139,2019-10-21_17h08.10.979,SurveyExpMetaMem,3.2.3,MacIntel,60
,,,,,,,,,,,,,,,,,,,,9,1.563999891,9,0.532999754,1,0,1200,246,1,1199,complete,11139,2019-10-21_17h08.10.979,SurveyExpMetaMem,3.2.3,MacIntel,60
,,,,,,,,,,,,,,,,,,,,8,3.117999792,5,1.598999977,1,0,1200,260,1,1199,control,11139,2019-10-21_17h08.10.979,SurveyExpMetaMem,3.2.3,MacIntel,60
,,,,,,,,,,,,,,,,,,,,5,2.167000055,5,0.36199975,1,0,1200,278,1,1199,king,11139,2019-10-21_17h08.10.979,SurveyExpMetaMem,3.2.3,MacIntel,60
,,,,,,,,,,,,,,,,,,,,7,2.315000057,5,1.330999851,1,0,1200,438,1,1199,dull,11139,2019-10-21_17h08.10.979,SurveyExpMetaMem,3.2.3,MacIntel,60
,,,,,,,,,,,,,,,,,,,,6,1.986000061,5,0.898000002,1,0,1200,672,1,1199,ketchup,11139,2019-10-21_17h08.10.979,SurveyExpMetaMem,3.2.3,MacIntel,60
,,,,,,,,,,,,,,,,,,,,5,1.213999987,5,0.413999796,1,0,1200,989,1,1199,banish,11139,2019-10-21_17h08.10.979,SurveyExpMetaMem,3.2.3,MacIntel,60
,,,,,,,,,,,,,,,,,,,,5,0.845999956,5,0.295000076,1,0,1200,1114,1,1199,foe,11139,2019-10-21_17h08.10.979,SurveyExpMetaMem,3.2.3,MacIntel,60
,,,,,,,,,,,,,,,,,,,,7,2.914000034,2,2.415999889,1,0,1200,1009,1,1199,frightened,11139,2019-10-21_17h08.10.979,SurveyExpMetaMem,3.2.3,MacIntel,60
,,,,,,,,,,,,,,,,,,,,8,3.101999998,7,1.322999954,1,0,1200,212,1,1199,belief,11139,2019-10-21_17h08.10.979,SurveyExpMetaMem,3.2.3,MacIntel,60
,,,,,,,,,,,,,,,,,,,,6,2.450999975,7,1.265999794,1,0,1200,1096,1,1199,flood,11139,2019-10-21_17h08.10.979,SurveyExpMetaMem,3.2.3,MacIntel,60
,,,,,,,,,,,,,,,,,,,,5,0.829999924,5,0.395999908,1,0,1200,560,1,1199,spurn,11139,2019-10-21_17h08.10.979,SurveyExpMetaMem,3.2.3,MacIntel,60
,,,,,,,,,,,,,,,,,,,,7,2.701999903,8,1.265000105,1,0,1200,273,1,1199,worthwhile,11139,2019-10-21_17h08.10.979,SurveyExpMetaMem,3.2.3,MacIntel,60
,,,,,,,,,,,,,,,,,,,,7,2.467999935,8,1.535999775,1,0,1200,389,1,1199,gloomy,11139,2019-10-21_17h08.10.979,SurveyExpMetaMem,3.2.3,MacIntel,60
,,,,,,,,,,,,,,,,,,,,5,1.246999979,5,0.430000067,1,0,1200,444,1,1199,mold,11139,2019-10-21_17h08.10.979,SurveyExpMetaMem,3.2.3,MacIntel,60
,,,,,,,,,,,,,,,,,,,,5,1.209000111,5,0.244999886,1,0,1200,1184,1,1199,reckless,11139,2019-10-21_17h08.10.979,SurveyExpMetaMem,3.2.3,MacIntel,60
,,,,,,,,,,,,,,,,,,,,5,3.420000076,3,0.947999954,1,0,1200,459,1,1199,heavy,11139,2019-10-21_17h08.10.979,SurveyExpMetaMem,3.2.3,MacIntel,60
,,,,,,,,,,,,,,,,,,,,5,1.313999891,5,0.578999996,1,0,1200,412,1,1199,mucus,11139,2019-10-21_17h08.10.979,SurveyExpMetaMem,3.2.3,MacIntel,60
,,,,,,,,,,,,,,,,,,,,5,0.979999781,5,0.249000072,1,0,1200,453,1,1199,prude,11139,2019-10-21_17h08.10.979,SurveyExpMetaMem,3.2.3,MacIntel,60
,,,,,,,,,,,,,,,,,,,,8,1.749000072,9,2.398999929,1,0,1200,158,1,1199,engage,11139,2019-10-21_17h08.10.979,SurveyExpMetaMem,3.2.3,MacIntel,60
,,,,,,,,,,,,,,,,,,,,7,3.06799984,9,0.907999992,1,0,1200,202,1,1199,mercy,11139,2019-10-21_17h08.10.979,SurveyExpMetaMem,3.2.3,MacIntel,60
,,,,,,,,,,,,,,,,,,,,8,2.495000124,9,0.750999928,1,0,1200,290,1,1199,enthusiasm,11139,2019-10-21_17h08.10.979,SurveyExpMetaMem,3.2.3,MacIntel,60
,,,,,,,,,,,,,,,,,,,,5,3.802000046,1,1.048999786,1,0,1200,334,1,1199,trash,11139,2019-10-21_17h08.10.979,SurveyExpMetaMem,3.2.3,MacIntel,60
,,,,,,,,,,,,,,,,,,,,5,1.599999905,5,0.263000011,1,0,1200,869,1,1199,assure,11139,2019-10-21_17h08.10.979,SurveyExpMetaMem,3.2.3,MacIntel,60
,,,,,,,,,,,,,,,,,,,,5,0.846999884,5,0.246999979,1,0,1200,536,1,1199,vacant,11139,2019-10-21_17h08.10.979,SurveyExpMetaMem,3.2.3,MacIntel,60
,,,,,,,,,,,,,,,,,,,,7,3.985999823,1,1.065000057,1,0,1200,1028,1,1199,terror,11139,2019-10-21_17h08.10.979,SurveyExpMetaMem,3.2.3,MacIntel,60
,,,,,,,,,,,,,,,,,,,,5,1.549000025,5,0.362999916,1,0,1200,500,1,1199,nosey,11139,2019-10-21_17h08.10.979,SurveyExpMetaMem,3.2.3,MacIntel,60
,,,,,,,,,,,,,,,,,,,,5,3.932999849,1,0.602999926,1,0,1200,1049,1,1199,electrocute,11139,2019-10-21_17h08.10.979,SurveyExpMetaMem,3.2.3,MacIntel,60
,,,,,,,,,,,,,,,,,,,,8,1.61500001,9,0.730000019,1,0,1200,244,1,1199,sexy,11139,2019-10-21_17h08.10.979,SurveyExpMetaMem,3.2.3,MacIntel,60
,,,,,,,,,,,,,,,,,,,,5,1.697999954,3,1.799000025,1,0,1200,1083,1,1199,delayed,11139,2019-10-21_17h08.10.979,SurveyExpMetaMem,3.2.3,MacIntel,60
,,,,,,,,,,,,,,,,,,,,5,1.368000031,5,0.462999821,1,0,1200,14,1,1199,attain,11139,2019-10-21_17h08.10.979,SurveyExpMetaMem,3.2.3,MacIntel,60
,,,,,,,,,,,,,,,,,,,,7,8.933999777,9,0.528000116,1,0,1200,881,1,1199,protected,11139,2019-10-21_17h08.10.979,SurveyExpMetaMem,3.2.3,MacIntel,60
,,,,,,,,,,,,,,,,,,,,5,1.882999897,1,0.664999962,1,0,1200,1001,1,1199,rude,11139,2019-10-21_17h08.10.979,SurveyExpMetaMem,3.2.3,MacIntel,60
,,,,,,,,,,,,,,,,,,,,8,1.667999744,9,0.998999834,1,0,1200,74,1,1199,explore,11139,2019-10-21_17h08.10.979,SurveyExpMetaMem,3.2.3,MacIntel,60
,,,,,,,,,,,,,,,,,,,,9,1.64199996,9,0.477999926,1,0,1200,160,1,1199,reunion,11139,2019-10-21_17h08.10.979,SurveyExpMetaMem,3.2.3,MacIntel,60
,,,,,,,,,,,,,,,,,,,,5,1.264999866,5,0.364000082,1,0,1200,619,1,1199,pulpit,11139,2019-10-21_17h08.10.979,SurveyExpMetaMem,3.2.3,MacIntel,60
,,,,,,,,,,,,,,,,,,,,4,3.000999928,1,0.562000036,1,0,1200,1088,1,1199,forbid,11139,2019-10-21_17h08.10.979,SurveyExpMetaMem,3.2.3,MacIntel,60
,,,,,,,,,,,,,,,,,,,,4,2.049000025,1,0.440999746,1,0,1200,1120,1,1199,gun,11139,2019-10-21_17h08.10.979,SurveyExpMetaMem,3.2.3,MacIntel,60
,,,,,,,,,,,,,,,,,,,,4,2.616999865,1,0.478999853,1,0,1200,1106,1,1199,pushy,11139,2019-10-21_17h08.10.979,SurveyExpMetaMem,3.2.3,MacIntel,60
,,,,,,,,,,,,,,,,,,,,5,1.299999952,5,0.379999876,1,0,1200,386,1,1199,pale,11139,2019-10-21_17h08.10.979,SurveyExpMetaMem,3.2.3,MacIntel,60
,,,,,,,,,,,,,,,,,,,,5,0.663999796,5,0.328999758,1,0,1200,580,1,1199,fur,11139,2019-10-21_17h08.10.979,SurveyExpMetaMem,3.2.3,MacIntel,60
,,,,,,,,,,,,,,,,,,,,5,0.796000004,5,0.379999876,1,0,1200,963,1,1199,dreadful,11139,2019-10-21_17h08.10.979,SurveyExpMetaMem,3.2.3,MacIntel,60
,,,,,,,,,,,,,,,,,,,,8,2.977999926,9,0.779000044,1,0,1200,215,1,1199,salary,11139,2019-10-21_17h08.10.979,SurveyExpMetaMem,3.2.3,MacIntel,60
,,,,,,,,,,,,,,,,,,,,5,2.11500001,5,0.256000042,1,0,1200,676,1,1199,straighten,11139,2019-10-21_17h08.10.979,SurveyExpMetaMem,3.2.3,MacIntel,60
,,,,,,,,,,,,,,,,,,,,7,5.086999893,1,0.432999849,1,0,1200,1084,1,1199,uneasy,11139,2019-10-21_17h08.10.979,SurveyExpMetaMem,3.2.3,MacIntel,60
,,,,,,,,,,,,,,,,,,,,8,1.980999708,9,1.007999897,1,0,1200,28,1,1199,energy,11139,2019-10-21_17h08.10.979,SurveyExpMetaMem,3.2.3,MacIntel,60
,,,,,,,,,,,,,,,,,,,,9,2.917000055,9,0.462999821,1,0,1200,22,1,1199,doughnut,11139,2019-10-21_17h08.10.979,SurveyExpMetaMem,3.2.3,MacIntel,60
,,,,,,,,,,,,,,,,,,,,9,1.44299984,9,0.457999945,1,0,1200,221,1,1199,sparkle,11139,2019-10-21_17h08.10.979,SurveyExpMetaMem,3.2.3,MacIntel,60
,,,,,,,,,,,,,,,,,,,,9,1.782999754,9,0.373999834,1,0,1200,884,1,1199,grateful,11139,2019-10-21_17h08.10.979,SurveyExpMetaMem,3.2.3,MacIntel,60
,,,,,,,,,,,,,,,,,,,,9,1.180000067,9,0.306999922,1,0,1200,91,1,1199,pretty,11139,2019-10-21_17h08.10.979,SurveyExpMetaMem,3.2.3,MacIntel,60
,,,,,,,,,,,,,,,,,,,,3,3.517999887,1,0.563999891,1,0,1200,988,1,1199,deserter,11139,2019-10-21_17h08.10.979,SurveyExpMetaMem,3.2.3,MacIntel,60
,,,,,,,,,,,,,,,,,,,,5,1.514999866,5,0.413999796,1,0,1200,653,1,1199,detail,11139,2019-10-21_17h08.10.979,SurveyExpMetaMem,3.2.3,MacIntel,60
,,,,,,,,,,,,,,,,,,,,5,1.157999992,5,0.246999979,1,0,1200,621,1,1199,chew,11139,2019-10-21_17h08.10.979,SurveyExpMetaMem,3.2.3,MacIntel,60
,,,,,,,,,,,,,,,,,,,,3,2.015999794,1,1.280999899,1,0,1200,945,1,1199,demon,11139,2019-10-21_17h08.10.979,SurveyExpMetaMem,3.2.3,MacIntel,60
,,,,,,,,,,,,,,,,,,,,7,1.741999865,8,1.247999907,1,0,1200,67,1,1199,penthouse,11139,2019-10-21_17h08.10.979,SurveyExpMetaMem,3.2.3,MacIntel,60
,,,,,,,,,,,,,,,,,,,,6,2.184000015,5,0.780999899,1,0,1200,98,1,1199,affection,11139,2019-10-21_17h08.10.979,SurveyExpMetaMem,3.2.3,MacIntel,60
,,,,,,,,,,,,,,,,,,,,5,2.345000029,5,0.446000099,1,0,1200,436,1,1199,mediocre,11139,2019-10-21_17h08.10.979,SurveyExpMetaMem,3.2.3,MacIntel,60
,,,,,,,,,,,,,,,,,,,,3,2.765999794,1,0.532999992,1,0,1200,330,1,1199,sunburn,11139,2019-10-21_17h08.10.979,SurveyExpMetaMem,3.2.3,MacIntel,60
,,,,,,,,,,,,,,,,,,,,3,1.947999954,1,0.796000004,1,0,1200,1072,1,1199,bothered,11139,2019-10-21_17h08.10.979,SurveyExpMetaMem,3.2.3,MacIntel,60
,,,,,,,,,,,,,,,,,,,,8,1.981999874,9,1.078999996,1,0,1200,852,1,1199,caring,11139,2019-10-21_17h08.10.979,SurveyExpMetaMem,3.2.3,MacIntel,60
,,,,,,,,,,,,,,,,,,,,5,1.347999811,5,0.263000011,1,0,1200,496,1,1199,slow,11139,2019-10-21_17h08.10.979,SurveyExpMetaMem,3.2.3,MacIntel,60
,,,,,,,,,,,,,,,,,,,,5,0.646999836,5,0.211999893,1,0,1200,491,1,1199,meek,11139,2019-10-21_17h08.10.979,SurveyExpMetaMem,3.2.3,MacIntel,60
,,,,,,,,,,,,,,,,,,,,8,4.674999952,9,0.797999859,1,0,1200,657,1,1199,peanut,11139,2019-10-21_17h08.10.979,SurveyExpMetaMem,3.2.3,MacIntel,60
,,,,,,,,,,,,,,,,,,,,5,5.071999788,2,2.578999996,1,0,1200,126,1,1199,rich,11139,2019-10-21_17h08.10.979,SurveyExpMetaMem,3.2.3,MacIntel,60
,,,,,,,,,,,,,,,,,,,,9,1.679999828,9,0.362999916,1,0,1200,878,1,1199,sleep,11139,2019-10-21_17h08.10.979,SurveyExpMetaMem,3.2.3,MacIntel,60
,,,,,,,,,,,,,,,,,,,,9,1.297999859,9,0.381999731,1,0,1200,83,1,1199,appreciative,11139,2019-10-21_17h08.10.979,SurveyExpMetaMem,3.2.3,MacIntel,60
,,,,,,,,,,,,,,,,,,,,3,2.382999897,3,1.35199976,1,0,1200,162,1,1199,royalty,11139,2019-10-21_17h08.10.979,SurveyExpMetaMem,3.2.3,MacIntel,60
,,,,,,,,,,,,,,,,,,,,5,1.246999979,5,0.243999958,1,0,1200,116,1,1199,carnival,11139,2019-10-21_17h08.10.979,SurveyExpMetaMem,3.2.3,MacIntel,60
,,,,,,,,,,,,,,,,,,,,5,0.779999971,5,0.174999952,1,0,1200,585,1,1199,tatter,11139,2019-10-21_17h08.10.979,SurveyExpMetaMem,3.2.3,MacIntel,60
,,,,,,,,,,,,,,,,,,,,9,1.36500001,9,0.325000048,1,0,1200,141,1,1199,surprise,11139,2019-10-21_17h08.10.979,SurveyExpMetaMem,3.2.3,MacIntel,60
,,,,,,,,,,,,,,,,,,,,9,1.726999998,9,0.413999796,1,0,1200,810,1,1199,polite,11139,2019-10-21_17h08.10.979,SurveyExpMetaMem,3.2.3,MacIntel,60
,,,,,,,,,,,,,,,,,,,,5,1.298000097,5,0.367000103,1,0,1200,913,1,1199,ulcer,11139,2019-10-21_17h08.10.979,SurveyExpMetaMem,3.2.3,MacIntel,60
,,,,,,,,,,,,,,,,,,,,5,0.723999977,5,0.278999805,1,0,1200,1062,1,1199,shoplifter,11139,2019-10-21_17h08.10.979,SurveyExpMetaMem,3.2.3,MacIntel,60
,,,,,,,,,,,,,,,,,,,,5,4.939999819,1,1.081999779,1,0,1200,1054,1,1199,jealous,11139,2019-10-21_17h08.10.979,SurveyExpMetaMem,3.2.3,MacIntel,60
,,,,,,,,,,,,,,,,,,,,5,1.82799983,5,0.197999716,1,0,1200,719,1,1199,western,11139,2019-10-21_17h08.10.979,SurveyExpMetaMem,3.2.3,MacIntel,60
,,,,,,,,,,,,,,,,,,,,5,5.056999922,4,1.282999754,1,0,1200,279,1,1199,bargain,11139,2019-10-21_17h08.10.979,SurveyExpMetaMem,3.2.3,MacIntel,60
,,,,,,,,,,,,,,,,,,,,7,1.631999969,7,1.815999985,1,0,1200,224,1,1199,strengthen,11139,2019-10-21_17h08.10.979,SurveyExpMetaMem,3.2.3,MacIntel,60
,,,,,,,,,,,,,,,,,,,,5,2.634999752,1,1.381999731,1,0,1200,259,1,1199,thin,11139,2019-10-21_17h08.10.979,SurveyExpMetaMem,3.2.3,MacIntel,60
,,,,,,,,,,,,,,,,,,,,5,1.69900012,1,0.682999849,1,0,1200,510,1,1199,excuse,11139,2019-10-21_17h08.10.979,SurveyExpMetaMem,3.2.3,MacIntel,60
,,,,,,,,,,,,,,,,,,,,5,1.42599988,5,0.578999996,1,0,1200,410,1,1199,tarnish,11139,2019-10-21_17h08.10.979,SurveyExpMetaMem,3.2.3,MacIntel,60
,,,,,,,,,,,,,,,,,,,,5,2.535999775,1,0.874000072,1,0,1200,430,1,1199,cancel,11139,2019-10-21_17h08.10.979,SurveyExpMetaMem,3.2.3,MacIntel,60
,,,,,,,,,,,,,,,,,,,,5,1.080999851,5,0.230000019,1,0,1200,1133,1,1199,slip,11139,2019-10-21_17h08.10.979,SurveyExpMetaMem,3.2.3,MacIntel,60
,,,,,,,,,,,,,,,,,,,,5,3.019999743,5,1.615999937,1,0,1200,635,1,1199,sensitive,11139,2019-10-21_17h08.10.979,SurveyExpMetaMem,3.2.3,MacIntel,60
,,,,,,,,,,,,,,,,,,,,5,1.967000008,5,0.296000004,1,0,1200,46,1,1199,god,11139,2019-10-21_17h08.10.979,SurveyExpMetaMem,3.2.3,MacIntel,60
,,,,,,,,,,,,,,,,,,,,7,3.46999979,8,1.548999786,1,0,1200,121,1,1199,self,11139,2019-10-21_17h08.10.979,SurveyExpMetaMem,3.2.3,MacIntel,60
,,,,,,,,,,,,,,,,,,,,5,2.098999977,5,2.899999857,1,0,1200,1180,1,1199,heat,11139,2019-10-21_17h08.10.979,SurveyExpMetaMem,3.2.3,MacIntel,60
,,,,,,,,,,,,,,,,,,,,8,4.570999861,3,0.973999739,1,0,1200,286,1,1199,superstar,11139,2019-10-21_17h08.10.979,SurveyExpMetaMem,3.2.3,MacIntel,60
,,,,,,,,,,,,,,,,,,,,8,2.163999796,5,1.049999952,1,0,1200,153,1,1199,teach,11139,2019-10-21_17h08.10.979,SurveyExpMetaMem,3.2.3,MacIntel,60
,,,,,,,,,,,,,,,,,,,,5,2.082999945,3,0.912999868,1,0,1200,1117,1,1199,court,11139,2019-10-21_17h08.10.979,SurveyExpMetaMem,3.2.3,MacIntel,60
,,,,,,,,,,,,,,,,,,,,9,2.448999882,8,1.664999962,1,0,1200,144,1,1199,aroused,11139,2019-10-21_17h08.10.979,SurveyExpMetaMem,3.2.3,MacIntel,60
,,,,,,,,,,,,,,,,,,,,7,4.721999884,1,4.437999964,1,0,1200,933,1,1199,afraid,11139,2019-10-21_17h08.10.979,SurveyExpMetaMem,3.2.3,MacIntel,60
,,,,,,,,,,,,,,,,,,,,5,2.887999773,5,0.312000036,1,0,1200,313,1,1199,rotten,11139,2019-10-21_17h08.10.979,SurveyExpMetaMem,3.2.3,MacIntel,60
,,,,,,,,,,,,,,,,,,,,7,6.107999802,3,3.602999926,1,0,1200,378,1,1199,dislike,11139,2019-10-21_17h08.10.979,SurveyExpMetaMem,3.2.3,MacIntel,60
,,,,,,,,,,,,,,,,,,,,9,3.549000025,9,0.565000057,1,0,1200,841,1,1199,bathtub,11139,2019-10-21_17h08.10.979,SurveyExpMetaMem,3.2.3,MacIntel,60
,,,,,,,,,,,,,,,,,,,,5,1.447999954,5,0.275000095,1,0,1200,757,1,1199,sentiment,11139,2019-10-21_17h08.10.979,SurveyExpMetaMem,3.2.3,MacIntel,60
,,,,,,,,,,,,,,,,,,,,5,3.91899991,1,0.930999994,1,0,1200,900,1,1199,suicide,11139,2019-10-21_17h08.10.979,SurveyExpMetaMem,3.2.3,MacIntel,60
,,,,,,,,,,,,,,,,,,,,5,2.232999802,5,0.312999725,1,0,1200,551,1,1199,coal,11139,2019-10-21_17h08.10.979,SurveyExpMetaMem,3.2.3,MacIntel,60
,,,,,,,,,,,,,,,,,,,,4,3.234999895,1,0.846999884,1,0,1200,358,1,1199,waste,11139,2019-10-21_17h08.10.979,SurveyExpMetaMem,3.2.3,MacIntel,60
,,,,,,,,,,,,,,,,,,,,5,3.017999887,5,0.232999802,1,0,1200,748,1,1199,town,11139,2019-10-21_17h08.10.979,SurveyExpMetaMem,3.2.3,MacIntel,60
,,,,,,,,,,,,,,,,,,,,5,2.167000055,5,0.296000004,1,0,1200,112,1,1199,jaguar,11139,2019-10-21_17h08.10.979,SurveyExpMetaMem,3.2.3,MacIntel,60
,,,,,,,,,,,,,,,,,,,,9,2.500999928,2,1.598999977,1,0,1200,1052,1,1199,angry,11139,2019-10-21_17h08.10.979,SurveyExpMetaMem,3.2.3,MacIntel,60
,,,,,,,,,,,,,,,,,,,,5,1.563999891,5,1.184999943,1,0,1200,664,1,1199,quiet,11139,2019-10-21_17h08.10.979,SurveyExpMetaMem,3.2.3,MacIntel,60
,,,,,,,,,,,,,,,,,,,,8,2.617999792,5,1.331999779,1,0,1200,1105,1,1199,flee,11139,2019-10-21_17h08.10.979,SurveyExpMetaMem,3.2.3,MacIntel,60
,,,,,,,,,,,,,,,,,,,,8,2.432999849,9,1.09800005,1,0,1200,796,1,1199,rose,11139,2019-10-21_17h08.10.979,SurveyExpMetaMem,3.2.3,MacIntel,60
,,,,,,,,,,,,,,,,,,,,5,1.125,5,0.426999807,1,0,1200,498,1,1199,alimony,11139,2019-10-21_17h08.10.979,SurveyExpMetaMem,3.2.3,MacIntel,60
,,,,,,,,,,,,,,,,,,,,8,2.282999992,8,2.546000004,1,0,1200,166,1,1199,unite,11139,2019-10-21_17h08.10.979,SurveyExpMetaMem,3.2.3,MacIntel,60
,,,,,,,,,,,,,,,,,,,,5,3.250999928,9,1.063999891,1,0,1200,858,1,1199,donate,11139,2019-10-21_17h08.10.979,SurveyExpMetaMem,3.2.3,MacIntel,60
,,,,,,,,,,,,,,,,,,,,5,3.953000069,1,0.81400013,1,0,1200,1016,1,1199,awful,11139,2019-10-21_17h08.10.979,SurveyExpMetaMem,3.2.3,MacIntel,60
,,,,,,,,,,,,,,,,,,,,5,1.131999969,5,0.338999987,1,0,1200,538,1,1199,crumbs,11139,2019-10-21_17h08.10.979,SurveyExpMetaMem,3.2.3,MacIntel,60
,,,,,,,,,,,,,,,,,,,,9,1.567000151,9,0.713999987,1,0,1200,805,1,1199,autumn,11139,2019-10-21_17h08.10.979,SurveyExpMetaMem,3.2.3,MacIntel,60
,,,,,,,,,,,,,,,,,,,,9,1.731999874,9,0.384000063,1,0,1200,217,1,1199,bravery,11139,2019-10-21_17h08.10.979,SurveyExpMetaMem,3.2.3,MacIntel,60
,,,,,,,,,,,,,,,,,,,,9,0.947999954,9,0.31099987,1,0,1200,105,1,1199,curious,11139,2019-10-21_17h08.10.979,SurveyExpMetaMem,3.2.3,MacIntel,60
,,,,,,,,,,,,,,,,,,,,5,3.336999893,1,0.526000023,1,0,1200,301,1,1199,sad,11139,2019-10-21_17h08.10.979,SurveyExpMetaMem,3.2.3,MacIntel,60
,,,,,,,,,,,,,,,,,,,,5,1.814999819,3,2.934000015,1,0,1200,243,1,1199,fame,11139,2019-10-21_17h08.10.979,SurveyExpMetaMem,3.2.3,MacIntel,60
,,,,,,,,,,,,,,,,,,,,8,3.10199976,8,1.142999887,1,0,1200,804,1,1199,peach,11139,2019-10-21_17h08.10.979,SurveyExpMetaMem,3.2.3,MacIntel,60
,,,,,,,,,,,,,,,,,,,,9,2.191999912,9,0.388000011,1,0,1200,789,1,1199,green,11139,2019-10-21_17h08.10.979,SurveyExpMetaMem,3.2.3,MacIntel,60
,,,,,,,,,,,,,,,,,,,,5,1.299999952,5,1.028999805,1,0,1200,363,1,1199,dumb,11139,2019-10-21_17h08.10.979,SurveyExpMetaMem,3.2.3,MacIntel,60
,,,,,,,,,,,,,,,,,,,,5,2.15899992,5,0.361000061,1,0,1200,517,1,1199,habit,11139,2019-10-21_17h08.10.979,SurveyExpMetaMem,3.2.3,MacIntel,60
,,,,,,,,,,,,,,,,,,,,5,1.247999907,5,0.299999952,1,0,1200,20,1,1199,climax,11139,2019-10-21_17h08.10.979,SurveyExpMetaMem,3.2.3,MacIntel,60
,,,,,,,,,,,,,,,,,,,,5,1.64199996,3,1.046999931,1,0,1200,1027,1,1199,criticism,11139,2019-10-21_17h08.10.979,SurveyExpMetaMem,3.2.3,MacIntel,60
,,,,,,,,,,,,,,,,,,,,5,1.66899991,5,0.328999758,1,0,1200,713,1,1199,mobile,11139,2019-10-21_17h08.10.979,SurveyExpMetaMem,3.2.3,MacIntel,60
,,,,,,,,,,,,,,,,,,,,5,0.730999947,5,0.296000004,1,0,1200,778,1,1199,adorn,11139,2019-10-21_17h08.10.979,SurveyExpMetaMem,3.2.3,MacIntel,60
,,,,,,,,,,,,,,,,,,,,5,0.897999763,5,0.229000092,1,0,1200,479,1,1199,period,11139,2019-10-21_17h08.10.979,SurveyExpMetaMem,3.2.3,MacIntel,60
,,,,,,,,,,,,,,,,,,,,5,0.830999851,5,0.228999853,1,0,1200,522,1,1199,cleft,11139,2019-10-21_17h08.10.979,SurveyExpMetaMem,3.2.3,MacIntel,60
,,,,,,,,,,,,,,,,,,,,5,0.697000027,5,0.180000067,1,0,1200,571,1,1199,marrow,11139,2019-10-21_17h08.10.979,SurveyExpMetaMem,3.2.3,MacIntel,60
,,,,,,,,,,,,,,,,,,,,4,3.478999853,1,1.182999849,1,0,1200,314,1,1199,hopeless,11139,2019-10-21_17h08.10.979,SurveyExpMetaMem,3.2.3,MacIntel,60
,,,,,,,,,,,,,,,,,,,,5,1.430999994,5,0.212000132,1,0,1200,965,1,1199,traffic,11139,2019-10-21_17h08.10.979,SurveyExpMetaMem,3.2.3,MacIntel,60
,,,,,,,,,,,,,,,,,,,,5,1.34800005,5,0.215999842,1,0,1200,495,1,1199,dust,11139,2019-10-21_17h08.10.979,SurveyExpMetaMem,3.2.3,MacIntel,60
,,,,,,,,,,,,,,,,,,,,7,1.781999826,8,1.717000008,1,0,1200,745,1,1199,inform,11139,2019-10-21_17h08.10.979,SurveyExpMetaMem,3.2.3,MacIntel,60
,,,,,,,,,,,,,,,,,,,,5,1.330999851,5,0.262000084,1,0,1200,784,1,1199,logical,11139,2019-10-21_17h08.10.979,SurveyExpMetaMem,3.2.3,MacIntel,60
,,,,,,,,,,,,,,,,,,,,8,1.98300004,9,1.113999844,1,0,1200,41,1,1199,progress,11139,2019-10-21_17h08.10.979,SurveyExpMetaMem,3.2.3,MacIntel,60
,,,,,,,,,,,,,,,,,,,,5,2.099999905,5,0.412999868,1,0,1200,201,1,1199,gorilla,11139,2019-10-21_17h08.10.979,SurveyExpMetaMem,3.2.3,MacIntel,60
,,,,,,,,,,,,,,,,,,,,5,2.282999754,4,1.430999994,1,0,1200,1129,1,1199,spanking,11139,2019-10-21_17h08.10.979,SurveyExpMetaMem,3.2.3,MacIntel,60
,,,,,,,,,,,,,,,,,,,,5,0.981999874,5,0.375999928,1,0,1200,548,1,1199,vague,11139,2019-10-21_17h08.10.979,SurveyExpMetaMem,3.2.3,MacIntel,60
,,,,,,,,,,,,,,,,,,,,5,2.67599988,2,1.179999828,1,0,1200,427,1,1199,doubt,11139,2019-10-21_17h08.10.979,SurveyExpMetaMem,3.2.3,MacIntel,60
,,,,,,,,,,,,,,,,,,,,7,4.922999859,8,1.398000002,1,0,1200,88,1,1199,ambitious,11139,2019-10-21_17h08.10.979,SurveyExpMetaMem,3.2.3,MacIntel,60
,,,,,,,,,,,,,,,,,,,,5,2.46600008,5,0.345999956,1,0,1200,736,1,1199,hawk,11139,2019-10-21_17h08.10.979,SurveyExpMetaMem,3.2.3,MacIntel,60
,,,,,,,,,,,,,,,,,,,,7,3.29399991,1,1.263000011,1,0,1200,920,1,1199,hurt,11139,2019-10-21_17h08.10.979,SurveyExpMetaMem,3.2.3,MacIntel,60
,,,,,,,,,,,,,,,,,,,,5,1.263999939,5,1.648999929,1,0,1200,767,1,1199,civil,11139,2019-10-21_17h08.10.979,SurveyExpMetaMem,3.2.3,MacIntel,60
,,,,,,,,,,,,,,,,,,,,9,2.167000055,2,2.30099988,1,0,1200,1014,1,1199,destroy,11139,2019-10-21_17h08.10.979,SurveyExpMetaMem,3.2.3,MacIntel,60
,,,,,,,,,,,,,,,,,,,,5,1.013000011,5,0.263999939,1,0,1200,503,1,1199,sludge,11139,2019-10-21_17h08.10.979,SurveyExpMetaMem,3.2.3,MacIntel,60
,,,,,,,,,,,,,,,,,,,,5,1.84800005,5,0.210999966,1,0,1200,114,1,1199,raise,11139,2019-10-21_17h08.10.979,SurveyExpMetaMem,3.2.3,MacIntel,60
,,,,,,,,,,,,,,,,,,,,5,0.711999893,5,0.161000013,1,0,1200,339,1,1199,chore,11139,2019-10-21_17h08.10.979,SurveyExpMetaMem,3.2.3,MacIntel,60
,,,,,,,,,,,,,,,,,,,,5,1.097999811,5,0.173999786,1,0,1200,140,1,1199,riches,11139,2019-10-21_17h08.10.979,SurveyExpMetaMem,3.2.3,MacIntel,60
,,,,,,,,,,,,,,,,,,,,6,3.996000051,5,1.513000011,1,0,1200,157,1,1199,reveal,11139,2019-10-21_17h08.10.979,SurveyExpMetaMem,3.2.3,MacIntel,60
,,,,,,,,,,,,,,,,,,,,6,1.749000072,7,1.115999937,1,0,1200,797,1,1199,hamburger,11139,2019-10-21_17h08.10.979,SurveyExpMetaMem,3.2.3,MacIntel,60
,,,,,,,,,,,,,,,,,,,,8,1.982999802,9,0.963999987,1,0,1200,275,1,1199,brilliant,11139,2019-10-21_17h08.10.979,SurveyExpMetaMem,3.2.3,MacIntel,60
,,,,,,,,,,,,,,,,,,,,8,1.746999979,9,0.423999786,1,0,1200,1196,1,1199,breathless,11139,2019-10-21_17h08.10.979,SurveyExpMetaMem,3.2.3,MacIntel,60
,,,,,,,,,,,,,,,,,,,,5,1.148999929,5,0.595000029,1,0,1200,865,1,1199,bliss,11139,2019-10-21_17h08.10.979,SurveyExpMetaMem,3.2.3,MacIntel,60
,,,,,,,,,,,,,,,,,,,,5,6.15899992,3,0.988999844,1,0,1200,325,1,1199,disability,11139,2019-10-21_17h08.10.979,SurveyExpMetaMem,3.2.3,MacIntel,60
,,,,,,,,,,,,,,,,,,,,9,2.347999811,4,1.747999907,1,0,1200,1055,1,1199,alarm,11139,2019-10-21_17h08.10.979,SurveyExpMetaMem,3.2.3,MacIntel,60
,,,,,,,,,,,,,,,,,,,,9,1.717000008,9,0.5,1,0,1200,123,1,1199,favorite,11139,2019-10-21_17h08.10.979,SurveyExpMetaMem,3.2.3,MacIntel,60
,,,,,,,,,,,,,,,,,,,,6,5.234999895,2,1.156999826,1,0,1200,371,1,1199,weakness,11139,2019-10-21_17h08.10.979,SurveyExpMetaMem,3.2.3,MacIntel,60
,,,,,,,,,,,,,,,,,,,,5,1.356999874,5,0.595999718,1,0,1200,983,1,1199,demonic,11139,2019-10-21_17h08.10.979,SurveyExpMetaMem,3.2.3,MacIntel,60
,,,,,,,,,,,,,,,,,,,,6,4.154000044,1,1.299000025,1,0,1200,1150,1,1199,forceful,11139,2019-10-21_17h08.10.979,SurveyExpMetaMem,3.2.3,MacIntel,60
,,,,,,,,,,,,,,,,,,,,5,1.062999964,5,0.381999969,1,0,1200,1191,1,1199,evade,11139,2019-10-21_17h08.10.979,SurveyExpMetaMem,3.2.3,MacIntel,60
,,,,,,,,,,,,,,,,,,,,5,0.796999931,5,0.228999853,1,0,1200,543,1,1199,gloat,11139,2019-10-21_17h08.10.979,SurveyExpMetaMem,3.2.3,MacIntel,60
,,,,,,,,,,,,,,,,,,,,5,0.964999914,5,0.213000059,1,0,1200,351,1,1199,germs,11139,2019-10-21_17h08.10.979,SurveyExpMetaMem,3.2.3,MacIntel,60
,,,,,,,,,,,,,,,,,,,,5,1.867000103,5,1.164000034,1,0,1200,727,1,1199,author,11139,2019-10-21_17h08.10.979,SurveyExpMetaMem,3.2.3,MacIntel,60
,,,,,,,,,,,,,,,,,,,,5,0.983999968,1,1.832000017,1,0,1200,980,1,1199,liar,11139,2019-10-21_17h08.10.979,SurveyExpMetaMem,3.2.3,MacIntel,60
,,,,,,,,,,,,,,,,,,,,5,0.962999821,5,0.378999949,1,0,1200,682,1,1199,camel,11139,2019-10-21_17h08.10.979,SurveyExpMetaMem,3.2.3,MacIntel,60
,,,,,,,,,,,,,,,,,,,,5,2.70299983,2,2.132999897,1,0,1200,447,1,1199,dishes,11139,2019-10-21_17h08.10.979,SurveyExpMetaMem,3.2.3,MacIntel,60
,,,,,,,,,,,,,,,,,,,,5,1.434999704,5,0.279000044,1,0,1200,714,1,1199,courtyard,11139,2019-10-21_17h08.10.979,SurveyExpMetaMem,3.2.3,MacIntel,60
,,,,,,,,,,,,,,,,,,,,7,1.449999809,5,1.240999937,1,0,1200,798,1,1199,crystal,11139,2019-10-21_17h08.10.979,SurveyExpMetaMem,3.2.3,MacIntel,60
,,,,,,,,,,,,,,,,,,,,5,1.046000004,5,0.362999916,1,0,1200,450,1,1199,overcast,11139,2019-10-21_17h08.10.979,SurveyExpMetaMem,3.2.3,MacIntel,60
,,,,,,,,,,,,,,,,,,,,5,2.512000084,1,0.847000122,1,0,1200,348,1,1199,impotent,11139,2019-10-21_17h08.10.979,SurveyExpMetaMem,3.2.3,MacIntel,60
,,,,,,,,,,,,,,,,,,,,5,1.332000017,5,0.279999971,1,0,1200,1092,1,1199,rattlesnake,11139,2019-10-21_17h08.10.979,SurveyExpMetaMem,3.2.3,MacIntel,60
,,,,,,,,,,,,,,,,,,,,5,0.996999741,5,0.212000132,1,0,1200,818,1,1199,priest,11139,2019-10-21_17h08.10.979,SurveyExpMetaMem,3.2.3,MacIntel,60
,,,,,,,,,,,,,,,,,,,,5,2.042999983,1,1.346999884,1,0,1200,1147,1,1199,demand,11139,2019-10-21_17h08.10.979,SurveyExpMetaMem,3.2.3,MacIntel,60
,,,,,,,,,,,,,,,,,,,,5,1.464999914,5,0.443999767,1,0,1200,729,1,1199,velvet,11139,2019-10-21_17h08.10.979,SurveyExpMetaMem,3.2.3,MacIntel,60
,,,,,,,,,,,,,,,,,,,,5,2.295000076,6,1.547999859,1,0,1200,760,1,1199,shrimp,11139,2019-10-21_17h08.10.979,SurveyExpMetaMem,3.2.3,MacIntel,60
,,,,,,,,,,,,,,,,,,,,5,0.863999844,5,0.378999949,1,0,1200,1136,1,1199,appall,11139,2019-10-21_17h08.10.979,SurveyExpMetaMem,3.2.3,MacIntel,60
,,,,,,,,,,,,,,,,,,,,5,2.015999794,5,0.812999964,1,0,1200,1069,1,1199,defeat,11139,2019-10-21_17h08.10.979,SurveyExpMetaMem,3.2.3,MacIntel,60
,,,,,,,,,,,,,,,,,,,,1,2.549999952,5,1.431999922,1,0,1200,406,1,1199,tired,11139,2019-10-21_17h08.10.979,SurveyExpMetaMem,3.2.3,MacIntel,60
,,,,,,,,,,,,,,,,,,,,5,2.752000093,5,3.753999949,1,0,1200,1163,1,1199,python,11139,2019-10-21_17h08.10.979,SurveyExpMetaMem,3.2.3,MacIntel,60
,,,,,,,,,,,,,,,,,,,,5,0.330000162,5,1.197999954,1,0,1200,833,1,1199,nice,11139,2019-10-21_17h08.10.979,SurveyExpMetaMem,3.2.3,MacIntel,60
,,,,,,,,,,,,,,,,,,,,8,2.009999752,4,1.58100009,1,0,1200,533,1,1199,busy,11139,2019-10-21_17h08.10.979,SurveyExpMetaMem,3.2.3,MacIntel,60
,,,,,,,,,,,,,,,,,,,,8,2.78399992,9,1.049999952,1,0,1200,182,1,1199,genius,11139,2019-10-21_17h08.10.979,SurveyExpMetaMem,3.2.3,MacIntel,60
,,,,,,,,,,,,,,,,,,,,5,3.61899972,5,0.246999979,1,0,1200,1146,1,1199,bug,11139,2019-10-21_17h08.10.979,SurveyExpMetaMem,3.2.3,MacIntel,60
,,,,,,,,,,,,,,,,,,,,7,1.884000063,7,2.718999863,1,0,1200,763,1,1199,vegetables,11139,2019-10-21_17h08.10.979,SurveyExpMetaMem,3.2.3,MacIntel,60
,,,,,,,,,,,,,,,,,,,,5,1.448999882,5,0.332999945,1,0,1200,1035,1,1199,expel,11139,2019-10-21_17h08.10.979,SurveyExpMetaMem,3.2.3,MacIntel,60
,,,,,,,,,,,,,,,,,,,,7,4.036999941,1,0.562999964,1,0,1200,1013,1,1199,guilty,11139,2019-10-21_17h08.10.979,SurveyExpMetaMem,3.2.3,MacIntel,60
,,,,,,,,,,,,,,,,,,,,8,1.842000008,9,0.822999954,1,0,1200,874,1,1199,butterfly,11139,2019-10-21_17h08.10.979,SurveyExpMetaMem,3.2.3,MacIntel,60
,,,,,,,,,,,,,,,,,,,,9,1.547999859,9,0.448999882,1,0,1200,274,1,1199,song,11139,2019-10-21_17h08.10.979,SurveyExpMetaMem,3.2.3,MacIntel,60
,,,,,,,,,,,,,,,,,,,,8,2.433000088,8,0.947000027,1,0,1200,267,1,1199,bold,11139,2019-10-21_17h08.10.979,SurveyExpMetaMem,3.2.3,MacIntel,60
,,,,,,,,,,,,,,,,,,,,5,1.715999842,3,0.729999781,1,0,1200,494,1,1199,butcher,11139,2019-10-21_17h08.10.979,SurveyExpMetaMem,3.2.3,MacIntel,60
,,,,,,,,,,,,,,,,,,,,5,1.34800005,5,0.496999979,1,0,1200,599,1,1199,obstinate,11139,2019-10-21_17h08.10.979,SurveyExpMetaMem,3.2.3,MacIntel,60
,,,,,,,,,,,,,,,,,,,,6,3.946999788,3,0.92599988,1,0,1200,230,1,1199,eager,11139,2019-10-21_17h08.10.979,SurveyExpMetaMem,3.2.3,MacIntel,60
,,,,,,,,,,,,,,,,,,,,5,1.549000025,4,0.898000002,1,0,1200,570,1,1199,muddy,11139,2019-10-21_17h08.10.979,SurveyExpMetaMem,3.2.3,MacIntel,60
,,,,,,,,,,,,,,,,,,,,5,1.130999804,5,0.416999817,1,0,1200,118,1,1199,conquer,11139,2019-10-21_17h08.10.979,SurveyExpMetaMem,3.2.3,MacIntel,60
,,,,,,,,,,,,,,,,,,,,8,2.351000071,7,1.027999878,1,0,1200,695,1,1199,teacher,11139,2019-10-21_17h08.10.979,SurveyExpMetaMem,3.2.3,MacIntel,60
,,,,,,,,,,,,,,,,,,,,4,7.995999813,9,0.623999834,1,0,1200,297,1,1199,pleasure,11139,2019-10-21_17h08.10.979,SurveyExpMetaMem,3.2.3,MacIntel,60
,,,,,,,,,,,,,,,,,,,,5,1.279999971,5,0.229999781,1,0,1200,700,1,1199,frog,11139,2019-10-21_17h08.10.979,SurveyExpMetaMem,3.2.3,MacIntel,60
,,,,,,,,,,,,,,,,,,,,9,1.552999973,8,1.726999998,1,0,1200,59,1,1199,sports,11139,2019-10-21_17h08.10.979,SurveyExpMetaMem,3.2.3,MacIntel,60
,,,,,,,,,,,,,,,,,,,,5,1.190999985,5,0.355999947,1,0,1200,607,1,1199,greyhound,11139,2019-10-21_17h08.10.979,SurveyExpMetaMem,3.2.3,MacIntel,60
,,,,,,,,,,,,,,,,,,,,9,1.280999899,9,0.378999949,1,0,1200,291,1,1199,fantastic,11139,2019-10-21_17h08.10.979,SurveyExpMetaMem,3.2.3,MacIntel,60
,,,,,,,,,,,,,,,,,,,,9,1.31099987,9,0.289000034,1,0,1200,78,1,1199,energetic,11139,2019-10-21_17h08.10.979,SurveyExpMetaMem,3.2.3,MacIntel,60
,,,,,,,,,,,,,,,,,,,,7,4.753999949,1,0.929999828,1,0,1200,937,1,1199,prison,11139,2019-10-21_17h08.10.979,SurveyExpMetaMem,3.2.3,MacIntel,60
,,,,,,,,,,,,,,,,,,,,5,1.447000027,5,0.227999926,1,0,1200,1157,1,1199,slayer,11139,2019-10-21_17h08.10.979,SurveyExpMetaMem,3.2.3,MacIntel,60
,,,,,,,,,,,,,,,,,,,,5,1.898999929,5,0.163999796,1,0,1200,749,1,1199,glasses,11139,2019-10-21_17h08.10.979,SurveyExpMetaMem,3.2.3,MacIntel,60
,,,,,,,,,,,,,,,,,,,,7,2.343999863,1,0.611999989,1,0,1200,950,1,1199,murder,11139,2019-10-21_17h08.10.979,SurveyExpMetaMem,3.2.3,MacIntel,60
,,,,,,,,,,,,,,,,,,,,5,2.88499999,2,1.815999985,1,0,1200,442,1,1199,foolish,11139,2019-10-21_17h08.10.979,SurveyExpMetaMem,3.2.3,MacIntel,60
,,,,,,,,,,,,,,,,,,,,6,4.638000011,1,0.748000145,1,0,1200,932,1,1199,bankrupt,11139,2019-10-21_17h08.10.979,SurveyExpMetaMem,3.2.3,MacIntel,60
,,,,,,,,,,,,,,,,,,,,8,1.882999897,8,1.514999866,1,0,1200,296,1,1199,awesome,11139,2019-10-21_17h08.10.979,SurveyExpMetaMem,3.2.3,MacIntel,60
,,,,,,,,,,,,,,,,,,,,5,1.374999762,5,0.444999933,1,0,1200,539,1,1199,novice,11139,2019-10-21_17h08.10.979,SurveyExpMetaMem,3.2.3,MacIntel,60
,,,,,,,,,,,,,,,,,,,,9,2.383999825,8,1.263999939,1,0,1200,187,1,1199,excite,11139,2019-10-21_17h08.10.979,SurveyExpMetaMem,3.2.3,MacIntel,60
,,,,,,,,,,,,,,,,,,,,7,1.880999804,8,0.881000042,1,0,1200,877,1,1199,bless,11139,2019-10-21_17h08.10.979,SurveyExpMetaMem,3.2.3,MacIntel,60
,,,,,,,,,,,,,,,,,,,,8,1.698999882,8,0.406999826,1,0,1200,47,1,1199,enjoy,11139,2019-10-21_17h08.10.979,SurveyExpMetaMem,3.2.3,MacIntel,60
,,,,,,,,,,,,,,,,,,,,5,1.212999821,5,0.339999914,1,0,1200,668,1,1199,unit,11139,2019-10-21_17h08.10.979,SurveyExpMetaMem,3.2.3,MacIntel,60
,,,,,,,,,,,,,,,,,,,,9,1.032999992,9,0.31099987,1,0,1200,117,1,1199,powerful,11139,2019-10-21_17h08.10.979,SurveyExpMetaMem,3.2.3,MacIntel,60
,,,,,,,,,,,,,,,,,,,,9,0.964999914,9,0.281999826,1,0,1200,173,1,1199,hope,11139,2019-10-21_17h08.10.979,SurveyExpMetaMem,3.2.3,MacIntel,60
,,,,,,,,,,,,,,,,,,,,7,1.780999899,5,0.822999954,1,0,1200,223,1,1199,fashion,11139,2019-10-21_17h08.10.979,SurveyExpMetaMem,3.2.3,MacIntel,60
,,,,,,,,,,,,,,,,,,,,5,4.287999868,5,2.01699996,1,0,1200,690,1,1199,similar,11139,2019-10-21_17h08.10.979,SurveyExpMetaMem,3.2.3,MacIntel,60
,,,,,,,,,,,,,,,,,,,,5,3.251999855,2,1.497999907,1,0,1200,1134,1,1199,obsessed,11139,2019-10-21_17h08.10.979,SurveyExpMetaMem,3.2.3,MacIntel,60
,,,,,,,,,,,,,,,,,,,,5,0.914999962,5,0.263000011,1,0,1200,993,1,1199,remorse,11139,2019-10-21_17h08.10.979,SurveyExpMetaMem,3.2.3,MacIntel,60
,,,,,,,,,,,,,,,,,,,,5,1.131000042,5,0.200000048,1,0,1200,226,1,1199,prize,11139,2019-10-21_17h08.10.979,SurveyExpMetaMem,3.2.3,MacIntel,60
,,,,,,,,,,,,,,,,,,,,7,2.900999784,5,1.27699995,1,0,1200,261,1,1199,windsurfers,11139,2019-10-21_17h08.10.979,SurveyExpMetaMem,3.2.3,MacIntel,60
,,,,,,,,,,,,,,,,,,,,5,2.870000124,6,1.646999836,1,0,1200,786,1,1199,afternoon,11139,2019-10-21_17h08.10.979,SurveyExpMetaMem,3.2.3,MacIntel,60
,,,,,,,,,,,,,,,,,,,,7,2.684999943,9,0.799000025,1,0,1200,892,1,1199,untroubled,11139,2019-10-21_17h08.10.979,SurveyExpMetaMem,3.2.3,MacIntel,60
,,,,,,,,,,,,,,,,,,,,5,1.273000002,5,0.357999802,1,0,1200,1187,1,1199,drill,11139,2019-10-21_17h08.10.979,SurveyExpMetaMem,3.2.3,MacIntel,60
,,,,,,,,,,,,,,,,,,,,8,8.547999859,9,0.872999907,1,0,1200,883,1,1199,sky,11139,2019-10-21_17h08.10.979,SurveyExpMetaMem,3.2.3,MacIntel,60
,,,,,,,,,,,,,,,,,,,,7,2.833999872,1,0.930999756,1,0,1200,587,1,1199,dissolve,11139,2019-10-21_17h08.10.979,SurveyExpMetaMem,3.2.3,MacIntel,60
,,,,,,,,,,,,,,,,,,,,5,3.302000046,5,0.213000059,1,0,1200,404,1,1199,nuisance,11139,2019-10-21_17h08.10.979,SurveyExpMetaMem,3.2.3,MacIntel,60
,,,,,,,,,,,,,,,,,,,,5,0.829999924,5,0.163000107,1,0,1200,423,1,1199,stain,11139,2019-10-21_17h08.10.979,SurveyExpMetaMem,3.2.3,MacIntel,60
,,,,,,,,,,,,,,,,,,,,5,0.680999994,5,0.196000099,1,0,1200,485,1,1199,pinch,11139,2019-10-21_17h08.10.979,SurveyExpMetaMem,3.2.3,MacIntel,60
,,,,,,,,,,,,,,,,,,,,9,1.012000084,9,0.227999926,1,0,1200,281,1,1199,summer,11139,2019-10-21_17h08.10.979,SurveyExpMetaMem,3.2.3,MacIntel,60
,,,,,,,,,,,,,,,,,,,,5,1.915999889,5,0.229999781,1,0,1200,575,1,1199,paragraph,11139,2019-10-21_17h08.10.979,SurveyExpMetaMem,3.2.3,MacIntel,60
,,,,,,,,,,,,,,,,,,,,9,1.312999964,9,0.178999901,1,0,1200,164,1,1199,marry,11139,2019-10-21_17h08.10.979,SurveyExpMetaMem,3.2.3,MacIntel,60
,,,,,,,,,,,,,,,,,,,,6,1.899999857,7,1.049999952,1,0,1200,776,1,1199,doll,11139,2019-10-21_17h08.10.979,SurveyExpMetaMem,3.2.3,MacIntel,60
,,,,,,,,,,,,,,,,,,,,5,4.052999973,8,1.441999912,1,0,1200,708,1,1199,nursery,11139,2019-10-21_17h08.10.979,SurveyExpMetaMem,3.2.3,MacIntel,60
,,,,,,,,,,,,,,,,,,,,5,0.913000107,5,0.338999748,1,0,1200,1043,1,1199,scold,11139,2019-10-21_17h08.10.979,SurveyExpMetaMem,3.2.3,MacIntel,60
,,,,,,,,,,,,,,,,,,,,7,2.134999752,5,1.681999922,1,0,1200,255,1,1199,ass,11139,2019-10-21_17h08.10.979,SurveyExpMetaMem,3.2.3,MacIntel,60
,,,,,,,,,,,,,,,,,,,,5,2.983999968,1,1.131999969,1,0,1200,1041,1,1199,sin,11139,2019-10-21_17h08.10.979,SurveyExpMetaMem,3.2.3,MacIntel,60
,,,,,,,,,,,,,,,,,,,,5,1.146999836,1,0.622999907,1,0,1200,949,1,1199,thief,11139,2019-10-21_17h08.10.979,SurveyExpMetaMem,3.2.3,MacIntel,60
,,,,,,,,,,,,,,,,,,,,8,3.992000103,1,0.819999933,1,0,1200,1086,1,1199,irritate,11139,2019-10-21_17h08.10.979,SurveyExpMetaMem,3.2.3,MacIntel,60
,,,,,,,,,,,,,,,,,,,,7,2.282999992,1,0.513000011,1,0,1200,1171,1,1199,chaos,11139,2019-10-21_17h08.10.979,SurveyExpMetaMem,3.2.3,MacIntel,60
,,,,,,,,,,,,,,,,,,,,5,1.716999769,5,0.462999821,1,0,1200,6,1,1199,chest,11139,2019-10-21_17h08.10.979,SurveyExpMetaMem,3.2.3,MacIntel,60
,,,,,,,,,,,,,,,,,,,,9,3.085999966,4,1.296999931,1,0,1200,1087,1,1199,affair,11139,2019-10-21_17h08.10.979,SurveyExpMetaMem,3.2.3,MacIntel,60
,,,,,,,,,,,,,,,,,,,,5,1.131000042,5,0.246999741,1,0,1200,512,1,1199,insect,11139,2019-10-21_17h08.10.979,SurveyExpMetaMem,3.2.3,MacIntel,60
,,,,,,,,,,,,,,,,,,,,8,1.498999834,8,2.049999952,1,0,1200,60,1,1199,bikini,11139,2019-10-21_17h08.10.979,SurveyExpMetaMem,3.2.3,MacIntel,60
,,,,,,,,,,,,,,,,,,,,8,2.835000038,8,1.75,1,0,1200,10,1,1199,cheerleader,11139,2019-10-21_17h08.10.979,SurveyExpMetaMem,3.2.3,MacIntel,60
,,,,,,,,,,,,,,,,,,,,7,2.583999872,7,1.398999929,1,0,1200,838,1,1199,nestle,11139,2019-10-21_17h08.10.979,SurveyExpMetaMem,3.2.3,MacIntel,60
,,,,,,,,,,,,,,,,,,,,5,2.845000029,5,0.244999886,1,0,1200,331,1,1199,casket,11139,2019-10-21_17h08.10.979,SurveyExpMetaMem,3.2.3,MacIntel,60
,,,,,,,,,,,,,,,,,,,,5,1.197999954,5,0.238999844,1,0,1200,241,1,1199,car,11139,2019-10-21_17h08.10.979,SurveyExpMetaMem,3.2.3,MacIntel,60
,,,,,,,,,,,,,,,,,,,,5,0.713999987,5,0.230000019,1,0,1200,812,1,1199,harp,11139,2019-10-21_17h08.10.979,SurveyExpMetaMem,3.2.3,MacIntel,60
,,,,,,,,,,,,,,,,,,,,9,1.330999851,9,0.379999876,1,0,1200,292,1,1199,birthday,11139,2019-10-21_17h08.10.979,SurveyExpMetaMem,3.2.3,MacIntel,60
,,,,,,,,,,,,,,,,,,,,9,1.180999756,9,0.245999813,1,0,1200,29,1,1199,life,11139,2019-10-21_17h08.10.979,SurveyExpMetaMem,3.2.3,MacIntel,60
,,,,,,,,,,,,,,,,,,,,5,0.996999979,5,0.296000004,1,0,1200,441,1,1199,prohibit,11139,2019-10-21_17h08.10.979,SurveyExpMetaMem,3.2.3,MacIntel,60
,,,,,,,,,,,,,,,,,,,,5,2.517999887,5,0.212999821,1,0,1200,403,1,1199,wither,11139,2019-10-21_17h08.10.979,SurveyExpMetaMem,3.2.3,MacIntel,60
,,,,,,,,,,,,,,,,,,,,6,2.167999983,8,1.312999725,1,0,1200,176,1,1199,champ,11139,2019-10-21_17h08.10.979,SurveyExpMetaMem,3.2.3,MacIntel,60
,,,,,,,,,,,,,,,,,,,,5,1.346999884,5,0.312999964,1,0,1200,566,1,1199,obscure,11139,2019-10-21_17h08.10.979,SurveyExpMetaMem,3.2.3,MacIntel,60
,,,,,,,,,,,,,,,,,,,,5,2.014999866,5,0.180000067,1,0,1200,614,1,1199,crossword,11139,2019-10-21_17h08.10.979,SurveyExpMetaMem,3.2.3,MacIntel,60
,,,,,,,,,,,,,,,,,,,,7,2.80099988,1,1.428999901,1,0,1200,1037,1,1199,scared,11139,2019-10-21_17h08.10.979,SurveyExpMetaMem,3.2.3,MacIntel,60
,,,,,,,,,,,,,,,,,,,,5,1.32400012,5,1.148000002,1,0,1200,416,1,1199,boring,11139,2019-10-21_17h08.10.979,SurveyExpMetaMem,3.2.3,MacIntel,60
,,,,,,,,,,,,,,,,,,,,8,2.045000076,9,1.046000004,1,0,1200,294,1,1199,confident,11139,2019-10-21_17h08.10.979,SurveyExpMetaMem,3.2.3,MacIntel,60
,,,,,,,,,,,,,,,,,,,,5,1.045999765,5,0.360999823,1,0,1200,594,1,1199,moss,11139,2019-10-21_17h08.10.979,SurveyExpMetaMem,3.2.3,MacIntel,60
,,,,,,,,,,,,,,,,,,,,6,2.15899992,1,0.914000034,1,0,1200,317,1,1199,cry,11139,2019-10-21_17h08.10.979,SurveyExpMetaMem,3.2.3,MacIntel,60
,,,,,,,,,,,,,,,,,,,,9,2.599999905,5,1.080999851,1,0,1200,222,1,1199,waterskiing,11139,2019-10-21_17h08.10.979,SurveyExpMetaMem,3.2.3,MacIntel,60
,,,,,,,,,,,,,,,,,,,,9,1.531999826,9,0.563999891,1,0,1200,146,1,1199,congratulations,11139,2019-10-21_17h08.10.979,SurveyExpMetaMem,3.2.3,MacIntel,60
,,,,,,,,,,,,,,,,,,,,5,2.717000008,8,0.648999929,1,0,1200,731,1,1199,decency,11139,2019-10-21_17h08.10.979,SurveyExpMetaMem,3.2.3,MacIntel,60
,,,,,,,,,,,,,,,,,,,,5,1.464999914,9,0.846999884,1,0,1200,880,1,1199,security,11139,2019-10-21_17h08.10.979,SurveyExpMetaMem,3.2.3,MacIntel,60
,,,,,,,,,,,,,,,,,,,,5,2.434999943,1,0.823999882,1,0,1200,346,1,1199,alcoholism,11139,2019-10-21_17h08.10.979,SurveyExpMetaMem,3.2.3,MacIntel,60
,,,,,,,,,,,,,,,,,,,,5,4.819999933,3,1.298999786,1,0,1200,862,1,1199,ease,11139,2019-10-21_17h08.10.979,SurveyExpMetaMem,3.2.3,MacIntel,60
,,,,,,,,,,,,,,,,,,,,5,2.234999895,3,1.747999907,1,0,1200,429,1,1199,cough,11139,2019-10-21_17h08.10.979,SurveyExpMetaMem,3.2.3,MacIntel,60
,,,,,,,,,,,,,,,,,,,,5,1.549999952,5,0.397000074,1,0,1200,591,1,1199,bereavement,11139,2019-10-21_17h08.10.979,SurveyExpMetaMem,3.2.3,MacIntel,60
,,,,,,,,,,,,,,,,,,,,9,1.441999912,9,0.445999861,1,0,1200,180,1,1199,embrace,11139,2019-10-21_17h08.10.979,SurveyExpMetaMem,3.2.3,MacIntel,60
,,,,,,,,,,,,,,,,,,,,7,3.13499999,2,0.933000088,1,0,1200,966,1,1199,regretful,11139,2019-10-21_17h08.10.979,SurveyExpMetaMem,3.2.3,MacIntel,60
,,,,,,,,,,,,,,,,,,,,9,1.741999865,9,0.322000027,1,0,1200,298,1,1199,success,11139,2019-10-21_17h08.10.979,SurveyExpMetaMem,3.2.3,MacIntel,60
,,,,,,,,,,,,,,,,,,,,9,1.565000057,9,0.188999891,1,0,1200,1172,1,1199,overwhelmed,11139,2019-10-21_17h08.10.979,SurveyExpMetaMem,3.2.3,MacIntel,60
,,,,,,,,,,,,,,,,,,,,5,1.422999859,5,0.345999956,1,0,1200,628,1,1199,chess,11139,2019-10-21_17h08.10.979,SurveyExpMetaMem,3.2.3,MacIntel,60
,,,,,,,,,,,,,,,,,,,,9,2.688999891,2,0.614999771,1,0,1200,981,1,1199,rage,11139,2019-10-21_17h08.10.979,SurveyExpMetaMem,3.2.3,MacIntel,60
,,,,,,,,,,,,,,,,,,,,9,3.467999935,7,2.083999872,1,0,1200,1,1,1199,fuck,11139,2019-10-21_17h08.10.979,SurveyExpMetaMem,3.2.3,MacIntel,60
,,,,,,,,,,,,,,,,,,,,8,2.251999855,7,1.180999756,1,0,1200,37,1,1199,magnificence,11139,2019-10-21_17h08.10.979,SurveyExpMetaMem,3.2.3,MacIntel,60
,,,,,,,,,,,,,,,,,,,,5,1.531999826,5,0.246000051,1,0,1200,519,1,1199,listless,11139,2019-10-21_17h08.10.979,SurveyExpMetaMem,3.2.3,MacIntel,60
,,,,,,,,,,,,,,,,,,,,5,1.013999939,5,0.211999893,1,0,1200,689,1,1199,land,11139,2019-10-21_17h08.10.979,SurveyExpMetaMem,3.2.3,MacIntel,60
,,,,,,,,,,,,,,,,,,,,5,1.732000113,3,1.11500001,1,0,1200,1158,1,1199,dentist,11139,2019-10-21_17h08.10.979,SurveyExpMetaMem,3.2.3,MacIntel,60
,,,,,,,,,,,,,,,,,,,,7,2.851999998,8,0.878000021,1,0,1200,756,1,1199,plant,11139,2019-10-21_17h08.10.979,SurveyExpMetaMem,3.2.3,MacIntel,60
,,,,,,,,,,,,,,,,,,,,7,2.382999897,7,1.547999859,1,0,1200,156,1,1199,gym,11139,2019-10-21_17h08.10.979,SurveyExpMetaMem,3.2.3,MacIntel,60
,,,,,,,,,,,,,,,,,,,,4,2.832999706,1,0.665999889,1,0,1200,333,1,1199,weak,11139,2019-10-21_17h08.10.979,SurveyExpMetaMem,3.2.3,MacIntel,60
,,,,,,,,,,,,,,,,,,,,8,2.26699996,3,1.532999992,1,0,1200,268,1,1199,tickle,11139,2019-10-21_17h08.10.979,SurveyExpMetaMem,3.2.3,MacIntel,60
,,,,,,,,,,,,,,,,,,,,5,1.062999964,5,0.312999964,1,0,1200,1118,1,1199,frantic,11139,2019-10-21_17h08.10.979,SurveyExpMetaMem,3.2.3,MacIntel,60
,,,,,,,,,,,,,,,,,,,,8,2.11500001,1,0.881999969,1,0,1200,1048,1,1199,paranoid,11139,2019-10-21_17h08.10.979,SurveyExpMetaMem,3.2.3,MacIntel,60
,,,,,,,,,,,,,,,,,,,,5,2.032000065,5,0.211999893,1,0,1200,746,1,1199,proper,11139,2019-10-21_17h08.10.979,SurveyExpMetaMem,3.2.3,MacIntel,60
,,,,,,,,,,,,,,,,,,,,6,2.28399992,1,0.806999922,1,0,1200,952,1,1199,troubled,11139,2019-10-21_17h08.10.979,SurveyExpMetaMem,3.2.3,MacIntel,60
,,,,,,,,,,,,,,,,,,,,5,1.276000023,5,0.288000107,1,0,1200,206,1,1199,comet,11139,2019-10-21_17h08.10.979,SurveyExpMetaMem,3.2.3,MacIntel,60
,,,,,,,,,,,,,,,,,,,,8,1.723999977,8,1.013000011,1,0,1200,50,1,1199,bolt,11139,2019-10-21_17h08.10.979,SurveyExpMetaMem,3.2.3,MacIntel,60
,,,,,,,,,,,,,,,,,,,,5,1.397000074,5,0.279999733,1,0,1200,322,1,1199,widow,11139,2019-10-21_17h08.10.979,SurveyExpMetaMem,3.2.3,MacIntel,60
,,,,,,,,,,,,,,,,,,,,5,1.73300004,6,1.450999975,1,0,1200,641,1,1199,writer,11139,2019-10-21_17h08.10.979,SurveyExpMetaMem,3.2.3,MacIntel,60
,,,,,,,,,,,,,,,,,,,,7,3.133999825,1,1.299000025,1,0,1200,1033,1,1199,horror,11139,2019-10-21_17h08.10.979,SurveyExpMetaMem,3.2.3,MacIntel,60
,,,,,,,,,,,,,,,,,,,,5,1.431999922,7,2.183000088,1,0,1200,821,1,1199,cottage,11139,2019-10-21_17h08.10.979,SurveyExpMetaMem,3.2.3,MacIntel,60
,,,,,,,,,,,,,,,,,,,,5,2.26699996,5,0.398000002,1,0,1200,524,1,1199,sigh,11139,2019-10-21_17h08.10.979,SurveyExpMetaMem,3.2.3,MacIntel,60
,,,,,,,,,,,,,,,,,,,,5,1.430999756,5,0.296999931,1,0,1200,306,1,1199,gloom,11139,2019-10-21_17h08.10.979,SurveyExpMetaMem,3.2.3,MacIntel,60
,,,,,,,,,,,,,,,,,,,,7,1.915999889,1,0.680999756,1,0,1200,1139,1,1199,scare,11139,2019-10-21_17h08.10.979,SurveyExpMetaMem,3.2.3,MacIntel,60
,,,,,,,,,,,,,,,,,,,,5,1.297999859,5,0.495999813,1,0,1200,971,1,1199,crash,11139,2019-10-21_17h08.10.979,SurveyExpMetaMem,3.2.3,MacIntel,60
,,,,,,,,,,,,,,,,,,,,5,0.967999935,5,0.529999733,1,0,1200,350,1,1199,inadequate,11139,2019-10-21_17h08.10.979,SurveyExpMetaMem,3.2.3,MacIntel,60
,,,,,,,,,,,,,,,,,,,,5,3.269999981,5,0.308000088,1,0,1200,890,1,1199,carefree,11139,2019-10-21_17h08.10.979,SurveyExpMetaMem,3.2.3,MacIntel,60
,,,,,,,,,,,,,,,,,,,,5,0.855999947,5,0.212000132,1,0,1200,905,1,1199,suffocate,11139,2019-10-21_17h08.10.979,SurveyExpMetaMem,3.2.3,MacIntel,60
,,,,,,,,,,,,,,,,,,,,7,2.434999943,9,2.717000008,1,0,1200,885,1,1199,cozy,11139,2019-10-21_17h08.10.979,SurveyExpMetaMem,3.2.3,MacIntel,60
,,,,,,,,,,,,,,,,,,,,7,1.92599988,2,1.062999964,1,0,1200,928,1,1199,cruel,11139,2019-10-21_17h08.10.979,SurveyExpMetaMem,3.2.3,MacIntel,60
,,,,,,,,,,,,,,,,,,,,5,1.424999714,5,0.413999796,1,0,1200,1109,1,1199,germ,11139,2019-10-21_17h08.10.979,SurveyExpMetaMem,3.2.3,MacIntel,60
,,,,,,,,,,,,,,,,,,,,5,2.048999786,5,0.230999947,1,0,1200,200,1,1199,preach,11139,2019-10-21_17h08.10.979,SurveyExpMetaMem,3.2.3,MacIntel,60
,,,,,,,,,,,,,,,,,,,,5,1.815000057,3,0.763999939,1,0,1200,692,1,1199,medicine,11139,2019-10-21_17h08.10.979,SurveyExpMetaMem,3.2.3,MacIntel,60
,,,,,,,,,,,,,,,,,,,,3,5.640999794,9,0.780999899,1,0,1200,853,1,1199,breeze,11139,2019-10-21_17h08.10.979,SurveyExpMetaMem,3.2.3,MacIntel,60
,,,,,,,,,,,,,,,,,,,,5,1.198999882,5,0.262999773,1,0,1200,706,1,1199,cat,11139,2019-10-21_17h08.10.979,SurveyExpMetaMem,3.2.3,MacIntel,60
,,,,,,,,,,,,,,,,,,,,5,0.832999945,2,1.424999714,1,0,1200,1110,1,1199,bastard,11139,2019-10-21_17h08.10.979,SurveyExpMetaMem,3.2.3,MacIntel,60
,,,,,,,,,,,,,,,,,,,,5,1.958999872,2,1.892999887,1,0,1200,1094,1,1199,disruptive,11139,2019-10-21_17h08.10.979,SurveyExpMetaMem,3.2.3,MacIntel,60
,,,,,,,,,,,,,,,,,,,,8,2.229000092,3,0.664000034,1,0,1200,1126,1,1199,offensive,11139,2019-10-21_17h08.10.979,SurveyExpMetaMem,3.2.3,MacIntel,60
,,,,,,,,,,,,,,,,,,,,9,3.36199975,7,0.72300005,1,0,1200,9,1,1199,try,11139,2019-10-21_17h08.10.979,SurveyExpMetaMem,3.2.3,MacIntel,60
,,,,,,,,,,,,,,,,,,,,5,1.964999914,5,0.288999796,1,0,1200,673,1,1199,bedspread,11139,2019-10-21_17h08.10.979,SurveyExpMetaMem,3.2.3,MacIntel,60
,,,,,,,,,,,,,,,,,,,,5,1.815000057,5,0.228999853,1,0,1200,709,1,1199,ancestor,11139,2019-10-21_17h08.10.979,SurveyExpMetaMem,3.2.3,MacIntel,60
,,,,,,,,,,,,,,,,,,,,5,1.247999907,5,0.260999918,1,0,1200,513,1,1199,bland,11139,2019-10-21_17h08.10.979,SurveyExpMetaMem,3.2.3,MacIntel,60
,,,,,,,,,,,,,,,,,,,,5,1.062999964,5,0.228999853,1,0,1200,1039,1,1199,stalk,11139,2019-10-21_17h08.10.979,SurveyExpMetaMem,3.2.3,MacIntel,60
,,,,,,,,,,,,,,,,,,,,9,1.649999857,2,1.097000122,1,0,1200,1116,1,1199,emergency,11139,2019-10-21_17h08.10.979,SurveyExpMetaMem,3.2.3,MacIntel,60
,,,,,,,,,,,,,,,,,,,,5,1.664999962,5,0.211999893,1,0,1200,557,1,1199,class,11139,2019-10-21_17h08.10.979,SurveyExpMetaMem,3.2.3,MacIntel,60
,,,,,,,,,,,,,,,,,,,,5,0.796999931,5,0.195999861,1,0,1200,360,1,1199,dandruff,11139,2019-10-21_17h08.10.979,SurveyExpMetaMem,3.2.3,MacIntel,60
,,,,,,,,,,,,,,,,,,,,4,4.038999796,3,1.39199996,1,0,1200,595,1,1199,vacuum,11139,2019-10-21_17h08.10.979,SurveyExpMetaMem,3.2.3,MacIntel,60
,,,,,,,,,,,,,,,,,,,,5,1.579999924,5,0.207000017,1,0,1200,1097,1,1199,bees,11139,2019-10-21_17h08.10.979,SurveyExpMetaMem,3.2.3,MacIntel,60
,,,,,,,,,,,,,,,,,,,,7,2.682999849,1,1.115999937,1,0,1200,364,1,1199,stink,11139,2019-10-21_17h08.10.979,SurveyExpMetaMem,3.2.3,MacIntel,60
,,,,,,,,,,,,,,,,,,,,5,1.364000082,5,0.429999828,1,0,1200,421,1,1199,stale,11139,2019-10-21_17h08.10.979,SurveyExpMetaMem,3.2.3,MacIntel,60
,,,,,,,,,,,,,,,,,,,,5,1.46600008,5,0.210999966,1,0,1200,651,1,1199,bathroom,11139,2019-10-21_17h08.10.979,SurveyExpMetaMem,3.2.3,MacIntel,60
,,,,,,,,,,,,,,,,,,,,8,1.499000072,8,1.667000055,1,0,1200,782,1,1199,open,11139,2019-10-21_17h08.10.979,SurveyExpMetaMem,3.2.3,MacIntel,60
,,,,,,,,,,,,,,,,,,,,9,1.917999983,9,0.524999857,1,0,1200,34,1,1199,personality,11139,2019-10-21_17h08.10.979,SurveyExpMetaMem,3.2.3,MacIntel,60
,,,,,,,,,,,,,,,,,,,,5,1.614999771,5,0.395999908,1,0,1200,49,1,1199,ecstatic,11139,2019-10-21_17h08.10.979,SurveyExpMetaMem,3.2.3,MacIntel,60
,,,,,,,,,,,,,,,,,,,,7,2.544999838,1,0.828999996,1,0,1200,443,1,1199,incorrect,11139,2019-10-21_17h08.10.979,SurveyExpMetaMem,3.2.3,MacIntel,60
,,,,,,,,,,,,,,,,,,,,6,3.085999966,1,1.064999819,1,0,1200,367,1,1199,pathetic,11139,2019-10-21_17h08.10.979,SurveyExpMetaMem,3.2.3,MacIntel,60
,,,,,,,,,,,,,,,,,,,,7,3.05099988,7,3.812999964,1,0,1200,577,1,1199,retreat,11139,2019-10-21_17h08.10.979,SurveyExpMetaMem,3.2.3,MacIntel,60
,,,,,,,,,,,,,,,,,,,,6,2.998999834,4,1.430999756,1,0,1200,1174,1,1199,beast,11139,2019-10-21_17h08.10.979,SurveyExpMetaMem,3.2.3,MacIntel,60
,,,,,,,,,,,,,,,,,,,,9,1.750999928,9,0.508999825,1,0,1200,58,1,1199,boost,11139,2019-10-21_17h08.10.979,SurveyExpMetaMem,3.2.3,MacIntel,60
,,,,,,,,,,,,,,,,,,,,5,1.681999922,5,0.296999931,1,0,1200,935,1,1199,despise,11139,2019-10-21_17h08.10.979,SurveyExpMetaMem,3.2.3,MacIntel,60
,,,,,,,,,,,,,,,,,,,,5,0.779999971,5,0.195999861,1,0,1200,511,1,1199,slouch,11139,2019-10-21_17h08.10.979,SurveyExpMetaMem,3.2.3,MacIntel,60
,,,,,,,,,,,,,,,,,,,,9,1.282000065,9,0.228999853,1,0,1200,193,1,1199,party,11139,2019-10-21_17h08.10.979,SurveyExpMetaMem,3.2.3,MacIntel,60
,,,,,,,,,,,,,,,,,,,,6,3.083999872,1,0.697999954,1,0,1200,927,1,1199,jail,11139,2019-10-21_17h08.10.979,SurveyExpMetaMem,3.2.3,MacIntel,60
,,,,,,,,,,,,,,,,,,,,5,1.299000025,5,0.246000051,1,0,1200,527,1,1199,passive,11139,2019-10-21_17h08.10.979,SurveyExpMetaMem,3.2.3,MacIntel,60
,,,,,,,,,,,,,,,,,,,,5,1.06400013,5,0.212000132,1,0,1200,285,1,1199,gold,11139,2019-10-21_17h08.10.979,SurveyExpMetaMem,3.2.3,MacIntel,60
,,,,,,,,,,,,,,,,,,,,5,0.713999987,5,0.228999853,1,0,1200,844,1,1199,soul,11139,2019-10-21_17h08.10.979,SurveyExpMetaMem,3.2.3,MacIntel,60
,,,,,,,,,,,,,,,,,,,,5,1.197999954,5,0.280999899,1,0,1200,741,1,1199,wheat,11139,2019-10-21_17h08.10.979,SurveyExpMetaMem,3.2.3,MacIntel,60
,,,,,,,,,,,,,,,,,,,,5,1.949999809,1,0.714999914,1,0,1200,687,1,1199,skinny,11139,2019-10-21_17h08.10.979,SurveyExpMetaMem,3.2.3,MacIntel,60
,,,,,,,,,,,,,,,,,,,,5,1.223999977,5,0.480000019,1,0,1200,549,1,1199,beet,11139,2019-10-21_17h08.10.979,SurveyExpMetaMem,3.2.3,MacIntel,60
,,,,,,,,,,,,,,,,,,,,5,1.164999962,5,0.296000004,1,0,1200,63,1,1199,clothes,11139,2019-10-21_17h08.10.979,SurveyExpMetaMem,3.2.3,MacIntel,60
,,,,,,,,,,,,,,,,,,,,5,0.813999891,5,0.228999853,1,0,1200,332,1,1199,sewage,11139,2019-10-21_17h08.10.979,SurveyExpMetaMem,3.2.3,MacIntel,60
,,,,,,,,,,,,,,,,,,,,7,1.398999929,7,0.664000034,1,0,1200,845,1,1199,honey,11139,2019-10-21_17h08.10.979,SurveyExpMetaMem,3.2.3,MacIntel,60
,,,,,,,,,,,,,,,,,,,,7,2.134000063,8,0.497999907,1,0,1200,850,1,1199,lake,11139,2019-10-21_17h08.10.979,SurveyExpMetaMem,3.2.3,MacIntel,60
,,,,,,,,,,,,,,,,,,,,5,1.731999874,1,0.662999868,1,0,1200,433,1,1199,uninteresting,11139,2019-10-21_17h08.10.979,SurveyExpMetaMem,3.2.3,MacIntel,60
,,,,,,,,,,,,,,,,,,,,5,1.246999979,5,0.429999828,1,0,1200,265,1,1199,invent,11139,2019-10-21_17h08.10.979,SurveyExpMetaMem,3.2.3,MacIntel,60
,,,,,,,,,,,,,,,,,,,,9,1.610999823,9,0.297999859,1,0,1200,82,1,1199,stunning,11139,2019-10-21_17h08.10.979,SurveyExpMetaMem,3.2.3,MacIntel,60
,,,,,,,,,,,,,,,,,,,,7,4.554999828,1,0.61500001,1,0,1200,452,1,1199,scapegoat,11139,2019-10-21_17h08.10.979,SurveyExpMetaMem,3.2.3,MacIntel,60
,,,,,,,,,,,,,,,,,,,,8,3.269999981,4,2.064999819,1,0,1200,17,1,1199,outgoing,11139,2019-10-21_17h08.10.979,SurveyExpMetaMem,3.2.3,MacIntel,60
,,,,,,,,,,,,,,,,,,,,6,2.200000048,2,0.980999708,1,0,1200,991,1,1199,harass,11139,2019-10-21_17h08.10.979,SurveyExpMetaMem,3.2.3,MacIntel,60
,,,,,,,,,,,,,,,,,,,,5,1.313999891,5,0.263999939,1,0,1200,309,1,1199,homeless,11139,2019-10-21_17h08.10.979,SurveyExpMetaMem,3.2.3,MacIntel,60
,,,,,,,,,,,,,,,,,,,,7,5.340999842,2,1.398999929,1,0,1200,373,1,1199,ignorance,11139,2019-10-21_17h08.10.979,SurveyExpMetaMem,3.2.3,MacIntel,60
,,,,,,,,,,,,,,,,,,,,1,3.530999899,9,0.862999916,1,0,1200,897,1,1199,peaceful,11139,2019-10-21_17h08.10.979,SurveyExpMetaMem,3.2.3,MacIntel,60
,,,,,,,,,,,,,,,,,,,,6,2.684000015,5,1.710999966,1,0,1200,550,1,1199,fart,11139,2019-10-21_17h08.10.979,SurveyExpMetaMem,3.2.3,MacIntel,60
,,,,,,,,,,,,,,,,,,,,4,6.023000002,9,1.113999844,1,0,1200,35,1,1199,bright,11139,2019-10-21_17h08.10.979,SurveyExpMetaMem,3.2.3,MacIntel,60
,,,,,,,,,,,,,,,,,,,,1,1.902999878,9,0.862999916,1,0,1200,870,1,1199,safe,11139,2019-10-21_17h08.10.979,SurveyExpMetaMem,3.2.3,MacIntel,60
,,,,,,,,,,,,,,,,,,,,5,1.081999779,5,0.347999811,1,0,1200,415,1,1199,grime,11139,2019-10-21_17h08.10.979,SurveyExpMetaMem,3.2.3,MacIntel,60
,,,,,,,,,,,,,,,,,,,,7,4.06799984,1,0.730999947,1,0,1200,906,1,1199,syphilis,11139,2019-10-21_17h08.10.979,SurveyExpMetaMem,3.2.3,MacIntel,60
,,,,,,,,,,,,,,,,,,,,5,2.81799984,3,1.264999866,1,0,1200,521,1,1199,laundry,11139,2019-10-21_17h08.10.979,SurveyExpMetaMem,3.2.3,MacIntel,60
,,,,,,,,,,,,,,,,,,,,5,1.163999796,5,0.262000084,1,0,1200,630,1,1199,website,11139,2019-10-21_17h08.10.979,SurveyExpMetaMem,3.2.3,MacIntel,60
,,,,,,,,,,,,,,,,,,,,8,1.332000017,9,1.160000086,1,0,1200,85,1,1199,like,11139,2019-10-21_17h08.10.979,SurveyExpMetaMem,3.2.3,MacIntel,60
,,,,,,,,,,,,,,,,,,,,5,1.079999924,5,0.228999853,1,0,1200,620,1,1199,spray,11139,2019-10-21_17h08.10.979,SurveyExpMetaMem,3.2.3,MacIntel,60
,,,,,,,,,,,,,,,,,,,,8,3.069000006,4,1.480999947,1,0,1200,159,1,1199,teenager,11139,2019-10-21_17h08.10.979,SurveyExpMetaMem,3.2.3,MacIntel,60
,,,,,,,,,,,,,,,,,,,,5,0.838999987,5,0.411999941,1,0,1200,615,1,1199,lad,11139,2019-10-21_17h08.10.979,SurveyExpMetaMem,3.2.3,MacIntel,60
,,,,,,,,,,,,,,,,,,,,5,0.648999929,5,0.213999987,1,0,1200,1074,1,1199,detain,11139,2019-10-21_17h08.10.979,SurveyExpMetaMem,3.2.3,MacIntel,60
,,,,,,,,,,,,,,,,,,,,9,1.332999945,9,0.380000114,1,0,1200,179,1,1199,star,11139,2019-10-21_17h08.10.979,SurveyExpMetaMem,3.2.3,MacIntel,60
,,,,,,,,,,,,,,,,,,,,8,2.165999889,9,0.596999884,1,0,1200,135,1,1199,applause,11139,2019-10-21_17h08.10.979,SurveyExpMetaMem,3.2.3,MacIntel,60
,,,,,,,,,,,,,,,,,,,,5,1.097999811,5,0.412999868,1,0,1200,393,1,1199,droop,11139,2019-10-21_17h08.10.979,SurveyExpMetaMem,3.2.3,MacIntel,60
,,,,,,,,,,,,,,,,,,,,6,2.148999929,2,0.963000059,1,0,1200,537,1,1199,absurd,11139,2019-10-21_17h08.10.979,SurveyExpMetaMem,3.2.3,MacIntel,60
,,,,,,,,,,,,,,,,,,,,6,4.105000019,4,0.916999817,1,0,1200,205,1,1199,outspoken,11139,2019-10-21_17h08.10.979,SurveyExpMetaMem,3.2.3,MacIntel,60
,,,,,,,,,,,,,,,,,,,,8,2.25999999,8,0.881000042,1,0,1200,1067,1,1199,wicked,11139,2019-10-21_17h08.10.979,SurveyExpMetaMem,3.2.3,MacIntel,60
,,,,,,,,,,,,,,,,,,,,5,1.416999817,5,0.210999966,1,0,1200,834,1,1199,crown,11139,2019-10-21_17h08.10.979,SurveyExpMetaMem,3.2.3,MacIntel,60
,,,,,,,,,,,,,,,,,,,,7,2.266000032,5,2.917999744,1,0,1200,55,1,1199,rare,11139,2019-10-21_17h08.10.979,SurveyExpMetaMem,3.2.3,MacIntel,60
,,,,,,,,,,,,,,,,,,,,5,2.23300004,5,0.246999741,1,0,1200,605,1,1199,year,11139,2019-10-21_17h08.10.979,SurveyExpMetaMem,3.2.3,MacIntel,60
,,,,,,,,,,,,,,,,,,,,8,3.017999887,8,1.401999712,1,0,1200,1192,1,1199,startled,11139,2019-10-21_17h08.10.979,SurveyExpMetaMem,3.2.3,MacIntel,60
,,,,,,,,,,,,,,,,,,,,5,1.463999748,5,0.328999996,1,0,1200,646,1,1199,wear,11139,2019-10-21_17h08.10.979,SurveyExpMetaMem,3.2.3,MacIntel,60
,,,,,,,,,,,,,,,,,,,,9,1.41899991,9,0.561999798,1,0,1200,888,1,1199,refreshment,11139,2019-10-21_17h08.10.979,SurveyExpMetaMem,3.2.3,MacIntel,60
,,,,,,,,,,,,,,,,,,,,5,1.431999922,4,0.463000059,1,0,1200,402,1,1199,dismissive,11139,2019-10-21_17h08.10.979,SurveyExpMetaMem,3.2.3,MacIntel,60
,,,,,,,,,,,,,,,,,,,,5,1.35199976,5,0.359999895,1,0,1200,1065,1,1199,slap,11139,2019-10-21_17h08.10.979,SurveyExpMetaMem,3.2.3,MacIntel,60
,,,,,,,,,,,,,,,,,,,,5,0.745999813,5,0.228999853,1,0,1200,586,1,1199,cab,11139,2019-10-21_17h08.10.979,SurveyExpMetaMem,3.2.3,MacIntel,60
,,,,,,,,,,,,,,,,,,,,3,2.233999968,9,0.578999996,1,0,1200,237,1,1199,beautiful,11139,2019-10-21_17h08.10.979,SurveyExpMetaMem,3.2.3,MacIntel,60
,,,,,,,,,,,,,,,,,,,,5,1.198999882,5,0.295000076,1,0,1200,765,1,1199,candid,11139,2019-10-21_17h08.10.979,SurveyExpMetaMem,3.2.3,MacIntel,60
,,,,,,,,,,,,,,,,,,,,5,11.94799995,5,0.221999884,1,0,1200,482,1,1199,cell,11139,2019-10-21_17h08.10.979,SurveyExpMetaMem,3.2.3,MacIntel,60
,,,,,,,,,,,,,,,,,,,,5,1.355999947,5,0.210999727,1,0,1200,1008,1,1199,gang,11139,2019-10-21_17h08.10.979,SurveyExpMetaMem,3.2.3,MacIntel,60
,,,,,,,,,,,,,,,,,,,,5,0.813999891,3,0.996999979,1,0,1200,516,1,1199,smug,11139,2019-10-21_17h08.10.979,SurveyExpMetaMem,3.2.3,MacIntel,60
,,,,,,,,,,,,,,,,,,,,6,2.342999935,3,0.779999971,1,0,1200,233,1,1199,exhilaration,11139,2019-10-21_17h08.10.979,SurveyExpMetaMem,3.2.3,MacIntel,60
,,,,,,,,,,,,,,,,,,,,7,2.917999983,1,0.491999865,1,0,1200,1000,1,1199,threat,11139,2019-10-21_17h08.10.979,SurveyExpMetaMem,3.2.3,MacIntel,60
,,,,,,,,,,,,,,,,,,,,5,1.247999907,5,0.228999853,1,0,1200,21,1,1199,game,11139,2019-10-21_17h08.10.979,SurveyExpMetaMem,3.2.3,MacIntel,60
,,,,,,,,,,,,,,,,,,,,2,2.984999895,4,1.282999754,1,0,1200,409,1,1199,old,11139,2019-10-21_17h08.10.979,SurveyExpMetaMem,3.2.3,MacIntel,60
,,,,,,,,,,,,,,,,,,,,7,2.549000025,1,0.780999899,1,0,1200,446,1,1199,greedy,11139,2019-10-21_17h08.10.979,SurveyExpMetaMem,3.2.3,MacIntel,60
,,,,,,,,,,,,,,,,,,,,8,3.469000101,9,0.447000027,1,0,1200,97,1,1199,enthusiastic,11139,2019-10-21_17h08.10.979,SurveyExpMetaMem,3.2.3,MacIntel,60
,,,,,,,,,,,,,,,,,,,,4,5.750999928,8,1.267999887,1,0,1200,793,1,1199,virtue,11139,2019-10-21_17h08.10.979,SurveyExpMetaMem,3.2.3,MacIntel,60
,,,,,,,,,,,,,,,,,,,,5,1.914999723,1,0.947999954,1,0,1200,316,1,1199,sorrow,11139,2019-10-21_17h08.10.979,SurveyExpMetaMem,3.2.3,MacIntel,60
,,,,,,,,,,,,,,,,,,,,5,3.002000093,7,1.332000017,1,0,1200,733,1,1199,poetry,11139,2019-10-21_17h08.10.979,SurveyExpMetaMem,3.2.3,MacIntel,60
,,,,,,,,,,,,,,,,,,,,7,2.950999737,1,0.963000059,1,0,1200,939,1,1199,vomit,11139,2019-10-21_17h08.10.979,SurveyExpMetaMem,3.2.3,MacIntel,60
,,,,,,,,,,,,,,,,,,,,5,1.748999834,1,0.889999866,1,0,1200,925,1,1199,disloyal,11139,2019-10-21_17h08.10.979,SurveyExpMetaMem,3.2.3,MacIntel,60
,,,,,,,,,,,,,,,,,,,,9,4.09800005,1,1.029000044,1,0,1200,1031,1,1199,fear,11139,2019-10-21_17h08.10.979,SurveyExpMetaMem,3.2.3,MacIntel,60
,,,,,,,,,,,,,,,,,,,,7,2.786000013,1,1.315000057,1,0,1200,362,1,1199,despair,11139,2019-10-21_17h08.10.979,SurveyExpMetaMem,3.2.3,MacIntel,60
,,,,,,,,,,,,,,,,,,,,9,2.348999977,9,0.613999844,1,0,1200,32,1,1199,festival,11139,2019-10-21_17h08.10.979,SurveyExpMetaMem,3.2.3,MacIntel,60
,,,,,,,,,,,,,,,,,,,,5,1.497999907,5,0.144999743,1,0,1200,593,1,1199,errand,11139,2019-10-21_17h08.10.979,SurveyExpMetaMem,3.2.3,MacIntel,60
,,,,,,,,,,,,,,,,,,,,6,2.583999872,5,1.442000151,1,0,1200,68,1,1199,perfect,11139,2019-10-21_17h08.10.979,SurveyExpMetaMem,3.2.3,MacIntel,60
,,,,,,,,,,,,,,,,,,,,5,2.701999903,5,0.222999811,1,0,1200,751,1,1199,listen,11139,2019-10-21_17h08.10.979,SurveyExpMetaMem,3.2.3,MacIntel,60
,,,,,,,,,,,,,,,,,,,,8,3.985999823,1,0.662999868,1,0,1200,940,1,1199,war,11139,2019-10-21_17h08.10.979,SurveyExpMetaMem,3.2.3,MacIntel,60
,,,,,,,,,,,,,,,,,,,,7,1.631999969,3,1.233999968,1,0,1200,341,1,1199,stinky,11139,2019-10-21_17h08.10.979,SurveyExpMetaMem,3.2.3,MacIntel,60
,,,,,,,,,,,,,,,,,,,,7,2.232999802,9,1.096999884,1,0,1200,740,1,1199,groceries,11139,2019-10-21_17h08.10.979,SurveyExpMetaMem,3.2.3,MacIntel,60
,,,,,,,,,,,,,,,,,,,,8,2.03399992,9,0.580999851,1,0,1200,199,1,1199,laughter,11139,2019-10-21_17h08.10.979,SurveyExpMetaMem,3.2.3,MacIntel,60
,,,,,,,,,,,,,,,,,,,,7,2.26699996,9,0.644999981,1,0,1200,835,1,1199,helpful,11139,2019-10-21_17h08.10.979,SurveyExpMetaMem,3.2.3,MacIntel,60
,,,,,,,,,,,,,,,,,,,,5,1.531999826,5,0.230999947,1,0,1200,640,1,1199,cabin,11139,2019-10-21_17h08.10.979,SurveyExpMetaMem,3.2.3,MacIntel,60
,,,,,,,,,,,,,,,,,,,,9,1.047999859,9,0.245999813,1,0,1200,87,1,1199,cookie,11139,2019-10-21_17h08.10.979,SurveyExpMetaMem,3.2.3,MacIntel,60
,,,,,,,,,,,,,,,,,,,,9,0.846999884,9,0.195999861,1,0,1200,183,1,1199,congratulate,11139,2019-10-21_17h08.10.979,SurveyExpMetaMem,3.2.3,MacIntel,60
,,,,,,,,,,,,,,,,,,,,9,3.835999966,1,0.641000032,1,0,1200,943,1,1199,trauma,11139,2019-10-21_17h08.10.979,SurveyExpMetaMem,3.2.3,MacIntel,60
,,,,,,,,,,,,,,,,,,,,8,1.899999857,1,0.532999754,1,0,1200,1156,1,1199,weapon,11139,2019-10-21_17h08.10.979,SurveyExpMetaMem,3.2.3,MacIntel,60
,,,,,,,,,,,,,,,,,,,,5,1.864999771,5,0.462999821,1,0,1200,501,1,1199,dustpan,11139,2019-10-21_17h08.10.979,SurveyExpMetaMem,3.2.3,MacIntel,60
,,,,,,,,,,,,,,,,,,,,5,1.214999914,5,0.178999901,1,0,1200,770,1,1199,buffalo,11139,2019-10-21_17h08.10.979,SurveyExpMetaMem,3.2.3,MacIntel,60
,,,,,,,,,,,,,,,,,,,,5,0.779999733,5,0.178999901,1,0,1200,1144,1,1199,yelp,11139,2019-10-21_17h08.10.979,SurveyExpMetaMem,3.2.3,MacIntel,60
,,,,,,,,,,,,,,,,,,,,5,0.662999868,5,0.197000027,1,0,1200,702,1,1199,den,11139,2019-10-21_17h08.10.979,SurveyExpMetaMem,3.2.3,MacIntel,60
,,,,,,,,,,,,,,,,,,,,8,1.743999958,9,0.722999811,1,0,1200,879,1,1199,bird,11139,2019-10-21_17h08.10.979,SurveyExpMetaMem,3.2.3,MacIntel,60
,,,,,,,,,,,,,,,,,,,,5,2.250999928,5,0.812999964,1,0,1200,704,1,1199,flute,11139,2019-10-21_17h08.10.979,SurveyExpMetaMem,3.2.3,MacIntel,60
,,,,,,,,,,,,,,,,,,,,9,1.58100009,9,0.230999947,1,0,1200,196,1,1199,smile,11139,2019-10-21_17h08.10.979,SurveyExpMetaMem,3.2.3,MacIntel,60
,,,,,,,,,,,,,,,,,,,,5,1.196999788,5,0.211999893,1,0,1200,684,1,1199,send,11139,2019-10-21_17h08.10.979,SurveyExpMetaMem,3.2.3,MacIntel,60
,,,,,,,,,,,,,,,,,,,,5,0.963000059,5,0.179000139,1,0,1200,787,1,1199,dawn,11139,2019-10-21_17h08.10.979,SurveyExpMetaMem,3.2.3,MacIntel,60
,,,,,,,,,,,,,,,,,,,,5,1.280999899,5,0.229000092,1,0,1200,584,1,1199,anus,11139,2019-10-21_17h08.10.979,SurveyExpMetaMem,3.2.3,MacIntel,60
,,,,,,,,,,,,,,,,,,,,3,3.351999998,5,3.899999857,1,0,1200,829,1,1199,innocent,11139,2019-10-21_17h08.10.979,SurveyExpMetaMem,3.2.3,MacIntel,60
,,,,,,,,,,,,,,,,,,,,5,0.796999931,5,0.349999905,1,0,1200,366,1,1199,fatigue,11139,2019-10-21_17h08.10.979,SurveyExpMetaMem,3.2.3,MacIntel,60
,,,,,,,,,,,,,,,,,,,,9,1.529000044,2,1.197000027,1,0,1200,1161,1,1199,shock,11139,2019-10-21_17h08.10.979,SurveyExpMetaMem,3.2.3,MacIntel,60
,,,,,,,,,,,,,,,,,,,,5,0.898999929,5,0.260999918,1,0,1200,460,1,1199,rag,11139,2019-10-21_17h08.10.979,SurveyExpMetaMem,3.2.3,MacIntel,60
,,,,,,,,,,,,,,,,,,,,9,1.397999763,1,0.930999756,1,0,1200,1007,1,1199,tornado,11139,2019-10-21_17h08.10.979,SurveyExpMetaMem,3.2.3,MacIntel,60
,,,,,,,,,,,,,,,,,,,,3,6.35199976,9,0.878999949,1,0,1200,323,1,1199,ungrateful,11139,2019-10-21_17h08.10.979,SurveyExpMetaMem,3.2.3,MacIntel,60
,,,,,,,,,,,,,,,,,,,,7,1.965999842,8,0.862999916,1,0,1200,122,1,1199,prince,11139,2019-10-21_17h08.10.979,SurveyExpMetaMem,3.2.3,MacIntel,60
,,,,,,,,,,,,,,,,,,,,9,2.25,9,0.946999788,1,0,1200,211,1,1199,surfer,11139,2019-10-21_17h08.10.979,SurveyExpMetaMem,3.2.3,MacIntel,60
,,,,,,,,,,,,,,,,,,,,5,1.382999897,5,0.345999956,1,0,1200,822,1,1199,clearer,11139,2019-10-21_17h08.10.979,SurveyExpMetaMem,3.2.3,MacIntel,60
,,,,,,,,,,,,,,,,,,,,1,3.786000013,8,1.646999836,1,0,1200,754,1,1199,reflection,11139,2019-10-21_17h08.10.979,SurveyExpMetaMem,3.2.3,MacIntel,60
,,,,,,,,,,,,,,,,,,,,5,3.919999838,7,2.750999928,1,0,1200,846,1,1199,able,11139,2019-10-21_17h08.10.979,SurveyExpMetaMem,3.2.3,MacIntel,60
,,,,,,,,,,,,,,,,,,,,5,1.298999786,5,0.397000074,1,0,1200,483,1,1199,condescension,11139,2019-10-21_17h08.10.979,SurveyExpMetaMem,3.2.3,MacIntel,60
,,,,,,,,,,,,,,,,,,,,7,2.278000116,2,0.89199996,1,0,1200,574,1,1199,distracted,11139,2019-10-21_17h08.10.979,SurveyExpMetaMem,3.2.3,MacIntel,60
,,,,,,,,,,,,,,,,,,,,5,0.934999943,5,0.279000044,1,0,1200,582,1,1199,cling,11139,2019-10-21_17h08.10.979,SurveyExpMetaMem,3.2.3,MacIntel,60
,,,,,,,,,,,,,,,,,,,,6,5.17599988,3,0.645999908,1,0,1200,397,1,1199,complaint,11139,2019-10-21_17h08.10.979,SurveyExpMetaMem,3.2.3,MacIntel,60
,,,,,,,,,,,,,,,,,,,,9,1.708999872,1,0.546000004,1,0,1200,1061,1,1199,difficult,11139,2019-10-21_17h08.10.979,SurveyExpMetaMem,3.2.3,MacIntel,60
,,,,,,,,,,,,,,,,,,,,8,2.016000032,9,0.597999811,1,0,1200,177,1,1199,frosting,11139,2019-10-21_17h08.10.979,SurveyExpMetaMem,3.2.3,MacIntel,60
,,,,,,,,,,,,,,,,,,,,6,1.930999994,2,0.981999874,1,0,1200,377,1,1199,complain,11139,2019-10-21_17h08.10.979,SurveyExpMetaMem,3.2.3,MacIntel,60
,,,,,,,,,,,,,,,,,,,,5,1.530999899,5,0.412999868,1,0,1200,627,1,1199,introductory,11139,2019-10-21_17h08.10.979,SurveyExpMetaMem,3.2.3,MacIntel,60
,,,,,,,,,,,,,,,,,,,,5,1.246999979,5,0.211999893,1,0,1200,912,1,1199,rabies,11139,2019-10-21_17h08.10.979,SurveyExpMetaMem,3.2.3,MacIntel,60
,,,,,,,,,,,,,,,,,,,,5,0.763000011,5,0.212000132,1,0,1200,374,1,1199,sluggish,11139,2019-10-21_17h08.10.979,SurveyExpMetaMem,3.2.3,MacIntel,60
,,,,,,,,,,,,,,,,,,,,5,1.249000072,5,0.229000092,1,0,1200,504,1,1199,cane,11139,2019-10-21_17h08.10.979,SurveyExpMetaMem,3.2.3,MacIntel,60
,,,,,,,,,,,,,,,,,,,,5,1.247999907,5,0.195999861,1,0,1200,569,1,1199,onion,11139,2019-10-21_17h08.10.979,SurveyExpMetaMem,3.2.3,MacIntel,60
,,,,,,,,,,,,,,,,,,,,5,0.812999964,5,0.171999931,1,0,1200,1167,1,1199,bribe,11139,2019-10-21_17h08.10.979,SurveyExpMetaMem,3.2.3,MacIntel,60
,,,,,,,,,,,,,,,,,,,,8,1.681999922,9,0.506000042,1,0,1200,26,1,1199,inspired,11139,2019-10-21_17h08.10.979,SurveyExpMetaMem,3.2.3,MacIntel,60
,,,,,,,,,,,,,,,,,,,,9,1.424000025,9,0.263999939,1,0,1200,195,1,1199,laughing,11139,2019-10-21_17h08.10.979,SurveyExpMetaMem,3.2.3,MacIntel,60
,,,,,,,,,,,,,,,,,,,,9,1.023999929,9,0.213000059,1,0,1200,284,1,1199,delight,11139,2019-10-21_17h08.10.979,SurveyExpMetaMem,3.2.3,MacIntel,60
,,,,,,,,,,,,,,,,,,,,9,3.403000116,1,1.398999929,1,0,1200,986,1,1199,mad,11139,2019-10-21_17h08.10.979,SurveyExpMetaMem,3.2.3,MacIntel,60
,,,,,,,,,,,,,,,,,,,,9,1.731999874,3,2.182999849,1,0,1200,964,1,1199,grieve,11139,2019-10-21_17h08.10.979,SurveyExpMetaMem,3.2.3,MacIntel,60
,,,,,,,,,,,,,,,,,,,,8,5.205999851,1,1,1,0,1200,424,1,1199,fault,11139,2019-10-21_17h08.10.979,SurveyExpMetaMem,3.2.3,MacIntel,60
,,,,,,,,,,,,,,,,,,,,9,2.032000065,9,0.379999876,1,0,1200,113,1,1199,bridesmaid,11139,2019-10-21_17h08.10.979,SurveyExpMetaMem,3.2.3,MacIntel,60
,,,,,,,,,,,,,,,,,,,,5,0.846999884,5,0.211999893,1,0,1200,662,1,1199,bib,11139,2019-10-21_17h08.10.979,SurveyExpMetaMem,3.2.3,MacIntel,60
,,,,,,,,,,,,,,,,,,,,7,2.434999943,1,0.879999876,1,0,1200,997,1,1199,injury,11139,2019-10-21_17h08.10.979,SurveyExpMetaMem,3.2.3,MacIntel,60
,,,,,,,,,,,,,,,,,,,,5,1.181999922,5,0.213000059,1,0,1200,612,1,1199,propeller,11139,2019-10-21_17h08.10.979,SurveyExpMetaMem,3.2.3,MacIntel,60
,,,,,,,,,,,,,,,,,,,,6,3.184999943,1,0.995999813,1,0,1200,1076,1,1199,embarrassed,11139,2019-10-21_17h08.10.979,SurveyExpMetaMem,3.2.3,MacIntel,60
,,,,,,,,,,,,,,,,,,,,7,2.650999784,9,0.813999891,1,0,1200,190,1,1199,rescue,11139,2019-10-21_17h08.10.979,SurveyExpMetaMem,3.2.3,MacIntel,60
,,,,,,,,,,,,,,,,,,,,5,0.964999914,5,0.195999861,1,0,1200,326,1,1199,scam,11139,2019-10-21_17h08.10.979,SurveyExpMetaMem,3.2.3,MacIntel,60
,,,,,,,,,,,,,,,,,,,,5,0.845999956,5,0.229999781,1,0,1200,790,1,1199,binoculars,11139,2019-10-21_17h08.10.979,SurveyExpMetaMem,3.2.3,MacIntel,60
,,,,,,,,,,,,,,,,,,,,4,5.919999838,8,0.546000004,1,0,1200,794,1,1199,pray,11139,2019-10-21_17h08.10.979,SurveyExpMetaMem,3.2.3,MacIntel,60
,,,,,,,,,,,,,,,,,,,,7,2.569999933,1,0.930999994,1,0,1200,947,1,1199,shame,11139,2019-10-21_17h08.10.979,SurveyExpMetaMem,3.2.3,MacIntel,60
,,,,,,,,,,,,,,,,,,,,5,1.31799984,5,0.215000153,1,0,1200,359,1,1199,bored,11139,2019-10-21_17h08.10.979,SurveyExpMetaMem,3.2.3,MacIntel,60
,,,,,,,,,,,,,,,,,,,,7,3.704999924,4,1.463999987,1,0,1200,969,1,1199,whore,11139,2019-10-21_17h08.10.979,SurveyExpMetaMem,3.2.3,MacIntel,60
,,,,,,,,,,,,,,,,,,,,5,1.214999914,5,0.181999922,1,0,1200,525,1,1199,stagnant,11139,2019-10-21_17h08.10.979,SurveyExpMetaMem,3.2.3,MacIntel,60
,,,,,,,,,,,,,,,,,,,,8,1.53399992,2,1.84100008,1,0,1200,982,1,1199,robbery,11139,2019-10-21_17h08.10.979,SurveyExpMetaMem,3.2.3,MacIntel,60
,,,,,,,,,,,,,,,,,,,,5,3.230000019,1,1.06099987,1,0,1200,902,1,1199,rejected,11139,2019-10-21_17h08.10.979,SurveyExpMetaMem,3.2.3,MacIntel,60
,,,,,,,,,,,,,,,,,,,,5,1.129999876,5,0.210999966,1,0,1200,715,1,1199,sheltered,11139,2019-10-21_17h08.10.979,SurveyExpMetaMem,3.2.3,MacIntel,60
,,,,,,,,,,,,,,,,,,,,5,0.640999794,5,0.188999891,1,0,1200,1056,1,1199,crime,11139,2019-10-21_17h08.10.979,SurveyExpMetaMem,3.2.3,MacIntel,60
,,,,,,,,,,,,,,,,,,,,7,7.937999725,1,0.461999893,1,0,1200,910,1,1199,abusive,11139,2019-10-21_17h08.10.979,SurveyExpMetaMem,3.2.3,MacIntel,60
,,,,,,,,,,,,,,,,,,,,5,1.883999825,5,0.228999853,1,0,1200,428,1,1199,end,11139,2019-10-21_17h08.10.979,SurveyExpMetaMem,3.2.3,MacIntel,60
,,,,,,,,,,,,,,,,,,,,3,2.299999952,8,1.332000017,1,0,1200,737,1,1199,lamb,11139,2019-10-21_17h08.10.979,SurveyExpMetaMem,3.2.3,MacIntel,60
,,,,,,,,,,,,,,,,,,,,5,1.615999937,5,0.207000017,1,0,1200,175,1,1199,playground,11139,2019-10-21_17h08.10.979,SurveyExpMetaMem,3.2.3,MacIntel,60
,,,,,,,,,,,,,,,,,,,,5,0.845999956,5,0.161000013,1,0,1200,726,1,1199,crackers,11139,2019-10-21_17h08.10.979,SurveyExpMetaMem,3.2.3,MacIntel,60
,,,,,,,,,,,,,,,,,,,,5,1.073999882,5,0.194000006,1,0,1200,747,1,1199,furniture,11139,2019-10-21_17h08.10.979,SurveyExpMetaMem,3.2.3,MacIntel,60
,,,,,,,,,,,,,,,,,,,,8,2.165999889,1,0.628000021,1,0,1200,923,1,1199,punish,11139,2019-10-21_17h08.10.979,SurveyExpMetaMem,3.2.3,MacIntel,60
,,,,,,,,,,,,,,,,,,,,5,1.263999939,5,0.160000086,1,0,1200,484,1,1199,leave,11139,2019-10-21_17h08.10.979,SurveyExpMetaMem,3.2.3,MacIntel,60
,,,,,,,,,,,,,,,,,,,,9,1.163999796,9,0.212999821,1,0,1200,868,1,1199,grace,11139,2019-10-21_17h08.10.979,SurveyExpMetaMem,3.2.3,MacIntel,60
,,,,,,,,,,,,,,,,,,,,5,2.100999832,5,0.348999739,1,0,1200,133,1,1199,prosperous,11139,2019-10-21_17h08.10.979,SurveyExpMetaMem,3.2.3,MacIntel,60
,,,,,,,,,,,,,,,,,,,,8,1.398000002,9,0.444000006,1,0,1200,240,1,1199,giggles,11139,2019-10-21_17h08.10.979,SurveyExpMetaMem,3.2.3,MacIntel,60
,,,,,,,,,,,,,,,,,,,,5,0.846999884,5,0.348999977,1,0,1200,508,1,1199,haphazard,11139,2019-10-21_17h08.10.979,SurveyExpMetaMem,3.2.3,MacIntel,60
,,,,,,,,,,,,,,,,,,,,8,2.016000032,2,1.063999891,1,0,1200,383,1,1199,messy,11139,2019-10-21_17h08.10.979,SurveyExpMetaMem,3.2.3,MacIntel,60
,,,,,,,,,,,,,,,,,,,,3,2.451999903,9,0.378999949,1,0,1200,842,1,1199,breathe,11139,2019-10-21_17h08.10.979,SurveyExpMetaMem,3.2.3,MacIntel,60
,,,,,,,,,,,,,,,,,,,,9,1.34800005,9,0.379999876,1,0,1200,184,1,1199,surprised,11139,2019-10-21_17h08.10.979,SurveyExpMetaMem,3.2.3,MacIntel,60
,,,,,,,,,,,,,,,,,,,,5,1.131999969,5,0.245000124,1,0,1200,918,1,1199,gunpoint,11139,2019-10-21_17h08.10.979,SurveyExpMetaMem,3.2.3,MacIntel,60
,,,,,,,,,,,,,,,,,,,,9,1.048000097,9,0.213000059,1,0,1200,142,1,1199,christmas,11139,2019-10-21_17h08.10.979,SurveyExpMetaMem,3.2.3,MacIntel,60
,,,,,,,,,,,,,,,,,,,,5,1.749000072,5,0.212000132,1,0,1200,1145,1,1199,officer,11139,2019-10-21_17h08.10.979,SurveyExpMetaMem,3.2.3,MacIntel,60
,,,,,,,,,,,,,,,,,,,,7,1.881999969,9,0.863999844,1,0,1200,814,1,1199,dress,11139,2019-10-21_17h08.10.979,SurveyExpMetaMem,3.2.3,MacIntel,60
,,,,,,,,,,,,,,,,,,,,7,2.996000051,5,1.279999733,1,0,1200,1193,1,1199,damn,11139,2019-10-21_17h08.10.979,SurveyExpMetaMem,3.2.3,MacIntel,60
,,,,,,,,,,,,,,,,,,,,7,1.919999838,3,1.598999977,1,0,1200,1175,1,1199,prostitute,11139,2019-10-21_17h08.10.979,SurveyExpMetaMem,3.2.3,MacIntel,60
,,,,,,,,,,,,,,,,,,,,9,1.644999981,1,0.932999849,1,0,1200,1108,1,1199,spider,11139,2019-10-21_17h08.10.979,SurveyExpMetaMem,3.2.3,MacIntel,60
,,,,,,,,,,,,,,,,,,,,4,5.171999931,9,0.531000137,1,0,1200,138,1,1199,blessings,11139,2019-10-21_17h08.10.979,SurveyExpMetaMem,3.2.3,MacIntel,60
,,,,,,,,,,,,,,,,,,,,7,4.336999893,3,1.882999897,1,0,1200,970,1,1199,worry,11139,2019-10-21_17h08.10.979,SurveyExpMetaMem,3.2.3,MacIntel,60
,,,,,,,,,,,,,,,,,,,,5,2.30099988,5,0.177000046,1,0,1200,675,1,1199,golfer,11139,2019-10-21_17h08.10.979,SurveyExpMetaMem,3.2.3,MacIntel,60
,,,,,,,,,,,,,,,,,,,,5,1.381999969,5,0.149999857,1,0,1200,961,1,1199,crucify,11139,2019-10-21_17h08.10.979,SurveyExpMetaMem,3.2.3,MacIntel,60
,,,,,,,,,,,,,,,,,,,,5,0.896999836,5,0.212999821,1,0,1200,220,1,1199,reef,11139,2019-10-21_17h08.10.979,SurveyExpMetaMem,3.2.3,MacIntel,60
,,,,,,,,,,,,,,,,,,,,8,1.764999866,6,1.281999826,1,0,1200,75,1,1199,actor,11139,2019-10-21_17h08.10.979,SurveyExpMetaMem,3.2.3,MacIntel,60
,,,,,,,,,,,,,,,,,,,,5,0.96600008,5,0.180999756,1,0,1200,872,1,1199,dignified,11139,2019-10-21_17h08.10.979,SurveyExpMetaMem,3.2.3,MacIntel,60
,,,,,,,,,,,,,,,,,,,,5,0.963999987,5,0.178999901,1,0,1200,553,1,1199,corner,11139,2019-10-21_17h08.10.979,SurveyExpMetaMem,3.2.3,MacIntel,60
,,,,,,,,,,,,,,,,,,,,4,3.183999777,9,1.596999884,1,0,1200,30,1,1199,impressed,11139,2019-10-21_17h08.10.979,SurveyExpMetaMem,3.2.3,MacIntel,60
,,,,,,,,,,,,,,,,,,,,5,0.947000027,5,0.156999826,1,0,1200,488,1,1199,rusty,11139,2019-10-21_17h08.10.979,SurveyExpMetaMem,3.2.3,MacIntel,60
,,,,,,,,,,,,,,,,,,,,7,2.349999905,6,1.233999968,1,0,1200,56,1,1199,spice,11139,2019-10-21_17h08.10.979,SurveyExpMetaMem,3.2.3,MacIntel,60
,,,,,,,,,,,,,,,,,,,,5,3.784999847,5,0.161999941,1,0,1200,1029,1,1199,abduction,11139,2019-10-21_17h08.10.979,SurveyExpMetaMem,3.2.3,MacIntel,60
,,,,,,,,,,,,,,,,,,,,1,2.80099988,1,0.447000027,1,0,1200,310,1,1199,lonely,11139,2019-10-21_17h08.10.979,SurveyExpMetaMem,3.2.3,MacIntel,60
,,,,,,,,,,,,,,,,,,,,5,1.742000103,8,1.131999731,1,0,1200,43,1,1199,diamond,11139,2019-10-21_17h08.10.979,SurveyExpMetaMem,3.2.3,MacIntel,60
,,,,,,,,,,,,,,,,,,,,9,1.830999851,3,1.096999884,1,0,1200,1164,1,1199,battle,11139,2019-10-21_17h08.10.979,SurveyExpMetaMem,3.2.3,MacIntel,60
,,,,,,,,,,,,,,,,,,,,5,3.068000078,5,0.347000122,1,0,1200,666,1,1199,verify,11139,2019-10-21_17h08.10.979,SurveyExpMetaMem,3.2.3,MacIntel,60
,,,,,,,,,,,,,,,,,,,,5,0.896999836,5,0.163000107,1,0,1200,744,1,1199,village,11139,2019-10-21_17h08.10.979,SurveyExpMetaMem,3.2.3,MacIntel,60
,,,,,,,,,,,,,,,,,,,,1,2.898999929,5,0.930000067,1,0,1200,505,1,1199,exhaust,11139,2019-10-21_17h08.10.979,SurveyExpMetaMem,3.2.3,MacIntel,60
,,,,,,,,,,,,,,,,,,,,5,1.164000034,5,0.295000076,1,0,1200,372,1,1199,inferior,11139,2019-10-21_17h08.10.979,SurveyExpMetaMem,3.2.3,MacIntel,60
,,,,,,,,,,,,,,,,,,,,9,2.233999729,5,1.281999826,1,0,1200,204,1,1199,crazy,11139,2019-10-21_17h08.10.979,SurveyExpMetaMem,3.2.3,MacIntel,60
,,,,,,,,,,,,,,,,,,,,5,5.424000025,5,0.237999916,1,0,1200,473,1,1199,senseless,11139,2019-10-21_17h08.10.979,SurveyExpMetaMem,3.2.3,MacIntel,60
,,,,,,,,,,,,,,,,,,,,7,1.78399992,3,1.079999924,1,0,1200,467,1,1199,FALSE,11139,2019-10-21_17h08.10.979,SurveyExpMetaMem,3.2.3,MacIntel,60
,,,,,,,,,,,,,,,,,,,,3,1.981999874,1,0.549999952,1,0,1200,1080,1,1199,broken,11139,2019-10-21_17h08.10.979,SurveyExpMetaMem,3.2.3,MacIntel,60
,,,,,,,,,,,,,,,,,,,,5,1.245999813,5,0.212000132,1,0,1200,774,1,1199,leaves,11139,2019-10-21_17h08.10.979,SurveyExpMetaMem,3.2.3,MacIntel,60
,,,,,,,,,,,,,,,,,,,,7,1.915999889,9,0.875999928,1,0,1200,107,1,1199,sandwich,11139,2019-10-21_17h08.10.979,SurveyExpMetaMem,3.2.3,MacIntel,60
,,,,,,,,,,,,,,,,,,,,5,1.362999916,9,1.179999828,1,0,1200,864,1,1199,blanket,11139,2019-10-21_17h08.10.979,SurveyExpMetaMem,3.2.3,MacIntel,60
,,,,,,,,,,,,,,,,,,,,3,2.065999985,9,0.631000042,1,0,1200,811,1,1199,tenderness,11139,2019-10-21_17h08.10.979,SurveyExpMetaMem,3.2.3,MacIntel,60
,,,,,,,,,,,,,,,,,,,,5,0.982000113,5,0.364000082,1,0,1200,1050,1,1199,scorn,11139,2019-10-21_17h08.10.979,SurveyExpMetaMem,3.2.3,MacIntel,60
,,,,,,,,,,,,,,,,,,,,5,0.730999947,5,0.197999954,1,0,1200,507,1,1199,smudge,11139,2019-10-21_17h08.10.979,SurveyExpMetaMem,3.2.3,MacIntel,60
,,,,,,,,,,,,,,,,,,,,3,2.498999834,8,1.065999985,1,0,1200,703,1,1199,book,11139,2019-10-21_17h08.10.979,SurveyExpMetaMem,3.2.3,MacIntel,60
,,,,,,,,,,,,,,,,,,,,5,1.280999899,5,0.278999805,1,0,1200,623,1,1199,suburban,11139,2019-10-21_17h08.10.979,SurveyExpMetaMem,3.2.3,MacIntel,60
,,,,,,,,,,,,,,,,,,,,6,4.789999962,2,2,1,0,1200,449,1,1199,egotistical,11139,2019-10-21_17h08.10.979,SurveyExpMetaMem,3.2.3,MacIntel,60
,,,,,,,,,,,,,,,,,,,,5,1.048999786,5,0.164999962,1,0,1200,1155,1,1199,tangle,11139,2019-10-21_17h08.10.979,SurveyExpMetaMem,3.2.3,MacIntel,60
,,,,,,,,,,,,,,,,,,,,9,1.532999992,7,1.196999788,1,0,1200,167,1,1199,casino,11139,2019-10-21_17h08.10.979,SurveyExpMetaMem,3.2.3,MacIntel,60
,,,,,,,,,,,,,,,,,,,,5,0.930999994,5,0.213000059,1,0,1200,435,1,1199,grovel,11139,2019-10-21_17h08.10.979,SurveyExpMetaMem,3.2.3,MacIntel,60
,,,,,,,,,,,,,,,,,,,,9,1.464999914,9,0.164000034,1,0,1200,247,1,1199,graduate,11139,2019-10-21_17h08.10.979,SurveyExpMetaMem,3.2.3,MacIntel,60
,,,,,,,,,,,,,,,,,,,,4,2.799999952,8,0.713999987,1,0,1200,758,1,1199,camera,11139,2019-10-21_17h08.10.979,SurveyExpMetaMem,3.2.3,MacIntel,60
,,,,,,,,,,,,,,,,,,,,5,0.930000067,5,0.213000059,1,0,1200,478,1,1199,numb,11139,2019-10-21_17h08.10.979,SurveyExpMetaMem,3.2.3,MacIntel,60
,,,,,,,,,,,,,,,,,,,,7,2.399999857,1,1.041999817,1,0,1200,959,1,1199,divorce,11139,2019-10-21_17h08.10.979,SurveyExpMetaMem,3.2.3,MacIntel,60
,,,,,,,,,,,,,,,,,,,,8,2.257999897,6,0.253999949,1,0,1200,150,1,1199,vodka,11139,2019-10-21_17h08.10.979,SurveyExpMetaMem,3.2.3,MacIntel,60
,,,,,,,,,,,,,,,,,,,,9,1.665999889,9,0.420999765,1,0,1200,185,1,1199,flirt,11139,2019-10-21_17h08.10.979,SurveyExpMetaMem,3.2.3,MacIntel,60
,,,,,,,,,,,,,,,,,,,,3,2.35800004,8,0.878999949,1,0,1200,860,1,1199,silk,11139,2019-10-21_17h08.10.979,SurveyExpMetaMem,3.2.3,MacIntel,60
,,,,,,,,,,,,,,,,,,,,5,1.032000065,5,0.305999994,1,0,1200,349,1,1199,mope,11139,2019-10-21_17h08.10.979,SurveyExpMetaMem,3.2.3,MacIntel,60
,,,,,,,,,,,,,,,,,,,,5,0.855000019,5,0.195999861,1,0,1200,405,1,1199,fatigued,11139,2019-10-21_17h08.10.979,SurveyExpMetaMem,3.2.3,MacIntel,60
,,,,,,,,,,,,,,,,,,,,5,0.812999964,5,0.204999924,1,0,1200,368,1,1199,dreary,11139,2019-10-21_17h08.10.979,SurveyExpMetaMem,3.2.3,MacIntel,60
,,,,,,,,,,,,,,,,,,,,5,1.480000019,5,0.195999861,1,0,1200,650,1,1199,native,11139,2019-10-21_17h08.10.979,SurveyExpMetaMem,3.2.3,MacIntel,60
,,,,,,,,,,,,,,,,,,,,9,1.25,9,0.381000042,1,0,1200,125,1,1199,dancing,11139,2019-10-21_17h08.10.979,SurveyExpMetaMem,3.2.3,MacIntel,60
,,,,,,,,,,,,,,,,,,,,1,3.01699996,9,1.063999891,1,0,1200,899,1,1199,relax,11139,2019-10-21_17h08.10.979,SurveyExpMetaMem,3.2.3,MacIntel,60
,,,,,,,,,,,,,,,,,,,,9,1.80099988,1,1.213000059,1,0,1200,1152,1,1199,scream,11139,2019-10-21_17h08.10.979,SurveyExpMetaMem,3.2.3,MacIntel,60
,,,,,,,,,,,,,,,,,,,,5,1.713999987,5,0.245999813,1,0,1200,1131,1,1199,envious,11139,2019-10-21_17h08.10.979,SurveyExpMetaMem,3.2.3,MacIntel,60
,,,,,,,,,,,,,,,,,,,,5,1.797999859,7,1.414999962,1,0,1200,568,1,1199,therapy,11139,2019-10-21_17h08.10.979,SurveyExpMetaMem,3.2.3,MacIntel,60
,,,,,,,,,,,,,,,,,,,,9,2.216999769,1,0.914999962,1,0,1200,938,1,1199,seasick,11139,2019-10-21_17h08.10.979,SurveyExpMetaMem,3.2.3,MacIntel,60
