mouse_4.x,mouse_4.y,mouse_4.leftButton,mouse_4.midButton,mouse_4.rightButton,mouse.x,mouse.y,mouse.leftButton,mouse.midButton,mouse.rightButton,mouse_2.x,mouse_2.y,mouse_2.leftButton,mouse_2.midButton,mouse_2.rightButton,mouse_3.x,mouse_3.y,mouse_3.leftButton,mouse_3.midButton,mouse_3.rightButton,A_key_resp.keys,A_key_resp.rt,key_resp.keys,key_resp.rt,trials.thisRepN,trials.thisTrialN,trials.thisN,trials.thisIndex,trials.ran,trials.order,word,ParticipantID,date,expName,psychopyVersion,OS,frameRate
0.00732135,-0.101167744,1,0,0,0.142265625,-0.071831597,1,0,0,-0.035386285,0.155190972,1,0,0,-0.030525174,0.140260417,1,0,0,5,11.19200015,5,8.427999973,1,0,1200,265,1,1199,invent,11136,2019-10-22_09h37.24.233,SurveyExpMetaMem,3.2.3,MacIntel,60
,,,,,,,,,,,,,,,,,,,,5,9.128000021,5,4.40899992,1,0,1200,585,1,1199,tatter,11136,2019-10-22_09h37.24.233,SurveyExpMetaMem,3.2.3,MacIntel,60
,,,,,,,,,,,,,,,,,,,,6,8.02300024,3,4.266000032,1,0,1200,327,1,1199,misfortune,11136,2019-10-22_09h37.24.233,SurveyExpMetaMem,3.2.3,MacIntel,60
,,,,,,,,,,,,,,,,,,,,3,5.924000025,5,3.460999966,1,0,1200,539,1,1199,novice,11136,2019-10-22_09h37.24.233,SurveyExpMetaMem,3.2.3,MacIntel,60
,,,,,,,,,,,,,,,,,,,,1,4.127000093,6,2.262000084,1,0,1200,815,1,1199,apple,11136,2019-10-22_09h37.24.233,SurveyExpMetaMem,3.2.3,MacIntel,60
,,,,,,,,,,,,,,,,,,,,5,2.713999987,5,0.500999928,1,0,1200,263,1,1199,answer,11136,2019-10-22_09h37.24.233,SurveyExpMetaMem,3.2.3,MacIntel,60
,,,,,,,,,,,,,,,,,,,,6,3.659000158,6,4.461000204,1,0,1200,190,1,1199,rescue,11136,2019-10-22_09h37.24.233,SurveyExpMetaMem,3.2.3,MacIntel,60
,,,,,,,,,,,,,,,,,,,,5,4.312000275,5,0.342999935,1,0,1200,1190,1,1199,clench,11136,2019-10-22_09h37.24.233,SurveyExpMetaMem,3.2.3,MacIntel,60
,,,,,,,,,,,,,,,,,,,,8,5.55700016,2,2.443000078,1,0,1200,1017,1,1199,aggravated,11136,2019-10-22_09h37.24.233,SurveyExpMetaMem,3.2.3,MacIntel,60
,,,,,,,,,,,,,,,,,,,,6,6.144000053,6,3.927000046,1,0,1200,845,1,1199,honey,11136,2019-10-22_09h37.24.233,SurveyExpMetaMem,3.2.3,MacIntel,60
,,,,,,,,,,,,,,,,,,,,4,4.981000185,6,1.749000311,1,0,1200,706,1,1199,cat,11136,2019-10-22_09h37.24.233,SurveyExpMetaMem,3.2.3,MacIntel,60
,,,,,,,,,,,,,,,,,,,,5,1.563000202,5,0.376000166,1,0,1200,785,1,1199,pond,11136,2019-10-22_09h37.24.233,SurveyExpMetaMem,3.2.3,MacIntel,60
,,,,,,,,,,,,,,,,,,,,6,4.627000093,3,1.09800005,1,0,1200,928,1,1199,cruel,11136,2019-10-22_09h37.24.233,SurveyExpMetaMem,3.2.3,MacIntel,60
,,,,,,,,,,,,,,,,,,,,8,4.525000095,8,2.911000252,1,0,1200,242,1,1199,triumph,11136,2019-10-22_09h37.24.233,SurveyExpMetaMem,3.2.3,MacIntel,60
,,,,,,,,,,,,,,,,,,,,2,3.891000032,7,3.084000111,1,0,1200,810,1,1199,polite,11136,2019-10-22_09h37.24.233,SurveyExpMetaMem,3.2.3,MacIntel,60
,,,,,,,,,,,,,,,,,,,,8,2.24000001,8,3.642000198,1,0,1200,28,1,1199,energy,11136,2019-10-22_09h37.24.233,SurveyExpMetaMem,3.2.3,MacIntel,60
,,,,,,,,,,,,,,,,,,,,2,4.309000015,8,2.360000134,1,0,1200,703,1,1199,book,11136,2019-10-22_09h37.24.233,SurveyExpMetaMem,3.2.3,MacIntel,60
,,,,,,,,,,,,,,,,,,,,4,8.02699995,4,2.244999886,1,0,1200,1109,1,1199,germ,11136,2019-10-22_09h37.24.233,SurveyExpMetaMem,3.2.3,MacIntel,60
,,,,,,,,,,,,,,,,,,,,7,2.792999983,2,2.875,1,0,1200,1095,1,1199,fright,11136,2019-10-22_09h37.24.233,SurveyExpMetaMem,3.2.3,MacIntel,60
,,,,,,,,,,,,,,,,,,,,5,3.411999941,5,0.258000135,1,0,1200,1160,1,1199,enlist,11136,2019-10-22_09h37.24.233,SurveyExpMetaMem,3.2.3,MacIntel,60
,,,,,,,,,,,,,,,,,,,,1,1.993999958,9,2.055999994,1,0,1200,899,1,1199,relax,11136,2019-10-22_09h37.24.233,SurveyExpMetaMem,3.2.3,MacIntel,60
,,,,,,,,,,,,,,,,,,,,6,5.204999924,2,2.641000271,1,0,1200,452,1,1199,scapegoat,11136,2019-10-22_09h37.24.233,SurveyExpMetaMem,3.2.3,MacIntel,60
,,,,,,,,,,,,,,,,,,,,5,1.991000175,5,0.198000193,1,0,1200,859,1,1199,serene,11136,2019-10-22_09h37.24.233,SurveyExpMetaMem,3.2.3,MacIntel,60
,,,,,,,,,,,,,,,,,,,,8,4.108999968,2,3.06400013,1,0,1200,936,1,1199,assault,11136,2019-10-22_09h37.24.233,SurveyExpMetaMem,3.2.3,MacIntel,60
,,,,,,,,,,,,,,,,,,,,5,1.997000217,5,0.266000032,1,0,1200,825,1,1199,swan,11136,2019-10-22_09h37.24.233,SurveyExpMetaMem,3.2.3,MacIntel,60
,,,,,,,,,,,,,,,,,,,,6,4.041000128,8,2.176000118,1,0,1200,775,1,1199,pancakes,11136,2019-10-22_09h37.24.233,SurveyExpMetaMem,3.2.3,MacIntel,60
,,,,,,,,,,,,,,,,,,,,5,3.773000002,5,0.164000034,1,0,1200,493,1,1199,little,11136,2019-10-22_09h37.24.233,SurveyExpMetaMem,3.2.3,MacIntel,60
,,,,,,,,,,,,,,,,,,,,9,5.127000093,2,2.617000103,1,0,1200,922,1,1199,nightmare,11136,2019-10-22_09h37.24.233,SurveyExpMetaMem,3.2.3,MacIntel,60
,,,,,,,,,,,,,,,,,,,,6,8.661999941,8,2.079000235,1,0,1200,239,1,1199,compassionate,11136,2019-10-22_09h37.24.233,SurveyExpMetaMem,3.2.3,MacIntel,60
,,,,,,,,,,,,,,,,,,,,7,8.826000214,3,1.924000025,1,0,1200,1027,1,1199,criticism,11136,2019-10-22_09h37.24.233,SurveyExpMetaMem,3.2.3,MacIntel,60
,,,,,,,,,,,,,,,,,,,,8,5.576000214,8,1.095000029,1,0,1200,30,1,1199,impressed,11136,2019-10-22_09h37.24.233,SurveyExpMetaMem,3.2.3,MacIntel,60
,,,,,,,,,,,,,,,,,,,,7,3.539000034,6,4.330000162,1,0,1200,1196,1,1199,breathless,11136,2019-10-22_09h37.24.233,SurveyExpMetaMem,3.2.3,MacIntel,60
,,,,,,,,,,,,,,,,,,,,6,2.109000206,5,3.133000135,1,0,1200,6,1,1199,chest,11136,2019-10-22_09h37.24.233,SurveyExpMetaMem,3.2.3,MacIntel,60
,,,,,,,,,,,,,,,,,,,,5,2.895000219,5,0.413000107,1,0,1200,163,1,1199,gem,11136,2019-10-22_09h37.24.233,SurveyExpMetaMem,3.2.3,MacIntel,60
,,,,,,,,,,,,,,,,,,,,6,4.691000223,6,1.161000013,1,0,1200,888,1,1199,refreshment,11136,2019-10-22_09h37.24.233,SurveyExpMetaMem,3.2.3,MacIntel,60
,,,,,,,,,,,,,,,,,,,,3,4.327000141,7,2.177000046,1,0,1200,889,1,1199,wise,11136,2019-10-22_09h37.24.233,SurveyExpMetaMem,3.2.3,MacIntel,60
,,,,,,,,,,,,,,,,,,,,8,2.361000061,9,1.529000282,1,0,1200,125,1,1199,dancing,11136,2019-10-22_09h37.24.233,SurveyExpMetaMem,3.2.3,MacIntel,60
,,,,,,,,,,,,,,,,,,,,7,6.924000263,3,2.611999989,1,0,1200,1128,1,1199,fighting,11136,2019-10-22_09h37.24.233,SurveyExpMetaMem,3.2.3,MacIntel,60
,,,,,,,,,,,,,,,,,,,,5,1.707999945,5,0.262000084,1,0,1200,251,1,1199,meteor,11136,2019-10-22_09h37.24.233,SurveyExpMetaMem,3.2.3,MacIntel,60
,,,,,,,,,,,,,,,,,,,,7,3.325999975,7,0.691999912,1,0,1200,135,1,1199,applause,11136,2019-10-22_09h37.24.233,SurveyExpMetaMem,3.2.3,MacIntel,60
,,,,,,,,,,,,,,,,,,,,5,5.373000145,6,3.881999969,1,0,1200,133,1,1199,prosperous,11136,2019-10-22_09h37.24.233,SurveyExpMetaMem,3.2.3,MacIntel,60
,,,,,,,,,,,,,,,,,,,,5,3.434000254,3,1.512000084,1,0,1200,985,1,1199,pollution,11136,2019-10-22_09h37.24.233,SurveyExpMetaMem,3.2.3,MacIntel,60
,,,,,,,,,,,,,,,,,,,,5,1.275000095,5,0.284000158,1,0,1200,693,1,1199,key,11136,2019-10-22_09h37.24.233,SurveyExpMetaMem,3.2.3,MacIntel,60
,,,,,,,,,,,,,,,,,,,,6,4.561000109,4,1.71600008,1,0,1200,1135,1,1199,thirsty,11136,2019-10-22_09h37.24.233,SurveyExpMetaMem,3.2.3,MacIntel,60
,,,,,,,,,,,,,,,,,,,,5,1.730000019,5,0.261000156,1,0,1200,694,1,1199,pecan,11136,2019-10-22_09h37.24.233,SurveyExpMetaMem,3.2.3,MacIntel,60
,,,,,,,,,,,,,,,,,,,,7,3.575000048,7,0.291000128,1,0,1200,160,1,1199,reunion,11136,2019-10-22_09h37.24.233,SurveyExpMetaMem,3.2.3,MacIntel,60
,,,,,,,,,,,,,,,,,,,,6,4.070000172,4,4.390000105,1,0,1200,999,1,1199,burdened,11136,2019-10-22_09h37.24.233,SurveyExpMetaMem,3.2.3,MacIntel,60
,,,,,,,,,,,,,,,,,,,,5,2.388999939,5,0.198000193,1,0,1200,75,1,1199,actor,11136,2019-10-22_09h37.24.233,SurveyExpMetaMem,3.2.3,MacIntel,60
,,,,,,,,,,,,,,,,,,,,5,1.360000134,5,0.202000141,1,0,1200,780,1,1199,grass,11136,2019-10-22_09h37.24.233,SurveyExpMetaMem,3.2.3,MacIntel,60
,,,,,,,,,,,,,,,,,,,,8,4.207999945,2,4.14800024,1,0,1200,908,1,1199,suffer,11136,2019-10-22_09h37.24.233,SurveyExpMetaMem,3.2.3,MacIntel,60
,,,,,,,,,,,,,,,,,,,,2,4.657000065,6,5.309999943,1,0,1200,883,1,1199,sky,11136,2019-10-22_09h37.24.233,SurveyExpMetaMem,3.2.3,MacIntel,60
,,,,,,,,,,,,,,,,,,,,8,4.159000158,7,2.13100028,1,0,1200,20,1,1199,climax,11136,2019-10-22_09h37.24.233,SurveyExpMetaMem,3.2.3,MacIntel,60
,,,,,,,,,,,,,,,,,,,,5,6.325000286,5,0.191000223,1,0,1200,608,1,1199,carrot,11136,2019-10-22_09h37.24.233,SurveyExpMetaMem,3.2.3,MacIntel,60
,,,,,,,,,,,,,,,,,,,,8,4.006000042,2,1.775000095,1,0,1200,1002,1,1199,wounds,11136,2019-10-22_09h37.24.233,SurveyExpMetaMem,3.2.3,MacIntel,60
,,,,,,,,,,,,,,,,,,,,2,4.29700017,6,1.825999975,1,0,1200,76,1,1199,midnight,11136,2019-10-22_09h37.24.233,SurveyExpMetaMem,3.2.3,MacIntel,60
,,,,,,,,,,,,,,,,,,,,5,1.695000172,5,0.21600008,1,0,1200,590,1,1199,stool,11136,2019-10-22_09h37.24.233,SurveyExpMetaMem,3.2.3,MacIntel,60
,,,,,,,,,,,,,,,,,,,,6,6.242000103,3,3.080000162,1,0,1200,1073,1,1199,bitch,11136,2019-10-22_09h37.24.233,SurveyExpMetaMem,3.2.3,MacIntel,60
,,,,,,,,,,,,,,,,,,,,5,2.524000168,5,0.229000092,1,0,1200,699,1,1199,leg,11136,2019-10-22_09h37.24.233,SurveyExpMetaMem,3.2.3,MacIntel,60
,,,,,,,,,,,,,,,,,,,,4,4.404000044,4,2.870000124,1,0,1200,574,1,1199,distracted,11136,2019-10-22_09h37.24.233,SurveyExpMetaMem,3.2.3,MacIntel,60
,,,,,,,,,,,,,,,,,,,,7,6.375000238,7,1.295000076,1,0,1200,73,1,1199,rhythm,11136,2019-10-22_09h37.24.233,SurveyExpMetaMem,3.2.3,MacIntel,60
,,,,,,,,,,,,,,,,,,,,5,1.328999996,5,0.726999998,1,0,1200,18,1,1199,mail,11136,2019-10-22_09h37.24.233,SurveyExpMetaMem,3.2.3,MacIntel,60
,,,,,,,,,,,,,,,,,,,,5,3.996000051,6,2.194000244,1,0,1200,107,1,1199,sandwich,11136,2019-10-22_09h37.24.233,SurveyExpMetaMem,3.2.3,MacIntel,60
,,,,,,,,,,,,,,,,,,,,5,2.277000189,5,0.2900002,1,0,1200,770,1,1199,buffalo,11136,2019-10-22_09h37.24.233,SurveyExpMetaMem,3.2.3,MacIntel,60
,,,,,,,,,,,,,,,,,,,,6,3.024000168,6,0.312000275,1,0,1200,87,1,1199,cookie,11136,2019-10-22_09h37.24.233,SurveyExpMetaMem,3.2.3,MacIntel,60
,,,,,,,,,,,,,,,,,,,,8,3.721000195,8,2.848999977,1,0,1200,217,1,1199,bravery,11136,2019-10-22_09h37.24.233,SurveyExpMetaMem,3.2.3,MacIntel,60
,,,,,,,,,,,,,,,,,,,,5,5.555999994,5,0.242000103,1,0,1200,387,1,1199,tax,11136,2019-10-22_09h37.24.233,SurveyExpMetaMem,3.2.3,MacIntel,60
,,,,,,,,,,,,,,,,,,,,6,4.479000092,4,3.764000177,1,0,1200,1039,1,1199,stalk,11136,2019-10-22_09h37.24.233,SurveyExpMetaMem,3.2.3,MacIntel,60
,,,,,,,,,,,,,,,,,,,,5,1.191999912,5,0.207999945,1,0,1200,466,1,1199,gnaw,11136,2019-10-22_09h37.24.233,SurveyExpMetaMem,3.2.3,MacIntel,60
,,,,,,,,,,,,,,,,,,,,6,2.826000214,3,2.311000109,1,0,1200,951,1,1199,castrate,11136,2019-10-22_09h37.24.233,SurveyExpMetaMem,3.2.3,MacIntel,60
,,,,,,,,,,,,,,,,,,,,5,2.445000172,5,0.203999996,1,0,1200,412,1,1199,mucus,11136,2019-10-22_09h37.24.233,SurveyExpMetaMem,3.2.3,MacIntel,60
,,,,,,,,,,,,,,,,,,,,8,1.927000284,8,1.534000158,1,0,1200,184,1,1199,surprised,11136,2019-10-22_09h37.24.233,SurveyExpMetaMem,3.2.3,MacIntel,60
,,,,,,,,,,,,,,,,,,,,5,1.22300005,4,4.043000221,1,0,1200,1008,1,1199,gang,11136,2019-10-22_09h37.24.233,SurveyExpMetaMem,3.2.3,MacIntel,60
,,,,,,,,,,,,,,,,,,,,6,3.240000248,7,1.626000166,1,0,1200,37,1,1199,magnificence,11136,2019-10-22_09h37.24.233,SurveyExpMetaMem,3.2.3,MacIntel,60
,,,,,,,,,,,,,,,,,,,,6,4.775000095,4,3.326000214,1,0,1200,1154,1,1199,politics,11136,2019-10-22_09h37.24.233,SurveyExpMetaMem,3.2.3,MacIntel,60
,,,,,,,,,,,,,,,,,,,,5,3.241000175,5,0.396000147,1,0,1200,620,1,1199,spray,11136,2019-10-22_09h37.24.233,SurveyExpMetaMem,3.2.3,MacIntel,60
,,,,,,,,,,,,,,,,,,,,5,1.039999962,5,0.326000214,1,0,1200,738,1,1199,horse,11136,2019-10-22_09h37.24.233,SurveyExpMetaMem,3.2.3,MacIntel,60
,,,,,,,,,,,,,,,,,,,,5,2.408000231,5,1.20600009,1,0,1200,584,1,1199,anus,11136,2019-10-22_09h37.24.233,SurveyExpMetaMem,3.2.3,MacIntel,60
,,,,,,,,,,,,,,,,,,,,5,3.224000216,4,1.361000061,1,0,1200,400,1,1199,urine,11136,2019-10-22_09h37.24.233,SurveyExpMetaMem,3.2.3,MacIntel,60
,,,,,,,,,,,,,,,,,,,,4,7.60800004,3,1.112000227,1,0,1200,481,1,1199,melancholy,11136,2019-10-22_09h37.24.233,SurveyExpMetaMem,3.2.3,MacIntel,60
,,,,,,,,,,,,,,,,,,,,5,3.462000132,5,0.281000137,1,0,1200,757,1,1199,sentiment,11136,2019-10-22_09h37.24.233,SurveyExpMetaMem,3.2.3,MacIntel,60
,,,,,,,,,,,,,,,,,,,,8,2.695000172,3,2.580000162,1,0,1200,1052,1,1199,angry,11136,2019-10-22_09h37.24.233,SurveyExpMetaMem,3.2.3,MacIntel,60
,,,,,,,,,,,,,,,,,,,,5,4.142999887,5,0.224000216,1,0,1200,455,1,1199,chubby,11136,2019-10-22_09h37.24.233,SurveyExpMetaMem,3.2.3,MacIntel,60
,,,,,,,,,,,,,,,,,,,,5,1.062999964,5,0.294000149,1,0,1200,567,1,1199,folly,11136,2019-10-22_09h37.24.233,SurveyExpMetaMem,3.2.3,MacIntel,60
,,,,,,,,,,,,,,,,,,,,4,3.24600029,6,4.775000095,1,0,1200,876,1,1199,politeness,11136,2019-10-22_09h37.24.233,SurveyExpMetaMem,3.2.3,MacIntel,60
,,,,,,,,,,,,,,,,,,,,8,1.83100009,8,1.008000135,1,0,1200,148,1,1199,victory,11136,2019-10-22_09h37.24.233,SurveyExpMetaMem,3.2.3,MacIntel,60
,,,,,,,,,,,,,,,,,,,,6,7.825000048,3,1.728000164,1,0,1200,938,1,1199,seasick,11136,2019-10-22_09h37.24.233,SurveyExpMetaMem,3.2.3,MacIntel,60
,,,,,,,,,,,,,,,,,,,,5,1.701000214,5,0.272000074,1,0,1200,312,1,1199,stench,11136,2019-10-22_09h37.24.233,SurveyExpMetaMem,3.2.3,MacIntel,60
,,,,,,,,,,,,,,,,,,,,3,6.373000145,6,1.739000082,1,0,1200,729,1,1199,velvet,11136,2019-10-22_09h37.24.233,SurveyExpMetaMem,3.2.3,MacIntel,60
,,,,,,,,,,,,,,,,,,,,6,2.40500021,7,0.609000206,1,0,1200,95,1,1199,giggle,11136,2019-10-22_09h37.24.233,SurveyExpMetaMem,3.2.3,MacIntel,60
,,,,,,,,,,,,,,,,,,,,9,5.715000153,1,2.109000206,1,0,1200,972,1,1199,homicide,11136,2019-10-22_09h37.24.233,SurveyExpMetaMem,3.2.3,MacIntel,60
,,,,,,,,,,,,,,,,,,,,8,3.82400012,1,2.58100009,1,0,1200,964,1,1199,grieve,11136,2019-10-22_09h37.24.233,SurveyExpMetaMem,3.2.3,MacIntel,60
,,,,,,,,,,,,,,,,,,,,7,6.159000158,3,2.804000139,1,0,1200,949,1,1199,thief,11136,2019-10-22_09h37.24.233,SurveyExpMetaMem,3.2.3,MacIntel,60
,,,,,,,,,,,,,,,,,,,,5,4.475000143,5,0.226000071,1,0,1200,102,1,1199,motorcycle,11136,2019-10-22_09h37.24.233,SurveyExpMetaMem,3.2.3,MacIntel,60
,,,,,,,,,,,,,,,,,,,,5,3.35800004,4,2.464999914,1,0,1200,260,1,1199,control,11136,2019-10-22_09h37.24.233,SurveyExpMetaMem,3.2.3,MacIntel,60
,,,,,,,,,,,,,,,,,,,,5,1.039999962,5,0.311000109,1,0,1200,856,1,1199,leisurely,11136,2019-10-22_09h37.24.233,SurveyExpMetaMem,3.2.3,MacIntel,60
,,,,,,,,,,,,,,,,,,,,4,5.176000118,6,9.160000086,1,0,1200,886,1,1199,sunflower,11136,2019-10-22_09h37.24.233,SurveyExpMetaMem,3.2.3,MacIntel,60
,,,,,,,,,,,,,,,,,,,,5,3.04700017,5,0.232000113,1,0,1200,535,1,1199,ramble,11136,2019-10-22_09h37.24.233,SurveyExpMetaMem,3.2.3,MacIntel,60
,,,,,,,,,,,,,,,,,,,,5,3.089000225,5,0.25999999,1,0,1200,566,1,1199,obscure,11136,2019-10-22_09h37.24.233,SurveyExpMetaMem,3.2.3,MacIntel,60
,,,,,,,,,,,,,,,,,,,,7,4.81400013,4,5.328000069,1,0,1200,1051,1,1199,insane,11136,2019-10-22_09h37.24.233,SurveyExpMetaMem,3.2.3,MacIntel,60
,,,,,,,,,,,,,,,,,,,,6,3.487999916,7,0.809999943,1,0,1200,183,1,1199,congratulate,11136,2019-10-22_09h37.24.233,SurveyExpMetaMem,3.2.3,MacIntel,60
,,,,,,,,,,,,,,,,,,,,8,2.829000235,2,0.911000252,1,0,1200,1018,1,1199,distress,11136,2019-10-22_09h37.24.233,SurveyExpMetaMem,3.2.3,MacIntel,60
,,,,,,,,,,,,,,,,,,,,5,3.123000145,6,2.124000072,1,0,1200,732,1,1199,humble,11136,2019-10-22_09h37.24.233,SurveyExpMetaMem,3.2.3,MacIntel,60
,,,,,,,,,,,,,,,,,,,,5,1.340000153,5,0.260000229,1,0,1200,843,1,1199,garden,11136,2019-10-22_09h37.24.233,SurveyExpMetaMem,3.2.3,MacIntel,60
,,,,,,,,,,,,,,,,,,,,6,4.509000063,4,1.358999968,1,0,1200,440,1,1199,forgot,11136,2019-10-22_09h37.24.233,SurveyExpMetaMem,3.2.3,MacIntel,60
,,,,,,,,,,,,,,,,,,,,5,1.763000011,5,0.301000118,1,0,1200,580,1,1199,fur,11136,2019-10-22_09h37.24.233,SurveyExpMetaMem,3.2.3,MacIntel,60
,,,,,,,,,,,,,,,,,,,,5,1.615000248,5,0.214999914,1,0,1200,553,1,1199,corner,11136,2019-10-22_09h37.24.233,SurveyExpMetaMem,3.2.3,MacIntel,60
,,,,,,,,,,,,,,,,,,,,4,3.545000076,5,2.442000151,1,0,1200,12,1,1199,mountain,11136,2019-10-22_09h37.24.233,SurveyExpMetaMem,3.2.3,MacIntel,60
,,,,,,,,,,,,,,,,,,,,6,13.56500006,3,1.781000137,1,0,1200,376,1,1199,incompetent,11136,2019-10-22_09h37.24.233,SurveyExpMetaMem,3.2.3,MacIntel,60
,,,,,,,,,,,,,,,,,,,,7,3.994999886,3,1.226000071,1,0,1200,1061,1,1199,difficult,11136,2019-10-22_09h37.24.233,SurveyExpMetaMem,3.2.3,MacIntel,60
,,,,,,,,,,,,,,,,,,,,5,1.927000046,5,0.210000038,1,0,1200,655,1,1199,name,11136,2019-10-22_09h37.24.233,SurveyExpMetaMem,3.2.3,MacIntel,60
,,,,,,,,,,,,,,,,,,,,5,4.357000113,5,0.194000006,1,0,1200,434,1,1199,frail,11136,2019-10-22_09h37.24.233,SurveyExpMetaMem,3.2.3,MacIntel,60
,,,,,,,,,,,,,,,,,,,,4,5.775000095,5,1.722000122,1,0,1200,150,1,1199,vodka,11136,2019-10-22_09h37.24.233,SurveyExpMetaMem,3.2.3,MacIntel,60
,,,,,,,,,,,,,,,,,,,,8,4.462000132,2,1.109999895,1,0,1200,929,1,1199,mutilation,11136,2019-10-22_09h37.24.233,SurveyExpMetaMem,3.2.3,MacIntel,60
,,,,,,,,,,,,,,,,,,,,5,1.475000143,5,0.185000181,1,0,1200,766,1,1199,flag,11136,2019-10-22_09h37.24.233,SurveyExpMetaMem,3.2.3,MacIntel,60
,,,,,,,,,,,,,,,,,,,,5,2.248000145,5,0.258000135,1,0,1200,872,1,1199,dignified,11136,2019-10-22_09h37.24.233,SurveyExpMetaMem,3.2.3,MacIntel,60
,,,,,,,,,,,,,,,,,,,,6,2.982000113,4,2.194000006,1,0,1200,373,1,1199,ignorance,11136,2019-10-22_09h37.24.233,SurveyExpMetaMem,3.2.3,MacIntel,60
,,,,,,,,,,,,,,,,,,,,5,1.315000057,5,0.183000088,1,0,1200,279,1,1199,bargain,11136,2019-10-22_09h37.24.233,SurveyExpMetaMem,3.2.3,MacIntel,60
,,,,,,,,,,,,,,,,,,,,7,4.806000233,4,1.964999914,1,0,1200,1032,1,1199,exam,11136,2019-10-22_09h37.24.233,SurveyExpMetaMem,3.2.3,MacIntel,60
,,,,,,,,,,,,,,,,,,,,6,4.963999987,7,1.480000019,1,0,1200,146,1,1199,congratulations,11136,2019-10-22_09h37.24.233,SurveyExpMetaMem,3.2.3,MacIntel,60
,,,,,,,,,,,,,,,,,,,,3,2.363000154,7,2.342000246,1,0,1200,871,1,1199,comfort,11136,2019-10-22_09h37.24.233,SurveyExpMetaMem,3.2.3,MacIntel,60
,,,,,,,,,,,,,,,,,,,,5,3.209000111,5,0.211000204,1,0,1200,789,1,1199,green,11136,2019-10-22_09h37.24.233,SurveyExpMetaMem,3.2.3,MacIntel,60
,,,,,,,,,,,,,,,,,,,,5,0.859000206,5,0.230000019,1,0,1200,589,1,1199,coarse,11136,2019-10-22_09h37.24.233,SurveyExpMetaMem,3.2.3,MacIntel,60
,,,,,,,,,,,,,,,,,,,,5,1.782999992,5,0.211000204,1,0,1200,1189,1,1199,lava,11136,2019-10-22_09h37.24.233,SurveyExpMetaMem,3.2.3,MacIntel,60
,,,,,,,,,,,,,,,,,,,,5,1.851000309,5,0.344000101,1,0,1200,51,1,1199,body,11136,2019-10-22_09h37.24.233,SurveyExpMetaMem,3.2.3,MacIntel,60
,,,,,,,,,,,,,,,,,,,,5,0.909000158,5,0.207999945,1,0,1200,752,1,1199,milk,11136,2019-10-22_09h37.24.233,SurveyExpMetaMem,3.2.3,MacIntel,60
,,,,,,,,,,,,,,,,,,,,5,1.088000059,5,0.204999924,1,0,1200,563,1,1199,stupor,11136,2019-10-22_09h37.24.233,SurveyExpMetaMem,3.2.3,MacIntel,60
,,,,,,,,,,,,,,,,,,,,4,2.85800004,6,1.458000183,1,0,1200,892,1,1199,untroubled,11136,2019-10-22_09h37.24.233,SurveyExpMetaMem,3.2.3,MacIntel,60
,,,,,,,,,,,,,,,,,,,,5,1.531000137,5,0.197000265,1,0,1200,255,1,1199,ass,11136,2019-10-22_09h37.24.233,SurveyExpMetaMem,3.2.3,MacIntel,60
,,,,,,,,,,,,,,,,,,,,7,11.35800004,2,1.31400013,1,0,1200,1042,1,1199,brutal,11136,2019-10-22_09h37.24.233,SurveyExpMetaMem,3.2.3,MacIntel,60
,,,,,,,,,,,,,,,,,,,,3,2.975000143,4,2.940999985,1,0,1200,359,1,1199,bored,11136,2019-10-22_09h37.24.233,SurveyExpMetaMem,3.2.3,MacIntel,60
,,,,,,,,,,,,,,,,,,,,7,3.062000036,3,1.693000078,1,0,1200,1137,1,1199,knife,11136,2019-10-22_09h37.24.233,SurveyExpMetaMem,3.2.3,MacIntel,60
,,,,,,,,,,,,,,,,,,,,8,2.010000229,2,0.544000149,1,0,1200,967,1,1199,horrible,11136,2019-10-22_09h37.24.233,SurveyExpMetaMem,3.2.3,MacIntel,60
,,,,,,,,,,,,,,,,,,,,5,1.325999975,5,0.175000191,1,0,1200,579,1,1199,bus,11136,2019-10-22_09h37.24.233,SurveyExpMetaMem,3.2.3,MacIntel,60
,,,,,,,,,,,,,,,,,,,,5,0.921000242,5,0.190000057,1,0,1200,447,1,1199,dishes,11136,2019-10-22_09h37.24.233,SurveyExpMetaMem,3.2.3,MacIntel,60
,,,,,,,,,,,,,,,,,,,,6,2.910000086,4,1.327000141,1,0,1200,204,1,1199,crazy,11136,2019-10-22_09h37.24.233,SurveyExpMetaMem,3.2.3,MacIntel,60
,,,,,,,,,,,,,,,,,,,,7,2.926000118,3,0.391000271,1,0,1200,1047,1,1199,psycho,11136,2019-10-22_09h37.24.233,SurveyExpMetaMem,3.2.3,MacIntel,60
,,,,,,,,,,,,,,,,,,,,5,1.175000191,5,0.166000128,1,0,1200,734,1,1199,piano,11136,2019-10-22_09h37.24.233,SurveyExpMetaMem,3.2.3,MacIntel,60
,,,,,,,,,,,,,,,,,,,,5,1.434000015,5,0.197000027,1,0,1200,540,1,1199,derelict,11136,2019-10-22_09h37.24.233,SurveyExpMetaMem,3.2.3,MacIntel,60
,,,,,,,,,,,,,,,,,,,,7,3.603000164,4,1.294000149,1,0,1200,1065,1,1199,slap,11136,2019-10-22_09h37.24.233,SurveyExpMetaMem,3.2.3,MacIntel,60
,,,,,,,,,,,,,,,,,,,,6,4.874000072,3,4.226999998,1,0,1200,1080,1,1199,broken,11136,2019-10-22_09h37.24.233,SurveyExpMetaMem,3.2.3,MacIntel,60
,,,,,,,,,,,,,,,,,,,,7,5.975000143,3,0.933000088,1,0,1200,1123,1,1199,haunt,11136,2019-10-22_09h37.24.233,SurveyExpMetaMem,3.2.3,MacIntel,60
,,,,,,,,,,,,,,,,,,,,5,1.310000181,5,0.626000166,1,0,1200,750,1,1199,porpoise,11136,2019-10-22_09h37.24.233,SurveyExpMetaMem,3.2.3,MacIntel,60
,,,,,,,,,,,,,,,,,,,,5,0.931000233,5,0.336000204,1,0,1200,206,1,1199,comet,11136,2019-10-22_09h37.24.233,SurveyExpMetaMem,3.2.3,MacIntel,60
,,,,,,,,,,,,,,,,,,,,5,0.927000284,5,0.292000055,1,0,1200,790,1,1199,binoculars,11136,2019-10-22_09h37.24.233,SurveyExpMetaMem,3.2.3,MacIntel,60
,,,,,,,,,,,,,,,,,,,,6,2.892000198,4,1.166000128,1,0,1200,1119,1,1199,confusion,11136,2019-10-22_09h37.24.233,SurveyExpMetaMem,3.2.3,MacIntel,60
,,,,,,,,,,,,,,,,,,,,5,1.263999939,5,0.21600008,1,0,1200,593,1,1199,errand,11136,2019-10-22_09h37.24.233,SurveyExpMetaMem,3.2.3,MacIntel,60
,,,,,,,,,,,,,,,,,,,,5,0.97300005,5,0.244000196,1,0,1200,448,1,1199,depart,11136,2019-10-22_09h37.24.233,SurveyExpMetaMem,3.2.3,MacIntel,60
,,,,,,,,,,,,,,,,,,,,7,2.834000111,3,1.143000126,1,0,1200,1079,1,1199,critic,11136,2019-10-22_09h37.24.233,SurveyExpMetaMem,3.2.3,MacIntel,60
,,,,,,,,,,,,,,,,,,,,8,1.825999975,2,1.732000113,1,0,1200,1026,1,1199,crisis,11136,2019-10-22_09h37.24.233,SurveyExpMetaMem,3.2.3,MacIntel,60
,,,,,,,,,,,,,,,,,,,,5,1.194000006,5,0.208000183,1,0,1200,672,1,1199,ketchup,11136,2019-10-22_09h37.24.233,SurveyExpMetaMem,3.2.3,MacIntel,60
,,,,,,,,,,,,,,,,,,,,5,1.07400012,5,0.209000111,1,0,1200,741,1,1199,wheat,11136,2019-10-22_09h37.24.233,SurveyExpMetaMem,3.2.3,MacIntel,60
,,,,,,,,,,,,,,,,,,,,7,3.931999922,2,2.996000051,1,0,1200,903,1,1199,cancer,11136,2019-10-22_09h37.24.233,SurveyExpMetaMem,3.2.3,MacIntel,60
,,,,,,,,,,,,,,,,,,,,5,7.058000088,5,0.161000252,1,0,1200,210,1,1199,elephant,11136,2019-10-22_09h37.24.233,SurveyExpMetaMem,3.2.3,MacIntel,60
,,,,,,,,,,,,,,,,,,,,6,5.677000046,7,1.110000134,1,0,1200,181,1,1199,fascinate,11136,2019-10-22_09h37.24.233,SurveyExpMetaMem,3.2.3,MacIntel,60
,,,,,,,,,,,,,,,,,,,,5,1.792999983,5,0.209000111,1,0,1200,408,1,1199,bore,11136,2019-10-22_09h37.24.233,SurveyExpMetaMem,3.2.3,MacIntel,60
,,,,,,,,,,,,,,,,,,,,6,5.474999905,3,1.225000143,1,0,1200,978,1,1199,starving,11136,2019-10-22_09h37.24.233,SurveyExpMetaMem,3.2.3,MacIntel,60
,,,,,,,,,,,,,,,,,,,,5,1.141000032,5,0.161000252,1,0,1200,607,1,1199,greyhound,11136,2019-10-22_09h37.24.233,SurveyExpMetaMem,3.2.3,MacIntel,60
,,,,,,,,,,,,,,,,,,,,6,1.89199996,4,0.542999983,1,0,1200,1126,1,1199,offensive,11136,2019-10-22_09h37.24.233,SurveyExpMetaMem,3.2.3,MacIntel,60
,,,,,,,,,,,,,,,,,,,,8,4.529999971,2,1.553000212,1,0,1200,981,1,1199,rage,11136,2019-10-22_09h37.24.233,SurveyExpMetaMem,3.2.3,MacIntel,60
,,,,,,,,,,,,,,,,,,,,5,2.871000051,5,0.200000048,1,0,1200,4,1,1199,night,11136,2019-10-22_09h37.24.233,SurveyExpMetaMem,3.2.3,MacIntel,60
,,,,,,,,,,,,,,,,,,,,5,0.808000088,5,0.226999998,1,0,1200,1096,1,1199,flood,11136,2019-10-22_09h37.24.233,SurveyExpMetaMem,3.2.3,MacIntel,60
,,,,,,,,,,,,,,,,,,,,6,4.961000204,3,1.078999996,1,0,1200,308,1,1199,worthless,11136,2019-10-22_09h37.24.233,SurveyExpMetaMem,3.2.3,MacIntel,60
,,,,,,,,,,,,,,,,,,,,5,1.411000252,5,0.192000151,1,0,1200,554,1,1199,label,11136,2019-10-22_09h37.24.233,SurveyExpMetaMem,3.2.3,MacIntel,60
,,,,,,,,,,,,,,,,,,,,8,2.640000105,2,1.311000109,1,0,1200,1012,1,1199,gunshot,11136,2019-10-22_09h37.24.233,SurveyExpMetaMem,3.2.3,MacIntel,60
,,,,,,,,,,,,,,,,,,,,5,4.241000175,5,0.193000078,1,0,1200,588,1,1199,bandage,11136,2019-10-22_09h37.24.233,SurveyExpMetaMem,3.2.3,MacIntel,60
,,,,,,,,,,,,,,,,,,,,4,3.95600009,4,1.381000042,1,0,1200,492,1,1199,naive,11136,2019-10-22_09h37.24.233,SurveyExpMetaMem,3.2.3,MacIntel,60
,,,,,,,,,,,,,,,,,,,,8,2.391000271,1,1.229000092,1,0,1200,950,1,1199,murder,11136,2019-10-22_09h37.24.233,SurveyExpMetaMem,3.2.3,MacIntel,60
,,,,,,,,,,,,,,,,,,,,7,6.127000093,3,1.240999937,1,0,1200,1150,1,1199,forceful,11136,2019-10-22_09h37.24.233,SurveyExpMetaMem,3.2.3,MacIntel,60
,,,,,,,,,,,,,,,,,,,,6,3.271000147,6,3.776000023,1,0,1200,274,1,1199,song,11136,2019-10-22_09h37.24.233,SurveyExpMetaMem,3.2.3,MacIntel,60
,,,,,,,,,,,,,,,,,,,,5,2.304000139,5,0.276000023,1,0,1200,1129,1,1199,spanking,11136,2019-10-22_09h37.24.233,SurveyExpMetaMem,3.2.3,MacIntel,60
,,,,,,,,,,,,,,,,,,,,5,2.843000174,5,0.209000111,1,0,1200,417,1,1199,dummy,11136,2019-10-22_09h37.24.233,SurveyExpMetaMem,3.2.3,MacIntel,60
,,,,,,,,,,,,,,,,,,,,7,3.295000076,2,1.762000084,1,0,1200,300,1,1199,unhappy,11136,2019-10-22_09h37.24.233,SurveyExpMetaMem,3.2.3,MacIntel,60
,,,,,,,,,,,,,,,,,,,,5,1.829000235,5,0.226000071,1,0,1200,874,1,1199,butterfly,11136,2019-10-22_09h37.24.233,SurveyExpMetaMem,3.2.3,MacIntel,60
,,,,,,,,,,,,,,,,,,,,5,1.121000051,5,0.244999886,1,0,1200,974,1,1199,roach,11136,2019-10-22_09h37.24.233,SurveyExpMetaMem,3.2.3,MacIntel,60
,,,,,,,,,,,,,,,,,,,,6,2.427000046,7,1.600000143,1,0,1200,127,1,1199,glamorous,11136,2019-10-22_09h37.24.233,SurveyExpMetaMem,3.2.3,MacIntel,60
,,,,,,,,,,,,,,,,,,,,9,5.279000044,1,1.411000013,1,0,1200,1025,1,1199,deadly,11136,2019-10-22_09h37.24.233,SurveyExpMetaMem,3.2.3,MacIntel,60
,,,,,,,,,,,,,,,,,,,,6,2.99000001,4,1.157999992,1,0,1200,233,1,1199,exhilaration,11136,2019-10-22_09h37.24.233,SurveyExpMetaMem,3.2.3,MacIntel,60
,,,,,,,,,,,,,,,,,,,,5,0.996999979,5,0.295000076,1,0,1200,797,1,1199,hamburger,11136,2019-10-22_09h37.24.233,SurveyExpMetaMem,3.2.3,MacIntel,60
,,,,,,,,,,,,,,,,,,,,7,3.407000065,6,2.475000143,1,0,1200,1194,1,1199,obsession,11136,2019-10-22_09h37.24.233,SurveyExpMetaMem,3.2.3,MacIntel,60
,,,,,,,,,,,,,,,,,,,,7,2.729000092,7,0.359999895,1,0,1200,143,1,1199,weekend,11136,2019-10-22_09h37.24.233,SurveyExpMetaMem,3.2.3,MacIntel,60
,,,,,,,,,,,,,,,,,,,,6,2.426000118,4,1.414000034,1,0,1200,1001,1,1199,rude,11136,2019-10-22_09h37.24.233,SurveyExpMetaMem,3.2.3,MacIntel,60
,,,,,,,,,,,,,,,,,,,,3,5.719000101,7,9.726000071,1,0,1200,577,1,1199,retreat,11136,2019-10-22_09h37.24.233,SurveyExpMetaMem,3.2.3,MacIntel,60
,,,,,,,,,,,,,,,,,,,,6,11.31299996,7,4.496999979,1,0,1200,880,1,1199,security,11136,2019-10-22_09h37.24.233,SurveyExpMetaMem,3.2.3,MacIntel,60
,,,,,,,,,,,,,,,,,,,,8,1.637000084,2,1.302000284,1,0,1200,1152,1,1199,scream,11136,2019-10-22_09h37.24.233,SurveyExpMetaMem,3.2.3,MacIntel,60
,,,,,,,,,,,,,,,,,,,,6,1.776000261,6,0.840000153,1,0,1200,23,1,1199,earn,11136,2019-10-22_09h37.24.233,SurveyExpMetaMem,3.2.3,MacIntel,60
,,,,,,,,,,,,,,,,,,,,5,1.977999926,5,0.2900002,1,0,1200,368,1,1199,dreary,11136,2019-10-22_09h37.24.233,SurveyExpMetaMem,3.2.3,MacIntel,60
,,,,,,,,,,,,,,,,,,,,5,1.193000078,5,0.27699995,1,0,1200,606,1,1199,easel,11136,2019-10-22_09h37.24.233,SurveyExpMetaMem,3.2.3,MacIntel,60
,,,,,,,,,,,,,,,,,,,,6,1.912000179,5,1.427000046,1,0,1200,1141,1,1199,shark,11136,2019-10-22_09h37.24.233,SurveyExpMetaMem,3.2.3,MacIntel,60
,,,,,,,,,,,,,,,,,,,,4,6.414000034,4,1.478000164,1,0,1200,392,1,1199,moody,11136,2019-10-22_09h37.24.233,SurveyExpMetaMem,3.2.3,MacIntel,60
,,,,,,,,,,,,,,,,,,,,5,2.09800005,5,1.997999907,1,0,1200,798,1,1199,crystal,11136,2019-10-22_09h37.24.233,SurveyExpMetaMem,3.2.3,MacIntel,60
,,,,,,,,,,,,,,,,,,,,5,1.062000036,5,0.404999971,1,0,1200,796,1,1199,rose,11136,2019-10-22_09h37.24.233,SurveyExpMetaMem,3.2.3,MacIntel,60
,,,,,,,,,,,,,,,,,,,,5,1.007000208,5,0.309000254,1,0,1200,503,1,1199,sludge,11136,2019-10-22_09h37.24.233,SurveyExpMetaMem,3.2.3,MacIntel,60
,,,,,,,,,,,,,,,,,,,,5,0.950000048,5,0.344000101,1,0,1200,704,1,1199,flute,11136,2019-10-22_09h37.24.233,SurveyExpMetaMem,3.2.3,MacIntel,60
,,,,,,,,,,,,,,,,,,,,6,2.845999956,4,0.924000025,1,0,1200,341,1,1199,stinky,11136,2019-10-22_09h37.24.233,SurveyExpMetaMem,3.2.3,MacIntel,60
,,,,,,,,,,,,,,,,,,,,5,3.49000001,7,1.049000263,1,0,1200,792,1,1199,moral,11136,2019-10-22_09h37.24.233,SurveyExpMetaMem,3.2.3,MacIntel,60
,,,,,,,,,,,,,,,,,,,,5,3.696000099,2,6.156000137,1,0,1200,1014,1,1199,destroy,11136,2019-10-22_09h37.24.233,SurveyExpMetaMem,3.2.3,MacIntel,60
,,,,,,,,,,,,,,,,,,,,8,3.059000015,3,4.507000208,1,0,1200,494,1,1199,butcher,11136,2019-10-22_09h37.24.233,SurveyExpMetaMem,3.2.3,MacIntel,60
,,,,,,,,,,,,,,,,,,,,3,3.361000299,8,3.465000153,1,0,1200,878,1,1199,sleep,11136,2019-10-22_09h37.24.233,SurveyExpMetaMem,3.2.3,MacIntel,60
,,,,,,,,,,,,,,,,,,,,5,2.175000191,5,0.312000275,1,0,1200,67,1,1199,penthouse,11136,2019-10-22_09h37.24.233,SurveyExpMetaMem,3.2.3,MacIntel,60
,,,,,,,,,,,,,,,,,,,,5,0.810000181,5,0.262000084,1,0,1200,776,1,1199,doll,11136,2019-10-22_09h37.24.233,SurveyExpMetaMem,3.2.3,MacIntel,60
,,,,,,,,,,,,,,,,,,,,6,3.964000225,3,2.124000072,1,0,1200,973,1,1199,anger,11136,2019-10-22_09h37.24.233,SurveyExpMetaMem,3.2.3,MacIntel,60
,,,,,,,,,,,,,,,,,,,,5,1.522000074,5,0.266000271,1,0,1200,214,1,1199,revive,11136,2019-10-22_09h37.24.233,SurveyExpMetaMem,3.2.3,MacIntel,60
,,,,,,,,,,,,,,,,,,,,5,1.758000135,5,0.39199996,1,0,1200,773,1,1199,rational,11136,2019-10-22_09h37.24.233,SurveyExpMetaMem,3.2.3,MacIntel,60
,,,,,,,,,,,,,,,,,,,,7,1.993000031,8,2.631999969,1,0,1200,82,1,1199,stunning,11136,2019-10-22_09h37.24.233,SurveyExpMetaMem,3.2.3,MacIntel,60
,,,,,,,,,,,,,,,,,,,,5,3.233000278,5,0.614000082,1,0,1200,558,1,1199,punk,11136,2019-10-22_09h37.24.233,SurveyExpMetaMem,3.2.3,MacIntel,60
,,,,,,,,,,,,,,,,,,,,6,3.592000246,6,0.625,1,0,1200,91,1,1199,pretty,11136,2019-10-22_09h37.24.233,SurveyExpMetaMem,3.2.3,MacIntel,60
,,,,,,,,,,,,,,,,,,,,5,1.424000025,5,0.277999878,1,0,1200,645,1,1199,telescope,11136,2019-10-22_09h37.24.233,SurveyExpMetaMem,3.2.3,MacIntel,60
,,,,,,,,,,,,,,,,,,,,5,0.851000071,5,0.259000063,1,0,1200,630,1,1199,website,11136,2019-10-22_09h37.24.233,SurveyExpMetaMem,3.2.3,MacIntel,60
,,,,,,,,,,,,,,,,,,,,5,1.021000147,5,0.279000044,1,0,1200,460,1,1199,rag,11136,2019-10-22_09h37.24.233,SurveyExpMetaMem,3.2.3,MacIntel,60
,,,,,,,,,,,,,,,,,,,,5,1.32400012,5,0.226999998,1,0,1200,557,1,1199,class,11136,2019-10-22_09h37.24.233,SurveyExpMetaMem,3.2.3,MacIntel,60
,,,,,,,,,,,,,,,,,,,,5,1.242000103,5,0.292999983,1,0,1200,495,1,1199,dust,11136,2019-10-22_09h37.24.233,SurveyExpMetaMem,3.2.3,MacIntel,60
,,,,,,,,,,,,,,,,,,,,5,1.545000076,5,0.210000277,1,0,1200,482,1,1199,cell,11136,2019-10-22_09h37.24.233,SurveyExpMetaMem,3.2.3,MacIntel,60
,,,,,,,,,,,,,,,,,,,,7,7.609000206,3,0.476999998,1,0,1200,326,1,1199,scam,11136,2019-10-22_09h37.24.233,SurveyExpMetaMem,3.2.3,MacIntel,60
,,,,,,,,,,,,,,,,,,,,5,1.408000231,5,0.227000237,1,0,1200,1045,1,1199,scalding,11136,2019-10-22_09h37.24.233,SurveyExpMetaMem,3.2.3,MacIntel,60
,,,,,,,,,,,,,,,,,,,,8,3.790999889,1,0.959000111,1,0,1200,915,1,1199,abuse,11136,2019-10-22_09h37.24.233,SurveyExpMetaMem,3.2.3,MacIntel,60
,,,,,,,,,,,,,,,,,,,,5,4.00999999,5,0.232000113,1,0,1200,816,1,1199,hippotamus,11136,2019-10-22_09h37.24.233,SurveyExpMetaMem,3.2.3,MacIntel,60
,,,,,,,,,,,,,,,,,,,,5,1.09100008,5,0.218000174,1,0,1200,744,1,1199,village,11136,2019-10-22_09h37.24.233,SurveyExpMetaMem,3.2.3,MacIntel,60
,,,,,,,,,,,,,,,,,,,,5,2.058000088,5,0.29700017,1,0,1200,429,1,1199,cough,11136,2019-10-22_09h37.24.233,SurveyExpMetaMem,3.2.3,MacIntel,60
,,,,,,,,,,,,,,,,,,,,5,1.309000254,5,0.365999937,1,0,1200,462,1,1199,shallow,11136,2019-10-22_09h37.24.233,SurveyExpMetaMem,3.2.3,MacIntel,60
,,,,,,,,,,,,,,,,,,,,5,4.847000122,5,0.210999966,1,0,1200,426,1,1199,con,11136,2019-10-22_09h37.24.233,SurveyExpMetaMem,3.2.3,MacIntel,60
,,,,,,,,,,,,,,,,,,,,7,1.596000195,3,1.292000055,1,0,1200,918,1,1199,gunpoint,11136,2019-10-22_09h37.24.233,SurveyExpMetaMem,3.2.3,MacIntel,60
,,,,,,,,,,,,,,,,,,,,4,5.038000107,6,1.197000027,1,0,1200,842,1,1199,breathe,11136,2019-10-22_09h37.24.233,SurveyExpMetaMem,3.2.3,MacIntel,60
,,,,,,,,,,,,,,,,,,,,6,2.525000095,4,0.730000019,1,0,1200,313,1,1199,rotten,11136,2019-10-22_09h37.24.233,SurveyExpMetaMem,3.2.3,MacIntel,60
,,,,,,,,,,,,,,,,,,,,5,2.101000071,5,0.433000088,1,0,1200,681,1,1199,fig,11136,2019-10-22_09h37.24.233,SurveyExpMetaMem,3.2.3,MacIntel,60
,,,,,,,,,,,,,,,,,,,,5,1.45600009,5,0.330000162,1,0,1200,1198,1,1199,lightning,11136,2019-10-22_09h37.24.233,SurveyExpMetaMem,3.2.3,MacIntel,60
,,,,,,,,,,,,,,,,,,,,8,4.325000286,8,0.527000189,1,0,1200,295,1,1199,passion,11136,2019-10-22_09h37.24.233,SurveyExpMetaMem,3.2.3,MacIntel,60
,,,,,,,,,,,,,,,,,,,,5,2.640000105,5,0.229000092,1,0,1200,1177,1,1199,pang,11136,2019-10-22_09h37.24.233,SurveyExpMetaMem,3.2.3,MacIntel,60
,,,,,,,,,,,,,,,,,,,,5,0.897000074,5,0.244000196,1,0,1200,504,1,1199,cane,11136,2019-10-22_09h37.24.233,SurveyExpMetaMem,3.2.3,MacIntel,60
,,,,,,,,,,,,,,,,,,,,7,4.312000036,7,0.411000252,1,0,1200,244,1,1199,sexy,11136,2019-10-22_09h37.24.233,SurveyExpMetaMem,3.2.3,MacIntel,60
,,,,,,,,,,,,,,,,,,,,7,6.22300005,4,1.992000103,1,0,1200,1107,1,1199,snake,11136,2019-10-22_09h37.24.233,SurveyExpMetaMem,3.2.3,MacIntel,60
,,,,,,,,,,,,,,,,,,,,5,1.641000032,5,0.243999958,1,0,1200,177,1,1199,frosting,11136,2019-10-22_09h37.24.233,SurveyExpMetaMem,3.2.3,MacIntel,60
,,,,,,,,,,,,,,,,,,,,5,0.825999975,5,0.231000185,1,0,1200,819,1,1199,sheep,11136,2019-10-22_09h37.24.233,SurveyExpMetaMem,3.2.3,MacIntel,60
,,,,,,,,,,,,,,,,,,,,5,2.430000067,5,0.23300004,1,0,1200,476,1,1199,warden,11136,2019-10-22_09h37.24.233,SurveyExpMetaMem,3.2.3,MacIntel,60
,,,,,,,,,,,,,,,,,,,,5,0.858000278,5,0.260999918,1,0,1200,56,1,1199,spice,11136,2019-10-22_09h37.24.233,SurveyExpMetaMem,3.2.3,MacIntel,60
,,,,,,,,,,,,,,,,,,,,6,2.927000284,6,0.308000088,1,0,1200,258,1,1199,children,11136,2019-10-22_09h37.24.233,SurveyExpMetaMem,3.2.3,MacIntel,60
,,,,,,,,,,,,,,,,,,,,7,2.14199996,8,1.999000072,1,0,1200,74,1,1199,explore,11136,2019-10-22_09h37.24.233,SurveyExpMetaMem,3.2.3,MacIntel,60
,,,,,,,,,,,,,,,,,,,,6,2.457000017,3,0.577000141,1,0,1200,980,1,1199,liar,11136,2019-10-22_09h37.24.233,SurveyExpMetaMem,3.2.3,MacIntel,60
,,,,,,,,,,,,,,,,,,,,5,2.262000084,5,0.207000256,1,0,1200,458,1,1199,refuse,11136,2019-10-22_09h37.24.233,SurveyExpMetaMem,3.2.3,MacIntel,60
,,,,,,,,,,,,,,,,,,,,7,2.228000164,3,1.00999999,1,0,1200,1143,1,1199,arrogant,11136,2019-10-22_09h37.24.233,SurveyExpMetaMem,3.2.3,MacIntel,60
,,,,,,,,,,,,,,,,,,,,6,6.673000097,4,0.426000118,1,0,1200,1175,1,1199,prostitute,11136,2019-10-22_09h37.24.233,SurveyExpMetaMem,3.2.3,MacIntel,60
,,,,,,,,,,,,,,,,,,,,5,2.757000208,5,0.177999973,1,0,1200,526,1,1199,dry,11136,2019-10-22_09h37.24.233,SurveyExpMetaMem,3.2.3,MacIntel,60
,,,,,,,,,,,,,,,,,,,,7,2.014000177,7,1.762000084,1,0,1200,80,1,1199,wonderful,11136,2019-10-22_09h37.24.233,SurveyExpMetaMem,3.2.3,MacIntel,60
,,,,,,,,,,,,,,,,,,,,8,4.937000036,2,0.834000111,1,0,1200,1036,1,1199,anxiety,11136,2019-10-22_09h37.24.233,SurveyExpMetaMem,3.2.3,MacIntel,60
,,,,,,,,,,,,,,,,,,,,6,2.85800004,6,0.212000132,1,0,1200,140,1,1199,riches,11136,2019-10-22_09h37.24.233,SurveyExpMetaMem,3.2.3,MacIntel,60
,,,,,,,,,,,,,,,,,,,,6,1.930999994,4,0.625999928,1,0,1200,470,1,1199,cynical,11136,2019-10-22_09h37.24.233,SurveyExpMetaMem,3.2.3,MacIntel,60
,,,,,,,,,,,,,,,,,,,,6,3.709000111,7,0.525000095,1,0,1200,124,1,1199,honeymoon,11136,2019-10-22_09h37.24.233,SurveyExpMetaMem,3.2.3,MacIntel,60
,,,,,,,,,,,,,,,,,,,,7,9.077000141,2,1.276000023,1,0,1200,917,1,1199,slave,11136,2019-10-22_09h37.24.233,SurveyExpMetaMem,3.2.3,MacIntel,60
,,,,,,,,,,,,,,,,,,,,5,11.07900023,5,0.18900013,1,0,1200,774,1,1199,leaves,11136,2019-10-22_09h37.24.233,SurveyExpMetaMem,3.2.3,MacIntel,60
,,,,,,,,,,,,,,,,,,,,5,0.877000093,5,0.232000113,1,0,1200,679,1,1199,yellow,11136,2019-10-22_09h37.24.233,SurveyExpMetaMem,3.2.3,MacIntel,60
,,,,,,,,,,,,,,,,,,,,7,5.065999985,2,0.512000084,1,0,1200,324,1,1199,inferiority,11136,2019-10-22_09h37.24.233,SurveyExpMetaMem,3.2.3,MacIntel,60
,,,,,,,,,,,,,,,,,,,,5,3.663000107,5,0.463000059,1,0,1200,390,1,1199,impair,11136,2019-10-22_09h37.24.233,SurveyExpMetaMem,3.2.3,MacIntel,60
,,,,,,,,,,,,,,,,,,,,5,1.112000227,7,2.995000124,1,0,1200,44,1,1199,diploma,11136,2019-10-22_09h37.24.233,SurveyExpMetaMem,3.2.3,MacIntel,60
,,,,,,,,,,,,,,,,,,,,7,2.078000069,3,1.095999956,1,0,1200,1131,1,1199,envious,11136,2019-10-22_09h37.24.233,SurveyExpMetaMem,3.2.3,MacIntel,60
,,,,,,,,,,,,,,,,,,,,7,3.133000135,4,0.910000086,1,0,1200,1186,1,1199,goddamn,11136,2019-10-22_09h37.24.233,SurveyExpMetaMem,3.2.3,MacIntel,60
,,,,,,,,,,,,,,,,,,,,6,2.896000147,6,0.210000038,1,0,1200,212,1,1199,belief,11136,2019-10-22_09h37.24.233,SurveyExpMetaMem,3.2.3,MacIntel,60
,,,,,,,,,,,,,,,,,,,,6,1.77699995,6,0.210999966,1,0,1200,55,1,1199,rare,11136,2019-10-22_09h37.24.233,SurveyExpMetaMem,3.2.3,MacIntel,60
,,,,,,,,,,,,,,,,,,,,5,1.042000055,5,0.263000011,1,0,1200,1187,1,1199,drill,11136,2019-10-22_09h37.24.233,SurveyExpMetaMem,3.2.3,MacIntel,60
,,,,,,,,,,,,,,,,,,,,7,5.794000149,3,0.493000031,1,0,1200,966,1,1199,regretful,11136,2019-10-22_09h37.24.233,SurveyExpMetaMem,3.2.3,MacIntel,60
,,,,,,,,,,,,,,,,,,,,5,1.039000273,5,0.175000191,1,0,1200,831,1,1199,sofa,11136,2019-10-22_09h37.24.233,SurveyExpMetaMem,3.2.3,MacIntel,60
,,,,,,,,,,,,,,,,,,,,5,4.973999977,5,0.178000212,1,0,1200,444,1,1199,mold,11136,2019-10-22_09h37.24.233,SurveyExpMetaMem,3.2.3,MacIntel,60
,,,,,,,,,,,,,,,,,,,,5,1.213000298,5,0.19900012,1,0,1200,754,1,1199,reflection,11136,2019-10-22_09h37.24.233,SurveyExpMetaMem,3.2.3,MacIntel,60
,,,,,,,,,,,,,,,,,,,,7,2.008000135,3,0.827000141,1,0,1200,1007,1,1199,tornado,11136,2019-10-22_09h37.24.233,SurveyExpMetaMem,3.2.3,MacIntel,60
,,,,,,,,,,,,,,,,,,,,5,0.973999977,5,0.180999994,1,0,1200,594,1,1199,moss,11136,2019-10-22_09h37.24.233,SurveyExpMetaMem,3.2.3,MacIntel,60
,,,,,,,,,,,,,,,,,,,,7,1.976999998,2,0.700000048,1,0,1200,316,1,1199,sorrow,11136,2019-10-22_09h37.24.233,SurveyExpMetaMem,3.2.3,MacIntel,60
,,,,,,,,,,,,,,,,,,,,5,8.753000021,5,0.209000111,1,0,1200,445,1,1199,bleak,11136,2019-10-22_09h37.24.233,SurveyExpMetaMem,3.2.3,MacIntel,60
,,,,,,,,,,,,,,,,,,,,6,3.528000116,7,0.259000063,1,0,1200,800,1,1199,authentic,11136,2019-10-22_09h37.24.233,SurveyExpMetaMem,3.2.3,MacIntel,60
,,,,,,,,,,,,,,,,,,,,6,6.629000187,4,0.874000072,1,0,1200,363,1,1199,dumb,11136,2019-10-22_09h37.24.233,SurveyExpMetaMem,3.2.3,MacIntel,60
,,,,,,,,,,,,,,,,,,,,6,1.580000162,7,0.298000097,1,0,1200,793,1,1199,virtue,11136,2019-10-22_09h37.24.233,SurveyExpMetaMem,3.2.3,MacIntel,60
,,,,,,,,,,,,,,,,,,,,7,3.350000143,3,0.684000015,1,0,1200,960,1,1199,irritated,11136,2019-10-22_09h37.24.233,SurveyExpMetaMem,3.2.3,MacIntel,60
,,,,,,,,,,,,,,,,,,,,5,6.526000261,5,0.243999958,1,0,1200,637,1,1199,flock,11136,2019-10-22_09h37.24.233,SurveyExpMetaMem,3.2.3,MacIntel,60
,,,,,,,,,,,,,,,,,,,,6,1.726000071,6,0.230000257,1,0,1200,835,1,1199,helpful,11136,2019-10-22_09h37.24.233,SurveyExpMetaMem,3.2.3,MacIntel,60
,,,,,,,,,,,,,,,,,,,,6,1.996000051,4,0.275000095,1,0,1200,397,1,1199,complaint,11136,2019-10-22_09h37.24.233,SurveyExpMetaMem,3.2.3,MacIntel,60
,,,,,,,,,,,,,,,,,,,,5,2.045000076,5,0.209000111,1,0,1200,629,1,1199,barn,11136,2019-10-22_09h37.24.233,SurveyExpMetaMem,3.2.3,MacIntel,60
,,,,,,,,,,,,,,,,,,,,5,3.227000237,5,0.229000092,1,0,1200,432,1,1199,resign,11136,2019-10-22_09h37.24.233,SurveyExpMetaMem,3.2.3,MacIntel,60
,,,,,,,,,,,,,,,,,,,,5,4.64199996,5,0.592000008,1,0,1200,101,1,1199,alien,11136,2019-10-22_09h37.24.233,SurveyExpMetaMem,3.2.3,MacIntel,60
,,,,,,,,,,,,,,,,,,,,5,2.423000097,5,0.193000078,1,0,1200,682,1,1199,camel,11136,2019-10-22_09h37.24.233,SurveyExpMetaMem,3.2.3,MacIntel,60
,,,,,,,,,,,,,,,,,,,,4,3.473999977,4,0.572000265,1,0,1200,451,1,1199,lame,11136,2019-10-22_09h37.24.233,SurveyExpMetaMem,3.2.3,MacIntel,60
,,,,,,,,,,,,,,,,,,,,4,5.354000092,4,0.20600009,1,0,1200,406,1,1199,tired,11136,2019-10-22_09h37.24.233,SurveyExpMetaMem,3.2.3,MacIntel,60
,,,,,,,,,,,,,,,,,,,,6,3.962000132,5,0.228000164,1,0,1200,1134,1,1199,obsessed,11136,2019-10-22_09h37.24.233,SurveyExpMetaMem,3.2.3,MacIntel,60
,,,,,,,,,,,,,,,,,,,,5,3.847000122,5,0.193000078,1,0,1200,545,1,1199,tar,11136,2019-10-22_09h37.24.233,SurveyExpMetaMem,3.2.3,MacIntel,60
,,,,,,,,,,,,,,,,,,,,7,3.957000256,7,0.210000277,1,0,1200,275,1,1199,brilliant,11136,2019-10-22_09h37.24.233,SurveyExpMetaMem,3.2.3,MacIntel,60
,,,,,,,,,,,,,,,,,,,,6,4.830000162,6,0.211999893,1,0,1200,802,1,1199,familiar,11136,2019-10-22_09h37.24.233,SurveyExpMetaMem,3.2.3,MacIntel,60
,,,,,,,,,,,,,,,,,,,,6,4.225000143,4,0.599000216,1,0,1200,311,1,1199,discomfort,11136,2019-10-22_09h37.24.233,SurveyExpMetaMem,3.2.3,MacIntel,60
,,,,,,,,,,,,,,,,,,,,5,1.128000259,5,0.244000196,1,0,1200,63,1,1199,clothes,11136,2019-10-22_09h37.24.233,SurveyExpMetaMem,3.2.3,MacIntel,60
,,,,,,,,,,,,,,,,,,,,5,7.067000151,5,0.159000158,1,0,1200,680,1,1199,candle,11136,2019-10-22_09h37.24.233,SurveyExpMetaMem,3.2.3,MacIntel,60
,,,,,,,,,,,,,,,,,,,,5,2.559000254,5,0.193000078,1,0,1200,453,1,1199,prude,11136,2019-10-22_09h37.24.233,SurveyExpMetaMem,3.2.3,MacIntel,60
,,,,,,,,,,,,,,,,,,,,4,5.240999937,4,0.382000208,1,0,1200,473,1,1199,senseless,11136,2019-10-22_09h37.24.233,SurveyExpMetaMem,3.2.3,MacIntel,60
,,,,,,,,,,,,,,,,,,,,5,1.075000048,5,0.417000294,1,0,1200,745,1,1199,inform,11136,2019-10-22_09h37.24.233,SurveyExpMetaMem,3.2.3,MacIntel,60
,,,,,,,,,,,,,,,,,,,,7,2.256999969,3,0.85800004,1,0,1200,971,1,1199,crash,11136,2019-10-22_09h37.24.233,SurveyExpMetaMem,3.2.3,MacIntel,60
,,,,,,,,,,,,,,,,,,,,5,1.10800004,5,0.207999945,1,0,1200,511,1,1199,slouch,11136,2019-10-22_09h37.24.233,SurveyExpMetaMem,3.2.3,MacIntel,60
,,,,,,,,,,,,,,,,,,,,6,3.183000326,7,0.295000076,1,0,1200,83,1,1199,appreciative,11136,2019-10-22_09h37.24.233,SurveyExpMetaMem,3.2.3,MacIntel,60
,,,,,,,,,,,,,,,,,,,,5,1.516000032,5,0.226000071,1,0,1200,522,1,1199,cleft,11136,2019-10-22_09h37.24.233,SurveyExpMetaMem,3.2.3,MacIntel,60
,,,,,,,,,,,,,,,,,,,,5,2.829000235,5,0.244000196,1,0,1200,666,1,1199,verify,11136,2019-10-22_09h37.24.233,SurveyExpMetaMem,3.2.3,MacIntel,60
,,,,,,,,,,,,,,,,,,,,8,3.10800004,2,1.051000118,1,0,1200,362,1,1199,despair,11136,2019-10-22_09h37.24.233,SurveyExpMetaMem,3.2.3,MacIntel,60
,,,,,,,,,,,,,,,,,,,,6,4.625999928,4,0.316000223,1,0,1200,986,1,1199,mad,11136,2019-10-22_09h37.24.233,SurveyExpMetaMem,3.2.3,MacIntel,60
,,,,,,,,,,,,,,,,,,,,5,6.257000208,5,0.226000071,1,0,1200,1040,1,1199,communism,11136,2019-10-22_09h37.24.233,SurveyExpMetaMem,3.2.3,MacIntel,60
,,,,,,,,,,,,,,,,,,,,5,4.015000105,5,0.197000027,1,0,1200,156,1,1199,gym,11136,2019-10-22_09h37.24.233,SurveyExpMetaMem,3.2.3,MacIntel,60
,,,,,,,,,,,,,,,,,,,,6,4.891000032,5,1.739000082,1,0,1200,3,1,1199,nudist,11136,2019-10-22_09h37.24.233,SurveyExpMetaMem,3.2.3,MacIntel,60
,,,,,,,,,,,,,,,,,,,,7,10.1730001,3,0.613000154,1,0,1200,925,1,1199,disloyal,11136,2019-10-22_09h37.24.233,SurveyExpMetaMem,3.2.3,MacIntel,60
,,,,,,,,,,,,,,,,,,,,7,1.812000036,7,0.180000305,1,0,1200,92,1,1199,justice,11136,2019-10-22_09h37.24.233,SurveyExpMetaMem,3.2.3,MacIntel,60
,,,,,,,,,,,,,,,,,,,,7,5.642000198,6,0.424999952,1,0,1200,207,1,1199,erect,11136,2019-10-22_09h37.24.233,SurveyExpMetaMem,3.2.3,MacIntel,60
,,,,,,,,,,,,,,,,,,,,5,12.02600026,5,0.194000006,1,0,1200,1178,1,1199,weight,11136,2019-10-22_09h37.24.233,SurveyExpMetaMem,3.2.3,MacIntel,60
,,,,,,,,,,,,,,,,,,,,5,0.943000317,5,0.194000006,1,0,1200,965,1,1199,traffic,11136,2019-10-22_09h37.24.233,SurveyExpMetaMem,3.2.3,MacIntel,60
,,,,,,,,,,,,,,,,,,,,4,1.861000061,7,1.508000135,1,0,1200,664,1,1199,quiet,11136,2019-10-22_09h37.24.233,SurveyExpMetaMem,3.2.3,MacIntel,60
,,,,,,,,,,,,,,,,,,,,6,3.720000267,4,0.594000101,1,0,1200,1013,1,1199,guilty,11136,2019-10-22_09h37.24.233,SurveyExpMetaMem,3.2.3,MacIntel,60
,,,,,,,,,,,,,,,,,,,,5,3.292999983,5,0.326000214,1,0,1200,508,1,1199,haphazard,11136,2019-10-22_09h37.24.233,SurveyExpMetaMem,3.2.3,MacIntel,60
,,,,,,,,,,,,,,,,,,,,5,3.926000118,5,0.376000166,1,0,1200,121,1,1199,self,11136,2019-10-22_09h37.24.233,SurveyExpMetaMem,3.2.3,MacIntel,60
,,,,,,,,,,,,,,,,,,,,5,1.08100009,5,0.260999918,1,0,1200,771,1,1199,practical,11136,2019-10-22_09h37.24.233,SurveyExpMetaMem,3.2.3,MacIntel,60
,,,,,,,,,,,,,,,,,,,,5,0.826000214,5,0.246000051,1,0,1200,830,1,1199,pear,11136,2019-10-22_09h37.24.233,SurveyExpMetaMem,3.2.3,MacIntel,60
,,,,,,,,,,,,,,,,,,,,5,1.196000099,5,0.310000181,1,0,1200,334,1,1199,trash,11136,2019-10-22_09h37.24.233,SurveyExpMetaMem,3.2.3,MacIntel,60
,,,,,,,,,,,,,,,,,,,,5,2.060000181,5,0.208000183,1,0,1200,788,1,1199,cook,11136,2019-10-22_09h37.24.233,SurveyExpMetaMem,3.2.3,MacIntel,60
,,,,,,,,,,,,,,,,,,,,5,0.826000214,5,0.228000164,1,0,1200,783,1,1199,sprinkle,11136,2019-10-22_09h37.24.233,SurveyExpMetaMem,3.2.3,MacIntel,60
,,,,,,,,,,,,,,,,,,,,6,2.692000151,4,0.325999975,1,0,1200,383,1,1199,messy,11136,2019-10-22_09h37.24.233,SurveyExpMetaMem,3.2.3,MacIntel,60
,,,,,,,,,,,,,,,,,,,,5,5.776000023,5,3.293000221,1,0,1200,1099,1,1199,fire,11136,2019-10-22_09h37.24.233,SurveyExpMetaMem,3.2.3,MacIntel,60
,,,,,,,,,,,,,,,,,,,,8,2.528000116,8,0.246000051,1,0,1200,40,1,1199,kissing,11136,2019-10-22_09h37.24.233,SurveyExpMetaMem,3.2.3,MacIntel,60
,,,,,,,,,,,,,,,,,,,,6,4.746000051,6,0.190000057,1,0,1200,215,1,1199,salary,11136,2019-10-22_09h37.24.233,SurveyExpMetaMem,3.2.3,MacIntel,60
,,,,,,,,,,,,,,,,,,,,5,2.062000036,5,0.193000078,1,0,1200,617,1,1199,tomato,11136,2019-10-22_09h37.24.233,SurveyExpMetaMem,3.2.3,MacIntel,60
,,,,,,,,,,,,,,,,,,,,6,2.460000038,4,0.309000015,1,0,1200,1166,1,1199,compulsive,11136,2019-10-22_09h37.24.233,SurveyExpMetaMem,3.2.3,MacIntel,60
,,,,,,,,,,,,,,,,,,,,5,1.141000032,5,0.243000031,1,0,1200,1153,1,1199,mangle,11136,2019-10-22_09h37.24.233,SurveyExpMetaMem,3.2.3,MacIntel,60
,,,,,,,,,,,,,,,,,,,,5,1.226000071,5,0.215000153,1,0,1200,650,1,1199,native,11136,2019-10-22_09h37.24.233,SurveyExpMetaMem,3.2.3,MacIntel,60
,,,,,,,,,,,,,,,,,,,,7,1.842000008,3,2.424000025,1,0,1200,963,1,1199,dreadful,11136,2019-10-22_09h37.24.233,SurveyExpMetaMem,3.2.3,MacIntel,60
,,,,,,,,,,,,,,,,,,,,8,8.377000093,2,2.961000204,1,0,1200,905,1,1199,suffocate,11136,2019-10-22_09h37.24.233,SurveyExpMetaMem,3.2.3,MacIntel,60
,,,,,,,,,,,,,,,,,,,,8,2.76300025,1,0.496000051,1,0,1200,1049,1,1199,electrocute,11136,2019-10-22_09h37.24.233,SurveyExpMetaMem,3.2.3,MacIntel,60
,,,,,,,,,,,,,,,,,,,,7,1.894000053,3,1.543000221,1,0,1200,992,1,1199,addict,11136,2019-10-22_09h37.24.233,SurveyExpMetaMem,3.2.3,MacIntel,60
,,,,,,,,,,,,,,,,,,,,7,3.06400013,7,0.228000164,1,0,1200,62,1,1199,interested,11136,2019-10-22_09h37.24.233,SurveyExpMetaMem,3.2.3,MacIntel,60
,,,,,,,,,,,,,,,,,,,,5,1.251000166,5,0.243999958,1,0,1200,1121,1,1199,ban,11136,2019-10-22_09h37.24.233,SurveyExpMetaMem,3.2.3,MacIntel,60
,,,,,,,,,,,,,,,,,,,,7,2.607000113,2,0.487000227,1,0,1200,984,1,1199,despairing,11136,2019-10-22_09h37.24.233,SurveyExpMetaMem,3.2.3,MacIntel,60
,,,,,,,,,,,,,,,,,,,,5,4.403000116,5,0.195000172,1,0,1200,1072,1,1199,bothered,11136,2019-10-22_09h37.24.233,SurveyExpMetaMem,3.2.3,MacIntel,60
,,,,,,,,,,,,,,,,,,,,5,0.904999971,5,0.226999998,1,0,1200,725,1,1199,checkerboard,11136,2019-10-22_09h37.24.233,SurveyExpMetaMem,3.2.3,MacIntel,60
,,,,,,,,,,,,,,,,,,,,5,0.776000023,5,0.246000051,1,0,1200,665,1,1199,read,11136,2019-10-22_09h37.24.233,SurveyExpMetaMem,3.2.3,MacIntel,60
,,,,,,,,,,,,,,,,,,,,5,1.075000048,5,0.213999987,1,0,1200,772,1,1199,ornament,11136,2019-10-22_09h37.24.233,SurveyExpMetaMem,3.2.3,MacIntel,60
,,,,,,,,,,,,,,,,,,,,5,0.796000004,5,0.196000099,1,0,1200,841,1,1199,bathtub,11136,2019-10-22_09h37.24.233,SurveyExpMetaMem,3.2.3,MacIntel,60
,,,,,,,,,,,,,,,,,,,,7,2.330000162,7,2.128000259,1,0,1200,236,1,1199,amaze,11136,2019-10-22_09h37.24.233,SurveyExpMetaMem,3.2.3,MacIntel,60
,,,,,,,,,,,,,,,,,,,,6,3.806999922,6,0.317000151,1,0,1200,235,1,1199,cheery,11136,2019-10-22_09h37.24.233,SurveyExpMetaMem,3.2.3,MacIntel,60
,,,,,,,,,,,,,,,,,,,,5,1.197999954,5,0.230000019,1,0,1200,586,1,1199,cab,11136,2019-10-22_09h37.24.233,SurveyExpMetaMem,3.2.3,MacIntel,60
,,,,,,,,,,,,,,,,,,,,5,1.109000206,5,0.217000008,1,0,1200,1104,1,1199,avalanche,11136,2019-10-22_09h37.24.233,SurveyExpMetaMem,3.2.3,MacIntel,60
,,,,,,,,,,,,,,,,,,,,8,3.197000027,8,0.210000277,1,0,1200,173,1,1199,hope,11136,2019-10-22_09h37.24.233,SurveyExpMetaMem,3.2.3,MacIntel,60
,,,,,,,,,,,,,,,,,,,,6,2.490999937,6,0.210000038,1,0,1200,762,1,1199,orchestra,11136,2019-10-22_09h37.24.233,SurveyExpMetaMem,3.2.3,MacIntel,60
,,,,,,,,,,,,,,,,,,,,5,1.24000001,5,0.227000237,1,0,1200,538,1,1199,crumbs,11136,2019-10-22_09h37.24.233,SurveyExpMetaMem,3.2.3,MacIntel,60
,,,,,,,,,,,,,,,,,,,,8,2.742000103,3,2.029000044,1,0,1200,1021,1,1199,attack,11136,2019-10-22_09h37.24.233,SurveyExpMetaMem,3.2.3,MacIntel,60
,,,,,,,,,,,,,,,,,,,,5,1.09100008,5,0.179000139,1,0,1200,669,1,1199,plaza,11136,2019-10-22_09h37.24.233,SurveyExpMetaMem,3.2.3,MacIntel,60
,,,,,,,,,,,,,,,,,,,,6,2.159000158,4,0.373000145,1,0,1200,322,1,1199,widow,11136,2019-10-22_09h37.24.233,SurveyExpMetaMem,3.2.3,MacIntel,60
,,,,,,,,,,,,,,,,,,,,5,4.142000198,5,0.176000118,1,0,1200,266,1,1199,juice,11136,2019-10-22_09h37.24.233,SurveyExpMetaMem,3.2.3,MacIntel,60
,,,,,,,,,,,,,,,,,,,,5,0.873000145,5,0.242000103,1,0,1200,154,1,1199,race,11136,2019-10-22_09h37.24.233,SurveyExpMetaMem,3.2.3,MacIntel,60
,,,,,,,,,,,,,,,,,,,,5,0.907000065,5,0.227000237,1,0,1200,572,1,1199,cast,11136,2019-10-22_09h37.24.233,SurveyExpMetaMem,3.2.3,MacIntel,60
,,,,,,,,,,,,,,,,,,,,5,0.72300005,5,0.347000122,1,0,1200,767,1,1199,civil,11136,2019-10-22_09h37.24.233,SurveyExpMetaMem,3.2.3,MacIntel,60
,,,,,,,,,,,,,,,,,,,,5,3.174000025,7,1.174000025,1,0,1200,731,1,1199,decency,11136,2019-10-22_09h37.24.233,SurveyExpMetaMem,3.2.3,MacIntel,60
,,,,,,,,,,,,,,,,,,,,7,3.874000072,7,0.19900012,1,0,1200,97,1,1199,enthusiastic,11136,2019-10-22_09h37.24.233,SurveyExpMetaMem,3.2.3,MacIntel,60
,,,,,,,,,,,,,,,,,,,,5,1.375,5,0.509000063,1,0,1200,601,1,1199,roof,11136,2019-10-22_09h37.24.233,SurveyExpMetaMem,3.2.3,MacIntel,60
,,,,,,,,,,,,,,,,,,,,8,8.444000006,3,0.594000101,1,0,1200,1112,1,1199,pressure,11136,2019-10-22_09h37.24.233,SurveyExpMetaMem,3.2.3,MacIntel,60
,,,,,,,,,,,,,,,,,,,,8,1.826999903,2,0.480000019,1,0,1200,959,1,1199,divorce,11136,2019-10-22_09h37.24.233,SurveyExpMetaMem,3.2.3,MacIntel,60
,,,,,,,,,,,,,,,,,,,,5,8.907999992,6,0.233999968,1,0,1200,877,1,1199,bless,11136,2019-10-22_09h37.24.233,SurveyExpMetaMem,3.2.3,MacIntel,60
,,,,,,,,,,,,,,,,,,,,7,2.303000212,7,0.221000195,1,0,1200,299,1,1199,champion,11136,2019-10-22_09h37.24.233,SurveyExpMetaMem,3.2.3,MacIntel,60
,,,,,,,,,,,,,,,,,,,,5,2.05700016,6,0.43200016,1,0,1200,256,1,1199,galaxy,11136,2019-10-22_09h37.24.233,SurveyExpMetaMem,3.2.3,MacIntel,60
,,,,,,,,,,,,,,,,,,,,5,3.325000286,5,0.198000193,1,0,1200,153,1,1199,teach,11136,2019-10-22_09h37.24.233,SurveyExpMetaMem,3.2.3,MacIntel,60
,,,,,,,,,,,,,,,,,,,,5,0.897000074,5,0.243000269,1,0,1200,570,1,1199,muddy,11136,2019-10-22_09h37.24.233,SurveyExpMetaMem,3.2.3,MacIntel,60
,,,,,,,,,,,,,,,,,,,,7,2.038000107,3,0.578000069,1,0,1200,953,1,1199,victim,11136,2019-10-22_09h37.24.233,SurveyExpMetaMem,3.2.3,MacIntel,60
,,,,,,,,,,,,,,,,,,,,5,1.475000143,5,0.193000078,1,0,1200,415,1,1199,grime,11136,2019-10-22_09h37.24.233,SurveyExpMetaMem,3.2.3,MacIntel,60
,,,,,,,,,,,,,,,,,,,,5,0.80700016,5,0.176000118,1,0,1200,489,1,1199,timid,11136,2019-10-22_09h37.24.233,SurveyExpMetaMem,3.2.3,MacIntel,60
,,,,,,,,,,,,,,,,,,,,6,2.89800024,8,2.101000071,1,0,1200,196,1,1199,smile,11136,2019-10-22_09h37.24.233,SurveyExpMetaMem,3.2.3,MacIntel,60
,,,,,,,,,,,,,,,,,,,,7,2.240999937,3,1.125,1,0,1200,906,1,1199,syphilis,11136,2019-10-22_09h37.24.233,SurveyExpMetaMem,3.2.3,MacIntel,60
,,,,,,,,,,,,,,,,,,,,6,2.110000134,6,0.168000221,1,0,1200,823,1,1199,nourish,11136,2019-10-22_09h37.24.233,SurveyExpMetaMem,3.2.3,MacIntel,60
,,,,,,,,,,,,,,,,,,,,5,1.18200016,5,0.210000038,1,0,1200,821,1,1199,cottage,11136,2019-10-22_09h37.24.233,SurveyExpMetaMem,3.2.3,MacIntel,60
,,,,,,,,,,,,,,,,,,,,5,3.515000105,5,0.246999979,1,0,1200,1165,1,1199,revolt,11136,2019-10-22_09h37.24.233,SurveyExpMetaMem,3.2.3,MacIntel,60
,,,,,,,,,,,,,,,,,,,,5,0.991000175,5,0.209000111,1,0,1200,551,1,1199,coal,11136,2019-10-22_09h37.24.233,SurveyExpMetaMem,3.2.3,MacIntel,60
,,,,,,,,,,,,,,,,,,,,5,0.924000263,5,0.210000038,1,0,1200,713,1,1199,mobile,11136,2019-10-22_09h37.24.233,SurveyExpMetaMem,3.2.3,MacIntel,60
,,,,,,,,,,,,,,,,,,,,8,2.781000137,5,0.443000078,1,0,1200,1183,1,1199,emotional,11136,2019-10-22_09h37.24.233,SurveyExpMetaMem,3.2.3,MacIntel,60
,,,,,,,,,,,,,,,,,,,,6,3.859000206,7,1.661999941,1,0,1200,273,1,1199,worthwhile,11136,2019-10-22_09h37.24.233,SurveyExpMetaMem,3.2.3,MacIntel,60
,,,,,,,,,,,,,,,,,,,,6,6.542000055,6,0.184999943,1,0,1200,858,1,1199,donate,11136,2019-10-22_09h37.24.233,SurveyExpMetaMem,3.2.3,MacIntel,60
,,,,,,,,,,,,,,,,,,,,5,0.993000269,5,0.29399991,1,0,1200,501,1,1199,dustpan,11136,2019-10-22_09h37.24.233,SurveyExpMetaMem,3.2.3,MacIntel,60
,,,,,,,,,,,,,,,,,,,,5,0.773999929,5,0.227000237,1,0,1200,760,1,1199,shrimp,11136,2019-10-22_09h37.24.233,SurveyExpMetaMem,3.2.3,MacIntel,60
,,,,,,,,,,,,,,,,,,,,7,2.378000259,7,0.259000063,1,0,1200,234,1,1199,redeem,11136,2019-10-22_09h37.24.233,SurveyExpMetaMem,3.2.3,MacIntel,60
,,,,,,,,,,,,,,,,,,,,5,1.191000223,6,0.593000174,1,0,1200,276,1,1199,pastry,11136,2019-10-22_09h37.24.233,SurveyExpMetaMem,3.2.3,MacIntel,60
,,,,,,,,,,,,,,,,,,,,5,4.728000164,5,0.167000055,1,0,1200,413,1,1199,deficient,11136,2019-10-22_09h37.24.233,SurveyExpMetaMem,3.2.3,MacIntel,60
,,,,,,,,,,,,,,,,,,,,6,1.825000048,4,0.417000055,1,0,1200,411,1,1199,bitter,11136,2019-10-22_09h37.24.233,SurveyExpMetaMem,3.2.3,MacIntel,60
,,,,,,,,,,,,,,,,,,,,5,0.892000198,5,0.428000212,1,0,1200,257,1,1199,cockpit,11136,2019-10-22_09h37.24.233,SurveyExpMetaMem,3.2.3,MacIntel,60
,,,,,,,,,,,,,,,,,,,,7,1.728000164,3,0.463999987,1,0,1200,979,1,1199,harassment,11136,2019-10-22_09h37.24.233,SurveyExpMetaMem,3.2.3,MacIntel,60
,,,,,,,,,,,,,,,,,,,,6,3.414000034,6,0.193000078,1,0,1200,224,1,1199,strengthen,11136,2019-10-22_09h37.24.233,SurveyExpMetaMem,3.2.3,MacIntel,60
,,,,,,,,,,,,,,,,,,,,5,3.808000088,5,0.197999954,1,0,1200,756,1,1199,plant,11136,2019-10-22_09h37.24.233,SurveyExpMetaMem,3.2.3,MacIntel,60
,,,,,,,,,,,,,,,,,,,,7,7.55700016,6,0.192000151,1,0,1200,166,1,1199,unite,11136,2019-10-22_09h37.24.233,SurveyExpMetaMem,3.2.3,MacIntel,60
,,,,,,,,,,,,,,,,,,,,6,2.289999962,4,0.342000246,1,0,1200,1071,1,1199,uncomfortable,11136,2019-10-22_09h37.24.233,SurveyExpMetaMem,3.2.3,MacIntel,60
,,,,,,,,,,,,,,,,,,,,5,1.125999928,5,0.176000118,1,0,1200,513,1,1199,bland,11136,2019-10-22_09h37.24.233,SurveyExpMetaMem,3.2.3,MacIntel,60
,,,,,,,,,,,,,,,,,,,,6,1.625,6,0.143000126,1,0,1200,169,1,1199,aid,11136,2019-10-22_09h37.24.233,SurveyExpMetaMem,3.2.3,MacIntel,60
,,,,,,,,,,,,,,,,,,,,5,1.674000025,5,0.191000223,1,0,1200,697,1,1199,clarinet,11136,2019-10-22_09h37.24.233,SurveyExpMetaMem,3.2.3,MacIntel,60
,,,,,,,,,,,,,,,,,,,,4,2.258000135,5,1.542999983,1,0,1200,506,1,1199,lower,11136,2019-10-22_09h37.24.233,SurveyExpMetaMem,3.2.3,MacIntel,60
,,,,,,,,,,,,,,,,,,,,6,2.198000193,6,4.75,1,0,1200,103,1,1199,conquest,11136,2019-10-22_09h37.24.233,SurveyExpMetaMem,3.2.3,MacIntel,60
,,,,,,,,,,,,,,,,,,,,5,3.846000195,4,0.411000013,1,0,1200,360,1,1199,dandruff,11136,2019-10-22_09h37.24.233,SurveyExpMetaMem,3.2.3,MacIntel,60
,,,,,,,,,,,,,,,,,,,,7,2.407999992,7,0.279999971,1,0,1200,185,1,1199,flirt,11136,2019-10-22_09h37.24.233,SurveyExpMetaMem,3.2.3,MacIntel,60
,,,,,,,,,,,,,,,,,,,,6,9.509000063,4,0.391000032,1,0,1200,510,1,1199,excuse,11136,2019-10-22_09h37.24.233,SurveyExpMetaMem,3.2.3,MacIntel,60
,,,,,,,,,,,,,,,,,,,,7,1.661000013,3,0.445000172,1,0,1200,1016,1,1199,awful,11136,2019-10-22_09h37.24.233,SurveyExpMetaMem,3.2.3,MacIntel,60
,,,,,,,,,,,,,,,,,,,,5,1.84100008,5,0.192000151,1,0,1200,484,1,1199,leave,11136,2019-10-22_09h37.24.233,SurveyExpMetaMem,3.2.3,MacIntel,60
,,,,,,,,,,,,,,,,,,,,5,1.262000084,5,0.23300004,1,0,1200,866,1,1199,haven,11136,2019-10-22_09h37.24.233,SurveyExpMetaMem,3.2.3,MacIntel,60
,,,,,,,,,,,,,,,,,,,,5,1.828000307,5,0.160000086,1,0,1200,519,1,1199,listless,11136,2019-10-22_09h37.24.233,SurveyExpMetaMem,3.2.3,MacIntel,60
,,,,,,,,,,,,,,,,,,,,7,1.890000105,4,1.023000002,1,0,1200,902,1,1199,rejected,11136,2019-10-22_09h37.24.233,SurveyExpMetaMem,3.2.3,MacIntel,60
,,,,,,,,,,,,,,,,,,,,5,4.894000053,5,0.177000046,1,0,1200,838,1,1199,nestle,11136,2019-10-22_09h37.24.233,SurveyExpMetaMem,3.2.3,MacIntel,60
,,,,,,,,,,,,,,,,,,,,5,1.433000088,5,0.207999945,1,0,1200,436,1,1199,mediocre,11136,2019-10-22_09h37.24.233,SurveyExpMetaMem,3.2.3,MacIntel,60
,,,,,,,,,,,,,,,,,,,,3,5.295000076,4,1.881999969,1,0,1200,438,1,1199,dull,11136,2019-10-22_09h37.24.233,SurveyExpMetaMem,3.2.3,MacIntel,60
,,,,,,,,,,,,,,,,,,,,6,5.593000174,4,1.034000158,1,0,1200,1118,1,1199,frantic,11136,2019-10-22_09h37.24.233,SurveyExpMetaMem,3.2.3,MacIntel,60
,,,,,,,,,,,,,,,,,,,,5,2.710999966,5,0.258000135,1,0,1200,228,1,1199,suite,11136,2019-10-22_09h37.24.233,SurveyExpMetaMem,3.2.3,MacIntel,60
,,,,,,,,,,,,,,,,,,,,6,1.482000113,4,0.330000162,1,0,1200,1004,1,1199,burglar,11136,2019-10-22_09h37.24.233,SurveyExpMetaMem,3.2.3,MacIntel,60
,,,,,,,,,,,,,,,,,,,,7,2.007000208,3,1.143000126,1,0,1200,975,1,1199,insecure,11136,2019-10-22_09h37.24.233,SurveyExpMetaMem,3.2.3,MacIntel,60
,,,,,,,,,,,,,,,,,,,,5,1.099000216,5,0.209000111,1,0,1200,755,1,1199,soap,11136,2019-10-22_09h37.24.233,SurveyExpMetaMem,3.2.3,MacIntel,60
,,,,,,,,,,,,,,,,,,,,6,1.52699995,4,1.058000088,1,0,1200,374,1,1199,sluggish,11136,2019-10-22_09h37.24.233,SurveyExpMetaMem,3.2.3,MacIntel,60
,,,,,,,,,,,,,,,,,,,,6,4.778000116,6,0.194999933,1,0,1200,188,1,1199,profit,11136,2019-10-22_09h37.24.233,SurveyExpMetaMem,3.2.3,MacIntel,60
,,,,,,,,,,,,,,,,,,,,6,6.815999985,5,0.209000111,1,0,1200,268,1,1199,tickle,11136,2019-10-22_09h37.24.233,SurveyExpMetaMem,3.2.3,MacIntel,60
,,,,,,,,,,,,,,,,,,,,5,4.059000015,5,0.144000053,1,0,1200,532,1,1199,recede,11136,2019-10-22_09h37.24.233,SurveyExpMetaMem,3.2.3,MacIntel,60
,,,,,,,,,,,,,,,,,,,,4,5.361000061,4,2.610000134,1,0,1200,559,1,1199,lazy,11136,2019-10-22_09h37.24.233,SurveyExpMetaMem,3.2.3,MacIntel,60
,,,,,,,,,,,,,,,,,,,,6,2.676000118,4,0.259000063,1,0,1200,357,1,1199,whine,11136,2019-10-22_09h37.24.233,SurveyExpMetaMem,3.2.3,MacIntel,60
,,,,,,,,,,,,,,,,,,,,5,4.262000084,5,1.078999996,1,0,1200,200,1,1199,preach,11136,2019-10-22_09h37.24.233,SurveyExpMetaMem,3.2.3,MacIntel,60
,,,,,,,,,,,,,,,,,,,,5,1.357000113,5,0.20600009,1,0,1200,65,1,1199,restaurant,11136,2019-10-22_09h37.24.233,SurveyExpMetaMem,3.2.3,MacIntel,60
,,,,,,,,,,,,,,,,,,,,5,1.282000065,5,0.25999999,1,0,1200,1144,1,1199,yelp,11136,2019-10-22_09h37.24.233,SurveyExpMetaMem,3.2.3,MacIntel,60
,,,,,,,,,,,,,,,,,,,,4,3.427000046,4,1.21600008,1,0,1200,386,1,1199,pale,11136,2019-10-22_09h37.24.233,SurveyExpMetaMem,3.2.3,MacIntel,60
,,,,,,,,,,,,,,,,,,,,7,2.491000175,3,1.526000023,1,0,1200,505,1,1199,exhaust,11136,2019-10-22_09h37.24.233,SurveyExpMetaMem,3.2.3,MacIntel,60
,,,,,,,,,,,,,,,,,,,,7,2.128000021,7,0.177000284,1,0,1200,240,1,1199,giggles,11136,2019-10-22_09h37.24.233,SurveyExpMetaMem,3.2.3,MacIntel,60
,,,,,,,,,,,,,,,,,,,,6,1.644999981,6,0.18900013,1,0,1200,868,1,1199,grace,11136,2019-10-22_09h37.24.233,SurveyExpMetaMem,3.2.3,MacIntel,60
,,,,,,,,,,,,,,,,,,,,5,8.628000021,6,0.582000017,1,0,1200,829,1,1199,innocent,11136,2019-10-22_09h37.24.233,SurveyExpMetaMem,3.2.3,MacIntel,60
,,,,,,,,,,,,,,,,,,,,5,2.674000025,5,0.194999933,1,0,1200,471,1,1199,chump,11136,2019-10-22_09h37.24.233,SurveyExpMetaMem,3.2.3,MacIntel,60
,,,,,,,,,,,,,,,,,,,,8,1.93900013,3,1.946000099,1,0,1200,1029,1,1199,abduction,11136,2019-10-22_09h37.24.233,SurveyExpMetaMem,3.2.3,MacIntel,60
,,,,,,,,,,,,,,,,,,,,6,6.194999933,4,0.325000048,1,0,1200,1084,1,1199,uneasy,11136,2019-10-22_09h37.24.233,SurveyExpMetaMem,3.2.3,MacIntel,60
,,,,,,,,,,,,,,,,,,,,6,1.907000065,4,0.322000265,1,0,1200,957,1,1199,debt,11136,2019-10-22_09h37.24.233,SurveyExpMetaMem,3.2.3,MacIntel,60
,,,,,,,,,,,,,,,,,,,,5,2.626000166,6,0.226999998,1,0,1200,643,1,1199,library,11136,2019-10-22_09h37.24.233,SurveyExpMetaMem,3.2.3,MacIntel,60
,,,,,,,,,,,,,,,,,,,,7,7.045000076,7,0.193000078,1,0,1200,247,1,1199,graduate,11136,2019-10-22_09h37.24.233,SurveyExpMetaMem,3.2.3,MacIntel,60
,,,,,,,,,,,,,,,,,,,,5,3.626000166,5,0.782000065,1,0,1200,50,1,1199,bolt,11136,2019-10-22_09h37.24.233,SurveyExpMetaMem,3.2.3,MacIntel,60
,,,,,,,,,,,,,,,,,,,,5,1.008000135,5,0.298000097,1,0,1200,700,1,1199,frog,11136,2019-10-22_09h37.24.233,SurveyExpMetaMem,3.2.3,MacIntel,60
,,,,,,,,,,,,,,,,,,,,5,0.828000307,5,0.308000088,1,0,1200,623,1,1199,suburban,11136,2019-10-22_09h37.24.233,SurveyExpMetaMem,3.2.3,MacIntel,60
,,,,,,,,,,,,,,,,,,,,5,0.627000093,5,0.243000031,1,0,1200,758,1,1199,camera,11136,2019-10-22_09h37.24.233,SurveyExpMetaMem,3.2.3,MacIntel,60
,,,,,,,,,,,,,,,,,,,,6,2.522000074,7,0.285000086,1,0,1200,94,1,1199,engaged,11136,2019-10-22_09h37.24.233,SurveyExpMetaMem,3.2.3,MacIntel,60
,,,,,,,,,,,,,,,,,,,,6,3.413000107,4,0.27699995,1,0,1200,329,1,1199,worse,11136,2019-10-22_09h37.24.233,SurveyExpMetaMem,3.2.3,MacIntel,60
,,,,,,,,,,,,,,,,,,,,5,0.989000082,5,0.333000183,1,0,1200,728,1,1199,patio,11136,2019-10-22_09h37.24.233,SurveyExpMetaMem,3.2.3,MacIntel,60
,,,,,,,,,,,,,,,,,,,,5,0.671999931,5,0.265000105,1,0,1200,689,1,1199,land,11136,2019-10-22_09h37.24.233,SurveyExpMetaMem,3.2.3,MacIntel,60
,,,,,,,,,,,,,,,,,,,,5,2.648000002,4,0.409000158,1,0,1200,320,1,1199,deformed,11136,2019-10-22_09h37.24.233,SurveyExpMetaMem,3.2.3,MacIntel,60
,,,,,,,,,,,,,,,,,,,,5,1.143000126,5,0.227000237,1,0,1200,736,1,1199,hawk,11136,2019-10-22_09h37.24.233,SurveyExpMetaMem,3.2.3,MacIntel,60
,,,,,,,,,,,,,,,,,,,,5,0.745000124,5,0.242000103,1,0,1200,737,1,1199,lamb,11136,2019-10-22_09h37.24.233,SurveyExpMetaMem,3.2.3,MacIntel,60
,,,,,,,,,,,,,,,,,,,,6,4.425000191,4,2.210000277,1,0,1200,252,1,1199,infatuated,11136,2019-10-22_09h37.24.233,SurveyExpMetaMem,3.2.3,MacIntel,60
,,,,,,,,,,,,,,,,,,,,7,5.144000053,7,0.150000095,1,0,1200,286,1,1199,superstar,11136,2019-10-22_09h37.24.233,SurveyExpMetaMem,3.2.3,MacIntel,60
,,,,,,,,,,,,,,,,,,,,5,2.493999958,5,0.226000071,1,0,1200,1163,1,1199,python,11136,2019-10-22_09h37.24.233,SurveyExpMetaMem,3.2.3,MacIntel,60
,,,,,,,,,,,,,,,,,,,,5,6.673000097,4,1.079999924,1,0,1200,459,1,1199,heavy,11136,2019-10-22_09h37.24.233,SurveyExpMetaMem,3.2.3,MacIntel,60
,,,,,,,,,,,,,,,,,,,,5,0.914999962,5,0.23300004,1,0,1200,616,1,1199,coat,11136,2019-10-22_09h37.24.233,SurveyExpMetaMem,3.2.3,MacIntel,60
,,,,,,,,,,,,,,,,,,,,7,2.440000057,3,0.825000048,1,0,1200,997,1,1199,injury,11136,2019-10-22_09h37.24.233,SurveyExpMetaMem,3.2.3,MacIntel,60
,,,,,,,,,,,,,,,,,,,,5,1.127000093,5,0.212000132,1,0,1200,622,1,1199,revere,11136,2019-10-22_09h37.24.233,SurveyExpMetaMem,3.2.3,MacIntel,60
,,,,,,,,,,,,,,,,,,,,5,1.192000151,5,0.214999914,1,0,1200,425,1,1199,crutch,11136,2019-10-22_09h37.24.233,SurveyExpMetaMem,3.2.3,MacIntel,60
,,,,,,,,,,,,,,,,,,,,5,3.022000074,6,0.225000143,1,0,1200,705,1,1199,tolerant,11136,2019-10-22_09h37.24.233,SurveyExpMetaMem,3.2.3,MacIntel,60
,,,,,,,,,,,,,,,,,,,,6,1.991000175,4,0.812000275,1,0,1200,1083,1,1199,delayed,11136,2019-10-22_09h37.24.233,SurveyExpMetaMem,3.2.3,MacIntel,60
,,,,,,,,,,,,,,,,,,,,6,3.965000153,4,0.427999973,1,0,1200,1159,1,1199,rifle,11136,2019-10-22_09h37.24.233,SurveyExpMetaMem,3.2.3,MacIntel,60
,,,,,,,,,,,,,,,,,,,,5,5.810000181,5,0.160000086,1,0,1200,1195,1,1199,speech,11136,2019-10-22_09h37.24.233,SurveyExpMetaMem,3.2.3,MacIntel,60
,,,,,,,,,,,,,,,,,,,,5,1.180999994,5,0.201999903,1,0,1200,687,1,1199,skinny,11136,2019-10-22_09h37.24.233,SurveyExpMetaMem,3.2.3,MacIntel,60
,,,,,,,,,,,,,,,,,,,,7,1.974000216,3,2.782000065,1,0,1200,955,1,1199,drown,11136,2019-10-22_09h37.24.233,SurveyExpMetaMem,3.2.3,MacIntel,60
,,,,,,,,,,,,,,,,,,,,5,6.464999914,5,0.196000099,1,0,1200,677,1,1199,handwriting,11136,2019-10-22_09h37.24.233,SurveyExpMetaMem,3.2.3,MacIntel,60
,,,,,,,,,,,,,,,,,,,,6,1.694000244,4,0.447999954,1,0,1200,1157,1,1199,slayer,11136,2019-10-22_09h37.24.233,SurveyExpMetaMem,3.2.3,MacIntel,60
,,,,,,,,,,,,,,,,,,,,5,1.291000128,5,0.193000078,1,0,1200,709,1,1199,ancestor,11136,2019-10-22_09h37.24.233,SurveyExpMetaMem,3.2.3,MacIntel,60
,,,,,,,,,,,,,,,,,,,,5,0.858999968,5,0.246999979,1,0,1200,370,1,1199,rodent,11136,2019-10-22_09h37.24.233,SurveyExpMetaMem,3.2.3,MacIntel,60
,,,,,,,,,,,,,,,,,,,,5,2.220999956,6,0.306000233,1,0,1200,824,1,1199,favor,11136,2019-10-22_09h37.24.233,SurveyExpMetaMem,3.2.3,MacIntel,60
,,,,,,,,,,,,,,,,,,,,7,2.627000093,5,2.244000196,1,0,1200,17,1,1199,outgoing,11136,2019-10-22_09h37.24.233,SurveyExpMetaMem,3.2.3,MacIntel,60
,,,,,,,,,,,,,,,,,,,,5,1.575000048,5,0.226000071,1,0,1200,393,1,1199,droop,11136,2019-10-22_09h37.24.233,SurveyExpMetaMem,3.2.3,MacIntel,60
,,,,,,,,,,,,,,,,,,,,6,1.674000263,4,0.31400013,1,0,1200,996,1,1199,sting,11136,2019-10-22_09h37.24.233,SurveyExpMetaMem,3.2.3,MacIntel,60
,,,,,,,,,,,,,,,,,,,,5,0.99000001,5,0.196000099,1,0,1200,349,1,1199,mope,11136,2019-10-22_09h37.24.233,SurveyExpMetaMem,3.2.3,MacIntel,60
,,,,,,,,,,,,,,,,,,,,7,1.477000237,4,2.230000257,1,0,1200,1078,1,1199,trouble,11136,2019-10-22_09h37.24.233,SurveyExpMetaMem,3.2.3,MacIntel,60
,,,,,,,,,,,,,,,,,,,,5,5.59100008,5,0.183000088,1,0,1200,612,1,1199,propeller,11136,2019-10-22_09h37.24.233,SurveyExpMetaMem,3.2.3,MacIntel,60
,,,,,,,,,,,,,,,,,,,,8,7.792000055,1,0.628000259,1,0,1200,901,1,1199,rape,11136,2019-10-22_09h37.24.233,SurveyExpMetaMem,3.2.3,MacIntel,60
,,,,,,,,,,,,,,,,,,,,5,3.2900002,5,0.177999973,1,0,1200,552,1,1199,shadow,11136,2019-10-22_09h37.24.233,SurveyExpMetaMem,3.2.3,MacIntel,60
,,,,,,,,,,,,,,,,,,,,6,1.677999973,4,0.443000078,1,0,1200,431,1,1199,itch,11136,2019-10-22_09h37.24.233,SurveyExpMetaMem,3.2.3,MacIntel,60
,,,,,,,,,,,,,,,,,,,,5,2.298000097,5,0.222000122,1,0,1200,46,1,1199,god,11136,2019-10-22_09h37.24.233,SurveyExpMetaMem,3.2.3,MacIntel,60
,,,,,,,,,,,,,,,,,,,,6,4.130000114,4,0.31099987,1,0,1200,1006,1,1199,rash,11136,2019-10-22_09h37.24.233,SurveyExpMetaMem,3.2.3,MacIntel,60
,,,,,,,,,,,,,,,,,,,,4,2.179000139,5,1.628000021,1,0,1200,568,1,1199,therapy,11136,2019-10-22_09h37.24.233,SurveyExpMetaMem,3.2.3,MacIntel,60
,,,,,,,,,,,,,,,,,,,,6,3.339999914,7,0.225000143,1,0,1200,93,1,1199,smiling,11136,2019-10-22_09h37.24.233,SurveyExpMetaMem,3.2.3,MacIntel,60
,,,,,,,,,,,,,,,,,,,,4,2.240999937,4,1.024000168,1,0,1200,385,1,1199,tiresome,11136,2019-10-22_09h37.24.233,SurveyExpMetaMem,3.2.3,MacIntel,60
,,,,,,,,,,,,,,,,,,,,5,4.07400012,6,0.292000055,1,0,1200,860,1,1199,silk,11136,2019-10-22_09h37.24.233,SurveyExpMetaMem,3.2.3,MacIntel,60
,,,,,,,,,,,,,,,,,,,,5,1.396000147,5,0.674000263,1,0,1200,702,1,1199,den,11136,2019-10-22_09h37.24.233,SurveyExpMetaMem,3.2.3,MacIntel,60
,,,,,,,,,,,,,,,,,,,,6,3.333000183,6,3.31400013,1,0,1200,269,1,1199,extravagant,11136,2019-10-22_09h37.24.233,SurveyExpMetaMem,3.2.3,MacIntel,60
,,,,,,,,,,,,,,,,,,,,5,1.974000216,5,0.217000246,1,0,1200,555,1,1199,school,11136,2019-10-22_09h37.24.233,SurveyExpMetaMem,3.2.3,MacIntel,60
,,,,,,,,,,,,,,,,,,,,5,2.626000166,5,0.210000038,1,0,1200,479,1,1199,period,11136,2019-10-22_09h37.24.233,SurveyExpMetaMem,3.2.3,MacIntel,60
,,,,,,,,,,,,,,,,,,,,7,4.726999998,7,0.531000137,1,0,1200,180,1,1199,embrace,11136,2019-10-22_09h37.24.233,SurveyExpMetaMem,3.2.3,MacIntel,60
,,,,,,,,,,,,,,,,,,,,8,2.492000103,3,6.243000031,1,0,1200,954,1,1199,hostage,11136,2019-10-22_09h37.24.233,SurveyExpMetaMem,3.2.3,MacIntel,60
,,,,,,,,,,,,,,,,,,,,5,2.911000013,5,0.176000118,1,0,1200,722,1,1199,consoled,11136,2019-10-22_09h37.24.233,SurveyExpMetaMem,3.2.3,MacIntel,60
,,,,,,,,,,,,,,,,,,,,7,2.726999998,2,3.810000181,1,0,1200,1090,1,1199,destruction,11136,2019-10-22_09h37.24.233,SurveyExpMetaMem,3.2.3,MacIntel,60
,,,,,,,,,,,,,,,,,,,,5,1.258000135,5,0.226000071,1,0,1200,525,1,1199,stagnant,11136,2019-10-22_09h37.24.233,SurveyExpMetaMem,3.2.3,MacIntel,60
,,,,,,,,,,,,,,,,,,,,8,5.321000099,8,0.212000132,1,0,1200,194,1,1199,celebration,11136,2019-10-22_09h37.24.233,SurveyExpMetaMem,3.2.3,MacIntel,60
,,,,,,,,,,,,,,,,,,,,5,4.993000269,5,0.190999985,1,0,1200,641,1,1199,writer,11136,2019-10-22_09h37.24.233,SurveyExpMetaMem,3.2.3,MacIntel,60
,,,,,,,,,,,,,,,,,,,,5,5.452000141,6,1.806999922,1,0,1200,786,1,1199,afternoon,11136,2019-10-22_09h37.24.233,SurveyExpMetaMem,3.2.3,MacIntel,60
,,,,,,,,,,,,,,,,,,,,6,1.674000263,6,0.210000038,1,0,1200,192,1,1199,pleased,11136,2019-10-22_09h37.24.233,SurveyExpMetaMem,3.2.3,MacIntel,60
,,,,,,,,,,,,,,,,,,,,6,2.041000128,4,0.262000084,1,0,1200,485,1,1199,pinch,11136,2019-10-22_09h37.24.233,SurveyExpMetaMem,3.2.3,MacIntel,60
,,,,,,,,,,,,,,,,,,,,5,1.71600008,4,0.243000269,1,0,1200,395,1,1199,lack,11136,2019-10-22_09h37.24.233,SurveyExpMetaMem,3.2.3,MacIntel,60
,,,,,,,,,,,,,,,,,,,,5,0.973999977,5,0.197000027,1,0,1200,1085,1,1199,sever,11136,2019-10-22_09h37.24.233,SurveyExpMetaMem,3.2.3,MacIntel,60
,,,,,,,,,,,,,,,,,,,,5,0.992000103,5,0.225000143,1,0,1200,161,1,1199,limousine,11136,2019-10-22_09h37.24.233,SurveyExpMetaMem,3.2.3,MacIntel,60
,,,,,,,,,,,,,,,,,,,,5,1.13800025,5,0.209000111,1,0,1200,807,1,1199,person,11136,2019-10-22_09h37.24.233,SurveyExpMetaMem,3.2.3,MacIntel,60
,,,,,,,,,,,,,,,,,,,,6,3.531000137,4,0.668000221,1,0,1200,1132,1,1199,anarchy,11136,2019-10-22_09h37.24.233,SurveyExpMetaMem,3.2.3,MacIntel,60
,,,,,,,,,,,,,,,,,,,,5,0.978000164,5,0.213999987,1,0,1200,66,1,1199,zest,11136,2019-10-22_09h37.24.233,SurveyExpMetaMem,3.2.3,MacIntel,60
,,,,,,,,,,,,,,,,,,,,7,2.565999985,8,0.300000191,1,0,1200,48,1,1199,excellence,11136,2019-10-22_09h37.24.233,SurveyExpMetaMem,3.2.3,MacIntel,60
,,,,,,,,,,,,,,,,,,,,5,1.509000063,5,0.160000086,1,0,1200,685,1,1199,makeup,11136,2019-10-22_09h37.24.233,SurveyExpMetaMem,3.2.3,MacIntel,60
,,,,,,,,,,,,,,,,,,,,8,4.89199996,3,3.494000196,1,0,1200,1031,1,1199,fear,11136,2019-10-22_09h37.24.233,SurveyExpMetaMem,3.2.3,MacIntel,60
,,,,,,,,,,,,,,,,,,,,5,1.56400013,5,0.226999998,1,0,1200,764,1,1199,coin,11136,2019-10-22_09h37.24.233,SurveyExpMetaMem,3.2.3,MacIntel,60
,,,,,,,,,,,,,,,,,,,,6,9.692000151,7,0.196000099,1,0,1200,36,1,1199,puppy,11136,2019-10-22_09h37.24.233,SurveyExpMetaMem,3.2.3,MacIntel,60
,,,,,,,,,,,,,,,,,,,,6,1.858999968,4,0.475000143,1,0,1200,670,1,1199,urinate,11136,2019-10-22_09h37.24.233,SurveyExpMetaMem,3.2.3,MacIntel,60
,,,,,,,,,,,,,,,,,,,,5,3.390000105,5,0.181999922,1,0,1200,1155,1,1199,tangle,11136,2019-10-22_09h37.24.233,SurveyExpMetaMem,3.2.3,MacIntel,60
,,,,,,,,,,,,,,,,,,,,5,1.496999979,5,0.190000057,1,0,1200,527,1,1199,passive,11136,2019-10-22_09h37.24.233,SurveyExpMetaMem,3.2.3,MacIntel,60
,,,,,,,,,,,,,,,,,,,,5,1.207000017,5,0.193000078,1,0,1200,657,1,1199,peanut,11136,2019-10-22_09h37.24.233,SurveyExpMetaMem,3.2.3,MacIntel,60
,,,,,,,,,,,,,,,,,,,,5,0.796000004,5,0.211000204,1,0,1200,739,1,1199,seagull,11136,2019-10-22_09h37.24.233,SurveyExpMetaMem,3.2.3,MacIntel,60
,,,,,,,,,,,,,,,,,,,,6,2.414000034,4,0.49000001,1,0,1200,1147,1,1199,demand,11136,2019-10-22_09h37.24.233,SurveyExpMetaMem,3.2.3,MacIntel,60
,,,,,,,,,,,,,,,,,,,,6,1.144000053,4,0.277000189,1,0,1200,1106,1,1199,pushy,11136,2019-10-22_09h37.24.233,SurveyExpMetaMem,3.2.3,MacIntel,60
,,,,,,,,,,,,,,,,,,,,6,2.710000038,7,0.243999958,1,0,1200,828,1,1199,cooperative,11136,2019-10-22_09h37.24.233,SurveyExpMetaMem,3.2.3,MacIntel,60
,,,,,,,,,,,,,,,,,,,,6,1.290999889,7,0.246000051,1,0,1200,862,1,1199,ease,11136,2019-10-22_09h37.24.233,SurveyExpMetaMem,3.2.3,MacIntel,60
,,,,,,,,,,,,,,,,,,,,6,2.175000191,4,0.492000103,1,0,1200,1082,1,1199,hazard,11136,2019-10-22_09h37.24.233,SurveyExpMetaMem,3.2.3,MacIntel,60
,,,,,,,,,,,,,,,,,,,,5,3.442000151,5,0.193000078,1,0,1200,38,1,1199,cheeseburger,11136,2019-10-22_09h37.24.233,SurveyExpMetaMem,3.2.3,MacIntel,60
,,,,,,,,,,,,,,,,,,,,6,6.607000113,6,0.19900012,1,0,1200,39,1,1199,birth,11136,2019-10-22_09h37.24.233,SurveyExpMetaMem,3.2.3,MacIntel,60
,,,,,,,,,,,,,,,,,,,,5,1.475000143,5,0.160000086,1,0,1200,1124,1,1199,seize,11136,2019-10-22_09h37.24.233,SurveyExpMetaMem,3.2.3,MacIntel,60
,,,,,,,,,,,,,,,,,,,,5,4.390000105,4,0.210999966,1,0,1200,354,1,1199,cowardice,11136,2019-10-22_09h37.24.233,SurveyExpMetaMem,3.2.3,MacIntel,60
,,,,,,,,,,,,,,,,,,,,5,1.272000074,5,0.192000151,1,0,1200,663,1,1199,trout,11136,2019-10-22_09h37.24.233,SurveyExpMetaMem,3.2.3,MacIntel,60
,,,,,,,,,,,,,,,,,,,,6,1.876000166,4,0.360000134,1,0,1200,1094,1,1199,disruptive,11136,2019-10-22_09h37.24.233,SurveyExpMetaMem,3.2.3,MacIntel,60
,,,,,,,,,,,,,,,,,,,,7,4.27699995,4,2.57400012,1,0,1200,924,1,1199,terrible,11136,2019-10-22_09h37.24.233,SurveyExpMetaMem,3.2.3,MacIntel,60
,,,,,,,,,,,,,,,,,,,,6,6.709000111,4,0.425000191,1,0,1200,1113,1,1199,dagger,11136,2019-10-22_09h37.24.233,SurveyExpMetaMem,3.2.3,MacIntel,60
,,,,,,,,,,,,,,,,,,,,7,4.226999998,8,0.23300004,1,0,1200,90,1,1199,satisfaction,11136,2019-10-22_09h37.24.233,SurveyExpMetaMem,3.2.3,MacIntel,60
,,,,,,,,,,,,,,,,,,,,7,5.558000088,2,1.577000141,1,0,1200,900,1,1199,suicide,11136,2019-10-22_09h37.24.233,SurveyExpMetaMem,3.2.3,MacIntel,60
,,,,,,,,,,,,,,,,,,,,8,7.1650002,9,1.078000069,1,0,1200,178,1,1199,alive,11136,2019-10-22_09h37.24.233,SurveyExpMetaMem,3.2.3,MacIntel,60
,,,,,,,,,,,,,,,,,,,,7,5.347000122,3,2.111000061,1,0,1200,1005,1,1199,pissed,11136,2019-10-22_09h37.24.233,SurveyExpMetaMem,3.2.3,MacIntel,60
,,,,,,,,,,,,,,,,,,,,7,3.025000095,4,1.713999987,1,0,1200,970,1,1199,worry,11136,2019-10-22_09h37.24.233,SurveyExpMetaMem,3.2.3,MacIntel,60
,,,,,,,,,,,,,,,,,,,,7,5.827000141,7,0.173000097,1,0,1200,272,1,1199,confidence,11136,2019-10-22_09h37.24.233,SurveyExpMetaMem,3.2.3,MacIntel,60
,,,,,,,,,,,,,,,,,,,,6,2.157000065,6,0.131999969,1,0,1200,85,1,1199,like,11136,2019-10-22_09h37.24.233,SurveyExpMetaMem,3.2.3,MacIntel,60
,,,,,,,,,,,,,,,,,,,,6,2.83100009,4,0.330000162,1,0,1200,384,1,1199,idiot,11136,2019-10-22_09h37.24.233,SurveyExpMetaMem,3.2.3,MacIntel,60
,,,,,,,,,,,,,,,,,,,,5,1.74000001,5,0.194000006,1,0,1200,114,1,1199,raise,11136,2019-10-22_09h37.24.233,SurveyExpMetaMem,3.2.3,MacIntel,60
,,,,,,,,,,,,,,,,,,,,6,1.357000113,4,0.276000023,1,0,1200,1019,1,1199,fraud,11136,2019-10-22_09h37.24.233,SurveyExpMetaMem,3.2.3,MacIntel,60
,,,,,,,,,,,,,,,,,,,,5,1.258000135,5,0.351000071,1,0,1200,461,1,1199,ail,11136,2019-10-22_09h37.24.233,SurveyExpMetaMem,3.2.3,MacIntel,60
,,,,,,,,,,,,,,,,,,,,5,0.943000078,5,0.213000059,1,0,1200,1145,1,1199,officer,11136,2019-10-22_09h37.24.233,SurveyExpMetaMem,3.2.3,MacIntel,60
,,,,,,,,,,,,,,,,,,,,6,1.713999987,4,0.349000216,1,0,1200,919,1,1199,loss,11136,2019-10-22_09h37.24.233,SurveyExpMetaMem,3.2.3,MacIntel,60
,,,,,,,,,,,,,,,,,,,,6,2.659000158,4,0.316999912,1,0,1200,330,1,1199,sunburn,11136,2019-10-22_09h37.24.233,SurveyExpMetaMem,3.2.3,MacIntel,60
,,,,,,,,,,,,,,,,,,,,6,0.997000217,4,0.279000282,1,0,1200,1059,1,1199,harsh,11136,2019-10-22_09h37.24.233,SurveyExpMetaMem,3.2.3,MacIntel,60
,,,,,,,,,,,,,,,,,,,,6,1.474999905,3,0.605000257,1,0,1200,309,1,1199,homeless,11136,2019-10-22_09h37.24.233,SurveyExpMetaMem,3.2.3,MacIntel,60
,,,,,,,,,,,,,,,,,,,,7,10.84200001,7,0.745000124,1,0,1200,294,1,1199,confident,11136,2019-10-22_09h37.24.233,SurveyExpMetaMem,3.2.3,MacIntel,60
,,,,,,,,,,,,,,,,,,,,6,4.707999945,6,0.125999928,1,0,1200,784,1,1199,logical,11136,2019-10-22_09h37.24.233,SurveyExpMetaMem,3.2.3,MacIntel,60
,,,,,,,,,,,,,,,,,,,,6,1.64800024,7,0.191000223,1,0,1200,284,1,1199,delight,11136,2019-10-22_09h37.24.233,SurveyExpMetaMem,3.2.3,MacIntel,60
,,,,,,,,,,,,,,,,,,,,6,2.016000032,3,0.690000296,1,0,1200,961,1,1199,crucify,11136,2019-10-22_09h37.24.233,SurveyExpMetaMem,3.2.3,MacIntel,60
,,,,,,,,,,,,,,,,,,,,5,3.075000048,5,0.227000237,1,0,1200,768,1,1199,trait,11136,2019-10-22_09h37.24.233,SurveyExpMetaMem,3.2.3,MacIntel,60
,,,,,,,,,,,,,,,,,,,,5,0.975000143,5,0.19900012,1,0,1200,416,1,1199,boring,11136,2019-10-22_09h37.24.233,SurveyExpMetaMem,3.2.3,MacIntel,60
,,,,,,,,,,,,,,,,,,,,5,6.726999998,5,0.18200016,1,0,1200,1191,1,1199,evade,11136,2019-10-22_09h37.24.233,SurveyExpMetaMem,3.2.3,MacIntel,60
,,,,,,,,,,,,,,,,,,,,5,1.467000008,5,0.190999985,1,0,1200,628,1,1199,chess,11136,2019-10-22_09h37.24.233,SurveyExpMetaMem,3.2.3,MacIntel,60
,,,,,,,,,,,,,,,,,,,,6,1.325000286,3,0.50999999,1,0,1200,932,1,1199,bankrupt,11136,2019-10-22_09h37.24.233,SurveyExpMetaMem,3.2.3,MacIntel,60
,,,,,,,,,,,,,,,,,,,,8,9.345999956,9,0.228000164,1,0,1200,197,1,1199,happy,11136,2019-10-22_09h37.24.233,SurveyExpMetaMem,3.2.3,MacIntel,60
,,,,,,,,,,,,,,,,,,,,5,3.611000299,5,0.183000088,1,0,1200,913,1,1199,ulcer,11136,2019-10-22_09h37.24.233,SurveyExpMetaMem,3.2.3,MacIntel,60
,,,,,,,,,,,,,,,,,,,,7,2.808000088,7,0.965000153,1,0,1200,100,1,1199,intense,11136,2019-10-22_09h37.24.233,SurveyExpMetaMem,3.2.3,MacIntel,60
,,,,,,,,,,,,,,,,,,,,5,3.146000147,4,0.231000185,1,0,1200,931,1,1199,overweight,11136,2019-10-22_09h37.24.233,SurveyExpMetaMem,3.2.3,MacIntel,60
,,,,,,,,,,,,,,,,,,,,6,4.742000103,6,1.128000021,1,0,1200,126,1,1199,rich,11136,2019-10-22_09h37.24.233,SurveyExpMetaMem,3.2.3,MacIntel,60
,,,,,,,,,,,,,,,,,,,,5,1.07400012,5,0.224999905,1,0,1200,89,1,1199,cruiseship,11136,2019-10-22_09h37.24.233,SurveyExpMetaMem,3.2.3,MacIntel,60
,,,,,,,,,,,,,,,,,,,,5,1.460000038,5,0.211999893,1,0,1200,134,1,1199,dollar,11136,2019-10-22_09h37.24.233,SurveyExpMetaMem,3.2.3,MacIntel,60
,,,,,,,,,,,,,,,,,,,,5,0.94900012,5,0.194000006,1,0,1200,111,1,1199,band,11136,2019-10-22_09h37.24.233,SurveyExpMetaMem,3.2.3,MacIntel,60
,,,,,,,,,,,,,,,,,,,,5,1.328999996,5,0.194000244,1,0,1200,591,1,1199,bereavement,11136,2019-10-22_09h37.24.233,SurveyExpMetaMem,3.2.3,MacIntel,60
,,,,,,,,,,,,,,,,,,,,5,1.77699995,5,0.176000118,1,0,1200,464,1,1199,tick,11136,2019-10-22_09h37.24.233,SurveyExpMetaMem,3.2.3,MacIntel,60
,,,,,,,,,,,,,,,,,,,,5,1.799999952,5,0.208000183,1,0,1200,801,1,1199,noon,11136,2019-10-22_09h37.24.233,SurveyExpMetaMem,3.2.3,MacIntel,60
,,,,,,,,,,,,,,,,,,,,7,2.444000006,7,0.176000118,1,0,1200,78,1,1199,energetic,11136,2019-10-22_09h37.24.233,SurveyExpMetaMem,3.2.3,MacIntel,60
,,,,,,,,,,,,,,,,,,,,5,2.723999977,4,0.260999918,1,0,1200,502,1,1199,crap,11136,2019-10-22_09h37.24.233,SurveyExpMetaMem,3.2.3,MacIntel,60
,,,,,,,,,,,,,,,,,,,,6,3.661000013,4,1.543000221,1,0,1200,338,1,1199,obesity,11136,2019-10-22_09h37.24.233,SurveyExpMetaMem,3.2.3,MacIntel,60
,,,,,,,,,,,,,,,,,,,,7,5.360000134,3,2.095000029,1,0,1200,1023,1,1199,disorder,11136,2019-10-22_09h37.24.233,SurveyExpMetaMem,3.2.3,MacIntel,60
,,,,,,,,,,,,,,,,,,,,7,4.674999952,8,1.207000256,1,0,1200,68,1,1199,perfect,11136,2019-10-22_09h37.24.233,SurveyExpMetaMem,3.2.3,MacIntel,60
,,,,,,,,,,,,,,,,,,,,6,1.64199996,6,0.144000053,1,0,1200,631,1,1199,delicate,11136,2019-10-22_09h37.24.233,SurveyExpMetaMem,3.2.3,MacIntel,60
,,,,,,,,,,,,,,,,,,,,9,5.660000086,9,0.924999952,1,0,1200,49,1,1199,ecstatic,11136,2019-10-22_09h37.24.233,SurveyExpMetaMem,3.2.3,MacIntel,60
,,,,,,,,,,,,,,,,,,,,6,4.960000038,3,1.434000015,1,0,1200,302,1,1199,loneliness,11136,2019-10-22_09h37.24.233,SurveyExpMetaMem,3.2.3,MacIntel,60
,,,,,,,,,,,,,,,,,,,,5,1.840000153,5,0.18200016,1,0,1200,627,1,1199,introductory,11136,2019-10-22_09h37.24.233,SurveyExpMetaMem,3.2.3,MacIntel,60
,,,,,,,,,,,,,,,,,,,,6,1.897000313,4,1.2900002,1,0,1200,911,1,1199,rejection,11136,2019-10-22_09h37.24.233,SurveyExpMetaMem,3.2.3,MacIntel,60
,,,,,,,,,,,,,,,,,,,,5,14.32500005,5,0.126000166,1,0,1200,155,1,1199,ignite,11136,2019-10-22_09h37.24.233,SurveyExpMetaMem,3.2.3,MacIntel,60
,,,,,,,,,,,,,,,,,,,,5,1.499000072,5,0.174000025,1,0,1200,652,1,1199,tend,11136,2019-10-22_09h37.24.233,SurveyExpMetaMem,3.2.3,MacIntel,60
,,,,,,,,,,,,,,,,,,,,6,2.125000238,4,0.374000072,1,0,1200,342,1,1199,alienation,11136,2019-10-22_09h37.24.233,SurveyExpMetaMem,3.2.3,MacIntel,60
,,,,,,,,,,,,,,,,,,,,6,4.090000153,7,0.327000141,1,0,1200,711,1,1199,sympathetic,11136,2019-10-22_09h37.24.233,SurveyExpMetaMem,3.2.3,MacIntel,60
,,,,,,,,,,,,,,,,,,,,7,4.623000145,3,0.825000048,1,0,1200,1055,1,1199,alarm,11136,2019-10-22_09h37.24.233,SurveyExpMetaMem,3.2.3,MacIntel,60
,,,,,,,,,,,,,,,,,,,,5,5.128000021,5,0.427000046,1,0,1200,1057,1,1199,deceit,11136,2019-10-22_09h37.24.233,SurveyExpMetaMem,3.2.3,MacIntel,60
,,,,,,,,,,,,,,,,,,,,5,2.57400012,5,0.802000046,1,0,1200,132,1,1199,silly,11136,2019-10-22_09h37.24.233,SurveyExpMetaMem,3.2.3,MacIntel,60
,,,,,,,,,,,,,,,,,,,,5,1.680999994,5,0.193000078,1,0,1200,33,1,1199,sister,11136,2019-10-22_09h37.24.233,SurveyExpMetaMem,3.2.3,MacIntel,60
,,,,,,,,,,,,,,,,,,,,5,0.730000019,5,0.177000046,1,0,1200,264,1,1199,thong,11136,2019-10-22_09h37.24.233,SurveyExpMetaMem,3.2.3,MacIntel,60
,,,,,,,,,,,,,,,,,,,,5,2.895000219,5,0.195000172,1,0,1200,84,1,1199,eat,11136,2019-10-22_09h37.24.233,SurveyExpMetaMem,3.2.3,MacIntel,60
,,,,,,,,,,,,,,,,,,,,5,1.796000242,5,0.174999952,1,0,1200,119,1,1199,stereo,11136,2019-10-22_09h37.24.233,SurveyExpMetaMem,3.2.3,MacIntel,60
,,,,,,,,,,,,,,,,,,,,7,3.209000111,8,0.482000113,1,0,1200,248,1,1199,win,11136,2019-10-22_09h37.24.233,SurveyExpMetaMem,3.2.3,MacIntel,60
,,,,,,,,,,,,,,,,,,,,5,3.726000071,5,0.124000072,1,0,1200,668,1,1199,unit,11136,2019-10-22_09h37.24.233,SurveyExpMetaMem,3.2.3,MacIntel,60
,,,,,,,,,,,,,,,,,,,,5,0.911999941,5,0.17200017,1,0,1200,488,1,1199,rusty,11136,2019-10-22_09h37.24.233,SurveyExpMetaMem,3.2.3,MacIntel,60
,,,,,,,,,,,,,,,,,,,,5,0.729000092,5,0.177000046,1,0,1200,582,1,1199,cling,11136,2019-10-22_09h37.24.233,SurveyExpMetaMem,3.2.3,MacIntel,60
,,,,,,,,,,,,,,,,,,,,5,0.759000063,5,0.160000086,1,0,1200,846,1,1199,able,11136,2019-10-22_09h37.24.233,SurveyExpMetaMem,3.2.3,MacIntel,60
,,,,,,,,,,,,,,,,,,,,5,1.10800004,5,0.163000107,1,0,1200,1093,1,1199,hive,11136,2019-10-22_09h37.24.233,SurveyExpMetaMem,3.2.3,MacIntel,60
,,,,,,,,,,,,,,,,,,,,4,2.724000216,4,4.434000015,1,0,1200,490,1,1199,detached,11136,2019-10-22_09h37.24.233,SurveyExpMetaMem,3.2.3,MacIntel,60
,,,,,,,,,,,,,,,,,,,,5,0.987000227,5,0.177000046,1,0,1200,361,1,1199,glum,11136,2019-10-22_09h37.24.233,SurveyExpMetaMem,3.2.3,MacIntel,60
,,,,,,,,,,,,,,,,,,,,5,0.830000162,5,0.163000107,1,0,1200,1063,1,1199,quarrel,11136,2019-10-22_09h37.24.233,SurveyExpMetaMem,3.2.3,MacIntel,60
,,,,,,,,,,,,,,,,,,,,6,4.008000135,4,0.209000111,1,0,1200,364,1,1199,stink,11136,2019-10-22_09h37.24.233,SurveyExpMetaMem,3.2.3,MacIntel,60
,,,,,,,,,,,,,,,,,,,,6,1.741000175,7,0.825999975,1,0,1200,158,1,1199,engage,11136,2019-10-22_09h37.24.233,SurveyExpMetaMem,3.2.3,MacIntel,60
,,,,,,,,,,,,,,,,,,,,7,2.364000082,3,0.643000126,1,0,1200,1015,1,1199,frighten,11136,2019-10-22_09h37.24.233,SurveyExpMetaMem,3.2.3,MacIntel,60
,,,,,,,,,,,,,,,,,,,,7,2.907999992,3,0.763000011,1,0,1200,1048,1,1199,paranoid,11136,2019-10-22_09h37.24.233,SurveyExpMetaMem,3.2.3,MacIntel,60
,,,,,,,,,,,,,,,,,,,,5,1.560000181,5,0.193000078,1,0,1200,710,1,1199,gender,11136,2019-10-22_09h37.24.233,SurveyExpMetaMem,3.2.3,MacIntel,60
,,,,,,,,,,,,,,,,,,,,5,1.075000286,5,0.191999912,1,0,1200,478,1,1199,numb,11136,2019-10-22_09h37.24.233,SurveyExpMetaMem,3.2.3,MacIntel,60
,,,,,,,,,,,,,,,,,,,,6,2.625,4,0.343000174,1,0,1200,1066,1,1199,annoy,11136,2019-10-22_09h37.24.233,SurveyExpMetaMem,3.2.3,MacIntel,60
,,,,,,,,,,,,,,,,,,,,5,1.828999996,5,0.608999968,1,0,1200,352,1,1199,negligent,11136,2019-10-22_09h37.24.233,SurveyExpMetaMem,3.2.3,MacIntel,60
,,,,,,,,,,,,,,,,,,,,5,1.503999949,5,0.159000158,1,0,1200,769,1,1199,relate,11136,2019-10-22_09h37.24.233,SurveyExpMetaMem,3.2.3,MacIntel,60
,,,,,,,,,,,,,,,,,,,,5,2.676000118,4,0.210000038,1,0,1200,988,1,1199,deserter,11136,2019-10-22_09h37.24.233,SurveyExpMetaMem,3.2.3,MacIntel,60
,,,,,,,,,,,,,,,,,,,,5,1.107000113,5,0.184000015,1,0,1200,201,1,1199,gorilla,11136,2019-10-22_09h37.24.233,SurveyExpMetaMem,3.2.3,MacIntel,60
,,,,,,,,,,,,,,,,,,,,6,3.727000237,7,0.180000067,1,0,1200,69,1,1199,special,11136,2019-10-22_09h37.24.233,SurveyExpMetaMem,3.2.3,MacIntel,60
,,,,,,,,,,,,,,,,,,,,5,1.276000023,5,0.160000086,1,0,1200,808,1,1199,violinist,11136,2019-10-22_09h37.24.233,SurveyExpMetaMem,3.2.3,MacIntel,60
,,,,,,,,,,,,,,,,,,,,5,3.640000105,6,0.805999994,1,0,1200,875,1,1199,fluffy,11136,2019-10-22_09h37.24.233,SurveyExpMetaMem,3.2.3,MacIntel,60
,,,,,,,,,,,,,,,,,,,,7,2.099000216,4,1.027000189,1,0,1200,1009,1,1199,frightened,11136,2019-10-22_09h37.24.233,SurveyExpMetaMem,3.2.3,MacIntel,60
,,,,,,,,,,,,,,,,,,,,7,2.308000088,7,1.729000092,1,0,1200,199,1,1199,laughter,11136,2019-10-22_09h37.24.233,SurveyExpMetaMem,3.2.3,MacIntel,60
,,,,,,,,,,,,,,,,,,,,6,6.376000166,6,0.177000046,1,0,1200,14,1,1199,attain,11136,2019-10-22_09h37.24.233,SurveyExpMetaMem,3.2.3,MacIntel,60
,,,,,,,,,,,,,,,,,,,,4,4.675000191,5,0.325999975,1,0,1200,515,1,1199,blues,11136,2019-10-22_09h37.24.233,SurveyExpMetaMem,3.2.3,MacIntel,60
,,,,,,,,,,,,,,,,,,,,6,2.976999998,7,0.228000164,1,0,1200,98,1,1199,affection,11136,2019-10-22_09h37.24.233,SurveyExpMetaMem,3.2.3,MacIntel,60
,,,,,,,,,,,,,,,,,,,,5,1.560000181,5,0.193000078,1,0,1200,656,1,1199,number,11136,2019-10-22_09h37.24.233,SurveyExpMetaMem,3.2.3,MacIntel,60
,,,,,,,,,,,,,,,,,,,,5,0.742000103,5,0.193000078,1,0,1200,701,1,1199,telephone,11136,2019-10-22_09h37.24.233,SurveyExpMetaMem,3.2.3,MacIntel,60
,,,,,,,,,,,,,,,,,,,,5,0.825000048,5,0.193000078,1,0,1200,571,1,1199,marrow,11136,2019-10-22_09h37.24.233,SurveyExpMetaMem,3.2.3,MacIntel,60
,,,,,,,,,,,,,,,,,,,,6,2.141000032,4,0.40899992,1,0,1200,1003,1,1199,jealousy,11136,2019-10-22_09h37.24.233,SurveyExpMetaMem,3.2.3,MacIntel,60
,,,,,,,,,,,,,,,,,,,,8,3.209000111,2,0.535000086,1,0,1200,944,1,1199,kill,11136,2019-10-22_09h37.24.233,SurveyExpMetaMem,3.2.3,MacIntel,60
,,,,,,,,,,,,,,,,,,,,5,2.84100008,5,0.161000013,1,0,1200,686,1,1199,phone,11136,2019-10-22_09h37.24.233,SurveyExpMetaMem,3.2.3,MacIntel,60
,,,,,,,,,,,,,,,,,,,,5,2.493000031,6,2.794000149,1,0,1200,137,1,1199,money,11136,2019-10-22_09h37.24.233,SurveyExpMetaMem,3.2.3,MacIntel,60
,,,,,,,,,,,,,,,,,,,,6,4.059000015,4,0.644000053,1,0,1200,372,1,1199,inferior,11136,2019-10-22_09h37.24.233,SurveyExpMetaMem,3.2.3,MacIntel,60
,,,,,,,,,,,,,,,,,,,,5,0.906000137,5,0.180000305,1,0,1200,270,1,1199,toddler,11136,2019-10-22_09h37.24.233,SurveyExpMetaMem,3.2.3,MacIntel,60
,,,,,,,,,,,,,,,,,,,,5,0.632000208,5,0.197000027,1,0,1200,625,1,1199,hat,11136,2019-10-22_09h37.24.233,SurveyExpMetaMem,3.2.3,MacIntel,60
,,,,,,,,,,,,,,,,,,,,5,0.713000059,5,0.427000046,1,0,1200,714,1,1199,courtyard,11136,2019-10-22_09h37.24.233,SurveyExpMetaMem,3.2.3,MacIntel,60
,,,,,,,,,,,,,,,,,,,,7,1.943000078,7,0.179000139,1,0,1200,195,1,1199,laughing,11136,2019-10-22_09h37.24.233,SurveyExpMetaMem,3.2.3,MacIntel,60
,,,,,,,,,,,,,,,,,,,,7,23.83599997,4,1.305000305,1,0,1200,1024,1,1199,burn,11136,2019-10-22_09h37.24.233,SurveyExpMetaMem,3.2.3,MacIntel,60
,,,,,,,,,,,,,,,,,,,,5,3.478000164,5,0.294000149,1,0,1200,1010,1,1199,arson,11136,2019-10-22_09h37.24.233,SurveyExpMetaMem,3.2.3,MacIntel,60
,,,,,,,,,,,,,,,,,,,,5,3.474000216,4,0.966000319,1,0,1200,5,1,1199,drunk,11136,2019-10-22_09h37.24.233,SurveyExpMetaMem,3.2.3,MacIntel,60
,,,,,,,,,,,,,,,,,,,,7,9.453999996,4,1.49000001,1,0,1200,923,1,1199,punish,11136,2019-10-22_09h37.24.233,SurveyExpMetaMem,3.2.3,MacIntel,60
,,,,,,,,,,,,,,,,,,,,3,6.874000072,7,1.993000031,1,0,1200,895,1,1199,peace,11136,2019-10-22_09h37.24.233,SurveyExpMetaMem,3.2.3,MacIntel,60
,,,,,,,,,,,,,,,,,,,,5,2.077000141,5,0.211000204,1,0,1200,719,1,1199,western,11136,2019-10-22_09h37.24.233,SurveyExpMetaMem,3.2.3,MacIntel,60
,,,,,,,,,,,,,,,,,,,,6,1.376000166,6,0.161000252,1,0,1200,221,1,1199,sparkle,11136,2019-10-22_09h37.24.233,SurveyExpMetaMem,3.2.3,MacIntel,60
,,,,,,,,,,,,,,,,,,,,6,4.473999977,6,0.162999868,1,0,1200,243,1,1199,fame,11136,2019-10-22_09h37.24.233,SurveyExpMetaMem,3.2.3,MacIntel,60
,,,,,,,,,,,,,,,,,,,,5,2.125999928,5,0.146000147,1,0,1200,562,1,1199,average,11136,2019-10-22_09h37.24.233,SurveyExpMetaMem,3.2.3,MacIntel,60
,,,,,,,,,,,,,,,,,,,,5,0.825000048,5,0.175000191,1,0,1200,1097,1,1199,bees,11136,2019-10-22_09h37.24.233,SurveyExpMetaMem,3.2.3,MacIntel,60
,,,,,,,,,,,,,,,,,,,,5,1.392000198,5,0.177000284,1,0,1200,822,1,1199,clearer,11136,2019-10-22_09h37.24.233,SurveyExpMetaMem,3.2.3,MacIntel,60
,,,,,,,,,,,,,,,,,,,,5,0.864000082,5,0.194000006,1,0,1200,647,1,1199,accord,11136,2019-10-22_09h37.24.233,SurveyExpMetaMem,3.2.3,MacIntel,60
,,,,,,,,,,,,,,,,,,,,5,0.907999992,5,0.194000006,1,0,1200,420,1,1199,smoke,11136,2019-10-22_09h37.24.233,SurveyExpMetaMem,3.2.3,MacIntel,60
,,,,,,,,,,,,,,,,,,,,5,1.813999891,5,0.191999912,1,0,1200,805,1,1199,autumn,11136,2019-10-22_09h37.24.233,SurveyExpMetaMem,3.2.3,MacIntel,60
,,,,,,,,,,,,,,,,,,,,5,1.279999971,5,0.196000099,1,0,1200,348,1,1199,impotent,11136,2019-10-22_09h37.24.233,SurveyExpMetaMem,3.2.3,MacIntel,60
,,,,,,,,,,,,,,,,,,,,6,2.14199996,7,0.184000015,1,0,1200,890,1,1199,carefree,11136,2019-10-22_09h37.24.233,SurveyExpMetaMem,3.2.3,MacIntel,60
,,,,,,,,,,,,,,,,,,,,5,1.022000313,5,0.158000231,1,0,1200,277,1,1199,cupcake,11136,2019-10-22_09h37.24.233,SurveyExpMetaMem,3.2.3,MacIntel,60
,,,,,,,,,,,,,,,,,,,,5,0.81400013,5,0.18200016,1,0,1200,795,1,1199,soup,11136,2019-10-22_09h37.24.233,SurveyExpMetaMem,3.2.3,MacIntel,60
,,,,,,,,,,,,,,,,,,,,6,1.492000103,7,0.192000151,1,0,1200,193,1,1199,party,11136,2019-10-22_09h37.24.233,SurveyExpMetaMem,3.2.3,MacIntel,60
,,,,,,,,,,,,,,,,,,,,7,2.627000093,7,0.194000244,1,0,1200,123,1,1199,favorite,11136,2019-10-22_09h37.24.233,SurveyExpMetaMem,3.2.3,MacIntel,60
,,,,,,,,,,,,,,,,,,,,5,1.560000181,5,0.197999954,1,0,1200,1168,1,1199,financial,11136,2019-10-22_09h37.24.233,SurveyExpMetaMem,3.2.3,MacIntel,60
,,,,,,,,,,,,,,,,,,,,6,1.68200016,4,0.293000221,1,0,1200,989,1,1199,banish,11136,2019-10-22_09h37.24.233,SurveyExpMetaMem,3.2.3,MacIntel,60
,,,,,,,,,,,,,,,,,,,,6,1.860000134,6,0.15500021,1,0,1200,707,1,1199,adapt,11136,2019-10-22_09h37.24.233,SurveyExpMetaMem,3.2.3,MacIntel,60
,,,,,,,,,,,,,,,,,,,,5,1.2900002,5,0.344000101,1,0,1200,7,1,1199,duet,11136,2019-10-22_09h37.24.233,SurveyExpMetaMem,3.2.3,MacIntel,60
,,,,,,,,,,,,,,,,,,,,5,0.798000097,5,0.225000143,1,0,1200,1114,1,1199,foe,11136,2019-10-22_09h37.24.233,SurveyExpMetaMem,3.2.3,MacIntel,60
,,,,,,,,,,,,,,,,,,,,6,1.28000021,4,0.397000074,1,0,1200,1089,1,1199,ridicule,11136,2019-10-22_09h37.24.233,SurveyExpMetaMem,3.2.3,MacIntel,60
,,,,,,,,,,,,,,,,,,,,6,1.353000164,6,0.160000086,1,0,1200,782,1,1199,open,11136,2019-10-22_09h37.24.233,SurveyExpMetaMem,3.2.3,MacIntel,60
,,,,,,,,,,,,,,,,,,,,5,3.108000278,5,0.191999912,1,0,1200,21,1,1199,game,11136,2019-10-22_09h37.24.233,SurveyExpMetaMem,3.2.3,MacIntel,60
,,,,,,,,,,,,,,,,,,,,5,2.041000128,5,0.197000265,1,0,1200,561,1,1199,plain,11136,2019-10-22_09h37.24.233,SurveyExpMetaMem,3.2.3,MacIntel,60
,,,,,,,,,,,,,,,,,,,,5,0.844000101,5,0.192000151,1,0,1200,245,1,1199,beach,11136,2019-10-22_09h37.24.233,SurveyExpMetaMem,3.2.3,MacIntel,60
,,,,,,,,,,,,,,,,,,,,7,2.09100008,8,0.1650002,1,0,1200,11,1,1199,astonished,11136,2019-10-22_09h37.24.233,SurveyExpMetaMem,3.2.3,MacIntel,60
,,,,,,,,,,,,,,,,,,,,6,5.743000031,4,0.230000019,1,0,1200,1199,1,1199,expensive,11136,2019-10-22_09h37.24.233,SurveyExpMetaMem,3.2.3,MacIntel,60
,,,,,,,,,,,,,,,,,,,,5,2.489000082,5,0.163000107,1,0,1200,692,1,1199,medicine,11136,2019-10-22_09h37.24.233,SurveyExpMetaMem,3.2.3,MacIntel,60
,,,,,,,,,,,,,,,,,,,,6,5.427000046,4,1.460000038,1,0,1200,1068,1,1199,riot,11136,2019-10-22_09h37.24.233,SurveyExpMetaMem,3.2.3,MacIntel,60
,,,,,,,,,,,,,,,,,,,,6,2.411000252,7,0.208999872,1,0,1200,32,1,1199,festival,11136,2019-10-22_09h37.24.233,SurveyExpMetaMem,3.2.3,MacIntel,60
,,,,,,,,,,,,,,,,,,,,5,5.10800004,5,0.175000191,1,0,1200,521,1,1199,laundry,11136,2019-10-22_09h37.24.233,SurveyExpMetaMem,3.2.3,MacIntel,60
,,,,,,,,,,,,,,,,,,,,5,1.430999994,5,0.193000078,1,0,1200,667,1,1199,dew,11136,2019-10-22_09h37.24.233,SurveyExpMetaMem,3.2.3,MacIntel,60
,,,,,,,,,,,,,,,,,,,,6,1.592000246,4,1.253000021,1,0,1200,537,1,1199,absurd,11136,2019-10-22_09h37.24.233,SurveyExpMetaMem,3.2.3,MacIntel,60
,,,,,,,,,,,,,,,,,,,,6,1.373000145,4,0.259000063,1,0,1200,1022,1,1199,creepy,11136,2019-10-22_09h37.24.233,SurveyExpMetaMem,3.2.3,MacIntel,60
,,,,,,,,,,,,,,,,,,,,6,1.090000153,4,0.27699995,1,0,1200,1193,1,1199,damn,11136,2019-10-22_09h37.24.233,SurveyExpMetaMem,3.2.3,MacIntel,60
,,,,,,,,,,,,,,,,,,,,5,1.598999977,5,0.192000151,1,0,1200,618,1,1199,ceiling,11136,2019-10-22_09h37.24.233,SurveyExpMetaMem,3.2.3,MacIntel,60
,,,,,,,,,,,,,,,,,,,,5,0.771000147,5,0.175000191,1,0,1200,817,1,1199,countryside,11136,2019-10-22_09h37.24.233,SurveyExpMetaMem,3.2.3,MacIntel,60
,,,,,,,,,,,,,,,,,,,,6,1.878000021,6,0.142999887,1,0,1200,292,1,1199,birthday,11136,2019-10-22_09h37.24.233,SurveyExpMetaMem,3.2.3,MacIntel,60
,,,,,,,,,,,,,,,,,,,,6,1.382000208,4,0.286000013,1,0,1200,307,1,1199,sick,11136,2019-10-22_09h37.24.233,SurveyExpMetaMem,3.2.3,MacIntel,60
,,,,,,,,,,,,,,,,,,,,5,1.063000202,5,0.197000027,1,0,1200,604,1,1199,lamp,11136,2019-10-22_09h37.24.233,SurveyExpMetaMem,3.2.3,MacIntel,60
,,,,,,,,,,,,,,,,,,,,5,0.914000034,5,0.176000118,1,0,1200,474,1,1199,weary,11136,2019-10-22_09h37.24.233,SurveyExpMetaMem,3.2.3,MacIntel,60
,,,,,,,,,,,,,,,,,,,,5,1.197999954,5,0.176000118,1,0,1200,64,1,1199,brain,11136,2019-10-22_09h37.24.233,SurveyExpMetaMem,3.2.3,MacIntel,60
,,,,,,,,,,,,,,,,,,,,5,0.73300004,5,0.209000111,1,0,1200,649,1,1199,donkey,11136,2019-10-22_09h37.24.233,SurveyExpMetaMem,3.2.3,MacIntel,60
,,,,,,,,,,,,,,,,,,,,5,0.857000113,5,0.191000223,1,0,1200,634,1,1199,glacier,11136,2019-10-22_09h37.24.233,SurveyExpMetaMem,3.2.3,MacIntel,60
,,,,,,,,,,,,,,,,,,,,7,1.749000311,3,1.485000134,1,0,1200,956,1,1199,crushed,11136,2019-10-22_09h37.24.233,SurveyExpMetaMem,3.2.3,MacIntel,60
,,,,,,,,,,,,,,,,,,,,6,3.60800004,5,0.209000111,1,0,1200,995,1,1199,cult,11136,2019-10-22_09h37.24.233,SurveyExpMetaMem,3.2.3,MacIntel,60
,,,,,,,,,,,,,,,,,,,,5,0.993000031,5,0.175000191,1,0,1200,602,1,1199,vegetable,11136,2019-10-22_09h37.24.233,SurveyExpMetaMem,3.2.3,MacIntel,60
,,,,,,,,,,,,,,,,,,,,5,2.343000174,5,0.243999958,1,0,1200,499,1,1199,stop,11136,2019-10-22_09h37.24.233,SurveyExpMetaMem,3.2.3,MacIntel,60
,,,,,,,,,,,,,,,,,,,,6,3.796000242,6,0.159000158,1,0,1200,271,1,1199,applaud,11136,2019-10-22_09h37.24.233,SurveyExpMetaMem,3.2.3,MacIntel,60
,,,,,,,,,,,,,,,,,,,,7,2.059000015,7,0.167000055,1,0,1200,857,1,1199,thankful,11136,2019-10-22_09h37.24.233,SurveyExpMetaMem,3.2.3,MacIntel,60
,,,,,,,,,,,,,,,,,,,,6,2.536000013,2,2.39800024,1,0,1200,940,1,1199,war,11136,2019-10-22_09h37.24.233,SurveyExpMetaMem,3.2.3,MacIntel,60
,,,,,,,,,,,,,,,,,,,,6,5.759000063,7,0.191000223,1,0,1200,113,1,1199,bridesmaid,11136,2019-10-22_09h37.24.233,SurveyExpMetaMem,3.2.3,MacIntel,60
,,,,,,,,,,,,,,,,,,,,4,9.348999977,6,1.212000132,1,0,1200,882,1,1199,gentle,11136,2019-10-22_09h37.24.233,SurveyExpMetaMem,3.2.3,MacIntel,60
,,,,,,,,,,,,,,,,,,,,5,1.677000046,5,0.227000237,1,0,1200,648,1,1199,beads,11136,2019-10-22_09h37.24.233,SurveyExpMetaMem,3.2.3,MacIntel,60
,,,,,,,,,,,,,,,,,,,,5,0.809000015,5,0.242000103,1,0,1200,724,1,1199,owl,11136,2019-10-22_09h37.24.233,SurveyExpMetaMem,3.2.3,MacIntel,60
,,,,,,,,,,,,,,,,,,,,6,1.328999996,6,0.176000118,1,0,1200,249,1,1199,award,11136,2019-10-22_09h37.24.233,SurveyExpMetaMem,3.2.3,MacIntel,60
,,,,,,,,,,,,,,,,,,,,5,4.305999994,5,0.18200016,1,0,1200,599,1,1199,obstinate,11136,2019-10-22_09h37.24.233,SurveyExpMetaMem,3.2.3,MacIntel,60
,,,,,,,,,,,,,,,,,,,,6,1.560000181,6,0.159000158,1,0,1200,281,1,1199,summer,11136,2019-10-22_09h37.24.233,SurveyExpMetaMem,3.2.3,MacIntel,60
,,,,,,,,,,,,,,,,,,,,6,1.429000139,6,0.143000126,1,0,1200,27,1,1199,gourmet,11136,2019-10-22_09h37.24.233,SurveyExpMetaMem,3.2.3,MacIntel,60
,,,,,,,,,,,,,,,,,,,,5,4.227000237,5,0.176000118,1,0,1200,639,1,1199,outlet,11136,2019-10-22_09h37.24.233,SurveyExpMetaMem,3.2.3,MacIntel,60
,,,,,,,,,,,,,,,,,,,,6,1.586000204,3,1.173000097,1,0,1200,958,1,1199,traitor,11136,2019-10-22_09h37.24.233,SurveyExpMetaMem,3.2.3,MacIntel,60
,,,,,,,,,,,,,,,,,,,,7,3.430999994,3,0.928000212,1,0,1200,1164,1,1199,battle,11136,2019-10-22_09h37.24.233,SurveyExpMetaMem,3.2.3,MacIntel,60
,,,,,,,,,,,,,,,,,,,,5,1.809000254,5,0.176000118,1,0,1200,1091,1,1199,cram,11136,2019-10-22_09h37.24.233,SurveyExpMetaMem,3.2.3,MacIntel,60
,,,,,,,,,,,,,,,,,,,,5,0.759000063,5,0.178999901,1,0,1200,633,1,1199,cattle,11136,2019-10-22_09h37.24.233,SurveyExpMetaMem,3.2.3,MacIntel,60
,,,,,,,,,,,,,,,,,,,,5,0.791000128,5,0.210000038,1,0,1200,644,1,1199,farm,11136,2019-10-22_09h37.24.233,SurveyExpMetaMem,3.2.3,MacIntel,60
,,,,,,,,,,,,,,,,,,,,6,2.588000059,6,0.175000191,1,0,1200,35,1,1199,bright,11136,2019-10-22_09h37.24.233,SurveyExpMetaMem,3.2.3,MacIntel,60
,,,,,,,,,,,,,,,,,,,,6,1.39800024,4,0.309999943,1,0,1200,346,1,1199,alcoholism,11136,2019-10-22_09h37.24.233,SurveyExpMetaMem,3.2.3,MacIntel,60
,,,,,,,,,,,,,,,,,,,,5,2.04399991,5,0.210000038,1,0,1200,632,1,1199,avenue,11136,2019-10-22_09h37.24.233,SurveyExpMetaMem,3.2.3,MacIntel,60
,,,,,,,,,,,,,,,,,,,,5,1.825000286,5,0.18900013,1,0,1200,753,1,1199,patience,11136,2019-10-22_09h37.24.233,SurveyExpMetaMem,3.2.3,MacIntel,60
,,,,,,,,,,,,,,,,,,,,7,1.578999996,3,0.561000109,1,0,1200,907,1,1199,terrorist,11136,2019-10-22_09h37.24.233,SurveyExpMetaMem,3.2.3,MacIntel,60
,,,,,,,,,,,,,,,,,,,,6,1.57400012,3,0.738000154,1,0,1200,1064,1,1199,sinful,11136,2019-10-22_09h37.24.233,SurveyExpMetaMem,3.2.3,MacIntel,60
,,,,,,,,,,,,,,,,,,,,5,6.096000195,5,0.195000172,1,0,1200,1117,1,1199,court,11136,2019-10-22_09h37.24.233,SurveyExpMetaMem,3.2.3,MacIntel,60
,,,,,,,,,,,,,,,,,,,,5,0.85800004,5,0.202000141,1,0,1200,469,1,1199,resent,11136,2019-10-22_09h37.24.233,SurveyExpMetaMem,3.2.3,MacIntel,60
,,,,,,,,,,,,,,,,,,,,5,3.863000154,5,0.210999966,1,0,1200,600,1,1199,parlor,11136,2019-10-22_09h37.24.233,SurveyExpMetaMem,3.2.3,MacIntel,60
,,,,,,,,,,,,,,,,,,,,6,1.35800004,4,0.380000114,1,0,1200,935,1,1199,despise,11136,2019-10-22_09h37.24.233,SurveyExpMetaMem,3.2.3,MacIntel,60
,,,,,,,,,,,,,,,,,,,,5,10.15900016,5,0.17599988,1,0,1200,332,1,1199,sewage,11136,2019-10-22_09h37.24.233,SurveyExpMetaMem,3.2.3,MacIntel,60
,,,,,,,,,,,,,,,,,,,,5,0.870000124,5,0.176000118,1,0,1200,814,1,1199,dress,11136,2019-10-22_09h37.24.233,SurveyExpMetaMem,3.2.3,MacIntel,60
,,,,,,,,,,,,,,,,,,,,5,4.025000095,6,0.220000029,1,0,1200,219,1,1199,know,11136,2019-10-22_09h37.24.233,SurveyExpMetaMem,3.2.3,MacIntel,60
,,,,,,,,,,,,,,,,,,,,5,2.111000061,5,0.211000204,1,0,1200,331,1,1199,casket,11136,2019-10-22_09h37.24.233,SurveyExpMetaMem,3.2.3,MacIntel,60
,,,,,,,,,,,,,,,,,,,,7,1.96600008,7,0.179000139,1,0,1200,230,1,1199,eager,11136,2019-10-22_09h37.24.233,SurveyExpMetaMem,3.2.3,MacIntel,60
,,,,,,,,,,,,,,,,,,,,5,1.609999895,6,0.191000223,1,0,1200,31,1,1199,brownie,11136,2019-10-22_09h37.24.233,SurveyExpMetaMem,3.2.3,MacIntel,60
,,,,,,,,,,,,,,,,,,,,5,1.128000021,5,0.193000078,1,0,1200,619,1,1199,pulpit,11136,2019-10-22_09h37.24.233,SurveyExpMetaMem,3.2.3,MacIntel,60
,,,,,,,,,,,,,,,,,,,,7,1.612000227,3,0.594000101,1,0,1200,946,1,1199,amputate,11136,2019-10-22_09h37.24.233,SurveyExpMetaMem,3.2.3,MacIntel,60
,,,,,,,,,,,,,,,,,,,,5,2.810000181,6,0.243000031,1,0,1200,777,1,1199,casual,11136,2019-10-22_09h37.24.233,SurveyExpMetaMem,3.2.3,MacIntel,60
,,,,,,,,,,,,,,,,,,,,5,3.379000187,5,0.196000099,1,0,1200,749,1,1199,glasses,11136,2019-10-22_09h37.24.233,SurveyExpMetaMem,3.2.3,MacIntel,60
,,,,,,,,,,,,,,,,,,,,6,1.761000156,7,0.177000046,1,0,1200,25,1,1199,charisma,11136,2019-10-22_09h37.24.233,SurveyExpMetaMem,3.2.3,MacIntel,60
,,,,,,,,,,,,,,,,,,,,5,3.157999992,6,0.292999983,1,0,1200,826,1,1199,poem,11136,2019-10-22_09h37.24.233,SurveyExpMetaMem,3.2.3,MacIntel,60
,,,,,,,,,,,,,,,,,,,,7,2.964999914,3,1.095000029,1,0,1200,1056,1,1199,crime,11136,2019-10-22_09h37.24.233,SurveyExpMetaMem,3.2.3,MacIntel,60
,,,,,,,,,,,,,,,,,,,,6,2.006000042,4,0.243999958,1,0,1200,301,1,1199,sad,11136,2019-10-22_09h37.24.233,SurveyExpMetaMem,3.2.3,MacIntel,60
,,,,,,,,,,,,,,,,,,,,5,3.243000269,4,0.190999985,1,0,1200,483,1,1199,condescension,11136,2019-10-22_09h37.24.233,SurveyExpMetaMem,3.2.3,MacIntel,60
,,,,,,,,,,,,,,,,,,,,5,1.194000006,5,0.196000099,1,0,1200,409,1,1199,old,11136,2019-10-22_09h37.24.233,SurveyExpMetaMem,3.2.3,MacIntel,60
,,,,,,,,,,,,,,,,,,,,6,1.575999975,4,0.611000061,1,0,1200,1149,1,1199,fight,11136,2019-10-22_09h37.24.233,SurveyExpMetaMem,3.2.3,MacIntel,60
,,,,,,,,,,,,,,,,,,,,7,2.621000051,3,0.859000206,1,0,1200,1171,1,1199,chaos,11136,2019-10-22_09h37.24.233,SurveyExpMetaMem,3.2.3,MacIntel,60
,,,,,,,,,,,,,,,,,,,,7,4.164000273,7,0.173000097,1,0,1200,105,1,1199,curious,11136,2019-10-22_09h37.24.233,SurveyExpMetaMem,3.2.3,MacIntel,60
,,,,,,,,,,,,,,,,,,,,7,1.242000103,7,0.20600009,1,0,1200,15,1,1199,curiosity,11136,2019-10-22_09h37.24.233,SurveyExpMetaMem,3.2.3,MacIntel,60
,,,,,,,,,,,,,,,,,,,,5,7.871999979,5,0.175000191,1,0,1200,512,1,1199,insect,11136,2019-10-22_09h37.24.233,SurveyExpMetaMem,3.2.3,MacIntel,60
