mouse_4.x,mouse_4.y,mouse_4.leftButton,mouse_4.midButton,mouse_4.rightButton,mouse.x,mouse.y,mouse.leftButton,mouse.midButton,mouse.rightButton,mouse_2.x,mouse_2.y,mouse_2.leftButton,mouse_2.midButton,mouse_2.rightButton,mouse_3.x,mouse_3.y,mouse_3.leftButton,mouse_3.midButton,mouse_3.rightButton,A_key_resp.keys,A_key_resp.rt,key_resp.keys,key_resp.rt,trials.thisRepN,trials.thisTrialN,trials.thisN,trials.thisIndex,trials.ran,trials.order,word,ParticipantID,date,expName,psychopyVersion,OS,frameRate
0.035185185,-0.062037037,1,0,0,0.064814815,-0.008333333,1,0,0,0.137037037,0.037962963,1,0,0,0.150925926,0.039814815,1,0,0,6,6.90500021,7,21.45700026,1,0,1200,146,1,1199,congratulations,11126 ,2019-10-21_20h38.31.124,SurveyExpMetaMem,3.2.3,Win32,60
,,,,,,,,,,,,,,,,,,,,6,5.931000233,3,3.659000158,1,0,1200,308,1,1199,worthless,11126 ,2019-10-21_20h38.31.124,SurveyExpMetaMem,3.2.3,Win32,60
,,,,,,,,,,,,,,,,,,,,6,8.386000156,7,4.354000092,1,0,1200,296,1,1199,awesome,11126 ,2019-10-21_20h38.31.124,SurveyExpMetaMem,3.2.3,Win32,60
,,,,,,,,,,,,,,,,,,,,5,5.696000099,5,1.360000134,1,0,1200,259,1,1199,thin,11126 ,2019-10-21_20h38.31.124,SurveyExpMetaMem,3.2.3,Win32,60
,,,,,,,,,,,,,,,,,,,,5,4.647000313,5,0.371000051,1,0,1200,1134,1,1199,obsessed,11126 ,2019-10-21_20h38.31.124,SurveyExpMetaMem,3.2.3,Win32,60
,,,,,,,,,,,,,,,,,,,,5,7.734000206,5,0.20600009,1,0,1200,1043,1,1199,scold,11126 ,2019-10-21_20h38.31.124,SurveyExpMetaMem,3.2.3,Win32,60
,,,,,,,,,,,,,,,,,,,,6,5.390000105,1,4.266000271,1,0,1200,1116,1,1199,emergency,11126 ,2019-10-21_20h38.31.124,SurveyExpMetaMem,3.2.3,Win32,60
,,,,,,,,,,,,,,,,,,,,5,4.321000338,5,1.299999952,1,0,1200,186,1,1199,holiday,11126 ,2019-10-21_20h38.31.124,SurveyExpMetaMem,3.2.3,Win32,60
,,,,,,,,,,,,,,,,,,,,2,7.267000198,9,4.45600009,1,0,1200,754,1,1199,reflection,11126 ,2019-10-21_20h38.31.124,SurveyExpMetaMem,3.2.3,Win32,60
,,,,,,,,,,,,,,,,,,,,5,1.878000259,5,0.408000231,1,0,1200,203,1,1199,seal,11126 ,2019-10-21_20h38.31.124,SurveyExpMetaMem,3.2.3,Win32,60
,,,,,,,,,,,,,,,,,,,,2,5.506999969,8,3.329000235,1,0,1200,842,1,1199,breathe,11126 ,2019-10-21_20h38.31.124,SurveyExpMetaMem,3.2.3,Win32,60
,,,,,,,,,,,,,,,,,,,,5,1.834000349,5,0.227000237,1,0,1200,695,1,1199,teacher,11126 ,2019-10-21_20h38.31.124,SurveyExpMetaMem,3.2.3,Win32,60
,,,,,,,,,,,,,,,,,,,,5,1.295000076,5,0.257000208,1,0,1200,701,1,1199,telephone,11126 ,2019-10-21_20h38.31.124,SurveyExpMetaMem,3.2.3,Win32,60
,,,,,,,,,,,,,,,,,,,,2,1.838000059,2,8.987000227,1,0,1200,1044,1,1199,lost,11126 ,2019-10-21_20h38.31.124,SurveyExpMetaMem,3.2.3,Win32,60
,,,,,,,,,,,,,,,,,,,,2,4.55700016,2,0.840000391,1,0,1200,546,1,1199,solemn,11126 ,2019-10-21_20h38.31.124,SurveyExpMetaMem,3.2.3,Win32,60
,,,,,,,,,,,,,,,,,,,,5,3.536000252,5,0.259000063,1,0,1200,70,1,1199,cartoon,11126 ,2019-10-21_20h38.31.124,SurveyExpMetaMem,3.2.3,Win32,60
,,,,,,,,,,,,,,,,,,,,5,1.345999956,5,0.372000217,1,0,1200,690,1,1199,similar,11126 ,2019-10-21_20h38.31.124,SurveyExpMetaMem,3.2.3,Win32,60
,,,,,,,,,,,,,,,,,,,,5,1.121000051,5,0.323000193,1,0,1200,226,1,1199,prize,11126 ,2019-10-21_20h38.31.124,SurveyExpMetaMem,3.2.3,Win32,60
,,,,,,,,,,,,,,,,,,,,6,4.306000233,1,1.160000086,1,0,1200,949,1,1199,thief,11126 ,2019-10-21_20h38.31.124,SurveyExpMetaMem,3.2.3,Win32,60
,,,,,,,,,,,,,,,,,,,,5,5.317000151,2,4.17200017,1,0,1200,549,1,1199,beet,11126 ,2019-10-21_20h38.31.124,SurveyExpMetaMem,3.2.3,Win32,60
,,,,,,,,,,,,,,,,,,,,6,3.284000158,6,1.99000001,1,0,1200,248,1,1199,win,11126 ,2019-10-21_20h38.31.124,SurveyExpMetaMem,3.2.3,Win32,60
,,,,,,,,,,,,,,,,,,,,5,1.848000288,5,0.347000122,1,0,1200,809,1,1199,boy,11126 ,2019-10-21_20h38.31.124,SurveyExpMetaMem,3.2.3,Win32,60
,,,,,,,,,,,,,,,,,,,,6,4.980000257,1,1.012000084,1,0,1200,1096,1,1199,flood,11126 ,2019-10-21_20h38.31.124,SurveyExpMetaMem,3.2.3,Win32,60
,,,,,,,,,,,,,,,,,,,,5,2.423000097,5,0.267000198,1,0,1200,152,1,1199,hire,11126 ,2019-10-21_20h38.31.124,SurveyExpMetaMem,3.2.3,Win32,60
,,,,,,,,,,,,,,,,,,,,5,1.355000257,5,0.312000036,1,0,1200,646,1,1199,wear,11126 ,2019-10-21_20h38.31.124,SurveyExpMetaMem,3.2.3,Win32,60
,,,,,,,,,,,,,,,,,,,,5,1.142000198,5,0.224000216,1,0,1200,797,1,1199,hamburger,11126 ,2019-10-21_20h38.31.124,SurveyExpMetaMem,3.2.3,Win32,60
,,,,,,,,,,,,,,,,,,,,6,3.202000141,1,1.838000298,1,0,1200,910,1,1199,abusive,11126 ,2019-10-21_20h38.31.124,SurveyExpMetaMem,3.2.3,Win32,60
,,,,,,,,,,,,,,,,,,,,5,6.943000317,5,0.279999971,1,0,1200,638,1,1199,quench,11126 ,2019-10-21_20h38.31.124,SurveyExpMetaMem,3.2.3,Win32,60
,,,,,,,,,,,,,,,,,,,,8,3.217000008,1,1.063000202,1,0,1200,929,1,1199,mutilation,11126 ,2019-10-21_20h38.31.124,SurveyExpMetaMem,3.2.3,Win32,60
,,,,,,,,,,,,,,,,,,,,6,3.731000185,6,1.219000101,1,0,1200,42,1,1199,accomplish,11126 ,2019-10-21_20h38.31.124,SurveyExpMetaMem,3.2.3,Win32,60
,,,,,,,,,,,,,,,,,,,,8,8.13800025,1,1.929000139,1,0,1200,1031,1,1199,fear,11126 ,2019-10-21_20h38.31.124,SurveyExpMetaMem,3.2.3,Win32,60
,,,,,,,,,,,,,,,,,,,,5,4.328000307,9,0.929000139,1,0,1200,139,1,1199,generosity,11126 ,2019-10-21_20h38.31.124,SurveyExpMetaMem,3.2.3,Win32,60
,,,,,,,,,,,,,,,,,,,,5,2.126000166,5,0.338000059,1,0,1200,913,1,1199,ulcer,11126 ,2019-10-21_20h38.31.124,SurveyExpMetaMem,3.2.3,Win32,60
,,,,,,,,,,,,,,,,,,,,5,2.54700017,5,0.248000145,1,0,1200,272,1,1199,confidence,11126 ,2019-10-21_20h38.31.124,SurveyExpMetaMem,3.2.3,Win32,60
,,,,,,,,,,,,,,,,,,,,5,1.220000267,5,0.248000145,1,0,1200,803,1,1199,tidy,11126 ,2019-10-21_20h38.31.124,SurveyExpMetaMem,3.2.3,Win32,60
,,,,,,,,,,,,,,,,,,,,5,1.552999973,5,0.203999996,1,0,1200,443,1,1199,incorrect,11126 ,2019-10-21_20h38.31.124,SurveyExpMetaMem,3.2.3,Win32,60
,,,,,,,,,,,,,,,,,,,,5,0.963000059,5,0.204000235,1,0,1200,128,1,1199,supper,11126 ,2019-10-21_20h38.31.124,SurveyExpMetaMem,3.2.3,Win32,60
,,,,,,,,,,,,,,,,,,,,2,6.261000156,6,1.174000263,1,0,1200,733,1,1199,poetry,11126 ,2019-10-21_20h38.31.124,SurveyExpMetaMem,3.2.3,Win32,60
,,,,,,,,,,,,,,,,,,,,5,3.561000347,5,0.253000259,1,0,1200,838,1,1199,nestle,11126 ,2019-10-21_20h38.31.124,SurveyExpMetaMem,3.2.3,Win32,60
,,,,,,,,,,,,,,,,,,,,6,3.143000126,6,1.944000244,1,0,1200,39,1,1199,birth,11126 ,2019-10-21_20h38.31.124,SurveyExpMetaMem,3.2.3,Win32,60
,,,,,,,,,,,,,,,,,,,,7,3.986000061,6,1.577000141,1,0,1200,185,1,1199,flirt,11126 ,2019-10-21_20h38.31.124,SurveyExpMetaMem,3.2.3,Win32,60
,,,,,,,,,,,,,,,,,,,,2,3.853000164,2,0.589000225,1,0,1200,934,1,1199,sob,11126 ,2019-10-21_20h38.31.124,SurveyExpMetaMem,3.2.3,Win32,60
,,,,,,,,,,,,,,,,,,,,5,1.51300025,5,0.193000078,1,0,1200,615,1,1199,lad,11126 ,2019-10-21_20h38.31.124,SurveyExpMetaMem,3.2.3,Win32,60
,,,,,,,,,,,,,,,,,,,,5,2.267000198,7,1.18900013,1,0,1200,190,1,1199,rescue,11126 ,2019-10-21_20h38.31.124,SurveyExpMetaMem,3.2.3,Win32,60
,,,,,,,,,,,,,,,,,,,,5,2.116000175,5,0.193000078,1,0,1200,693,1,1199,key,11126 ,2019-10-21_20h38.31.124,SurveyExpMetaMem,3.2.3,Win32,60
,,,,,,,,,,,,,,,,,,,,2,2.856000185,6,0.932000399,1,0,1200,826,1,1199,poem,11126 ,2019-10-21_20h38.31.124,SurveyExpMetaMem,3.2.3,Win32,60
,,,,,,,,,,,,,,,,,,,,5,4.802000046,5,0.27300024,1,0,1200,973,1,1199,anger,11126 ,2019-10-21_20h38.31.124,SurveyExpMetaMem,3.2.3,Win32,60
,,,,,,,,,,,,,,,,,,,,5,1.785000086,5,0.220000267,1,0,1200,520,1,1199,gullible,11126 ,2019-10-21_20h38.31.124,SurveyExpMetaMem,3.2.3,Win32,60
,,,,,,,,,,,,,,,,,,,,2,2.544000149,3,2.536000252,1,0,1200,878,1,1199,sleep,11126 ,2019-10-21_20h38.31.124,SurveyExpMetaMem,3.2.3,Win32,60
,,,,,,,,,,,,,,,,,,,,5,4.13800025,5,0.311000109,1,0,1200,1067,1,1199,wicked,11126 ,2019-10-21_20h38.31.124,SurveyExpMetaMem,3.2.3,Win32,60
,,,,,,,,,,,,,,,,,,,,5,1.440000057,5,0.236999989,1,0,1200,680,1,1199,candle,11126 ,2019-10-21_20h38.31.124,SurveyExpMetaMem,3.2.3,Win32,60
,,,,,,,,,,,,,,,,,,,,6,4.786000252,2,1.476000309,1,0,1200,350,1,1199,inadequate,11126 ,2019-10-21_20h38.31.124,SurveyExpMetaMem,3.2.3,Win32,60
,,,,,,,,,,,,,,,,,,,,5,15.0400002,5,0.27300024,1,0,1200,224,1,1199,strengthen,11126 ,2019-10-21_20h38.31.124,SurveyExpMetaMem,3.2.3,Win32,60
,,,,,,,,,,,,,,,,,,,,5,2.839000225,5,0.355000257,1,0,1200,133,1,1199,prosperous,11126 ,2019-10-21_20h38.31.124,SurveyExpMetaMem,3.2.3,Win32,60
,,,,,,,,,,,,,,,,,,,,6,4.29700017,1,1.487000227,1,0,1200,903,1,1199,cancer,11126 ,2019-10-21_20h38.31.124,SurveyExpMetaMem,3.2.3,Win32,60
,,,,,,,,,,,,,,,,,,,,5,2.059000254,5,0.54700017,1,0,1200,494,1,1199,butcher,11126 ,2019-10-21_20h38.31.124,SurveyExpMetaMem,3.2.3,Win32,60
,,,,,,,,,,,,,,,,,,,,5,1.486000299,5,0.24600029,1,0,1200,349,1,1199,mope,11126 ,2019-10-21_20h38.31.124,SurveyExpMetaMem,3.2.3,Win32,60
,,,,,,,,,,,,,,,,,,,,5,1.801000357,5,0.226999998,1,0,1200,354,1,1199,cowardice,11126 ,2019-10-21_20h38.31.124,SurveyExpMetaMem,3.2.3,Win32,60
,,,,,,,,,,,,,,,,,,,,5,6.784000158,5,0.218000174,1,0,1200,1166,1,1199,compulsive,11126 ,2019-10-21_20h38.31.124,SurveyExpMetaMem,3.2.3,Win32,60
,,,,,,,,,,,,,,,,,,,,2,5.759000063,4,3.183000326,1,0,1200,126,1,1199,rich,11126 ,2019-10-21_20h38.31.124,SurveyExpMetaMem,3.2.3,Win32,60
,,,,,,,,,,,,,,,,,,,,5,4.958000183,5,0.446000099,1,0,1200,1108,1,1199,spider,11126 ,2019-10-21_20h38.31.124,SurveyExpMetaMem,3.2.3,Win32,60
,,,,,,,,,,,,,,,,,,,,6,4.821000099,2,0.741000175,1,0,1200,336,1,1199,wasteful,11126 ,2019-10-21_20h38.31.124,SurveyExpMetaMem,3.2.3,Win32,60
,,,,,,,,,,,,,,,,,,,,2,9.909000158,8,2.132000208,1,0,1200,192,1,1199,pleased,11126 ,2019-10-21_20h38.31.124,SurveyExpMetaMem,3.2.3,Win32,60
,,,,,,,,,,,,,,,,,,,,6,6.52300024,3,0.426000118,1,0,1200,448,1,1199,depart,11126 ,2019-10-21_20h38.31.124,SurveyExpMetaMem,3.2.3,Win32,60
,,,,,,,,,,,,,,,,,,,,7,3.705000162,2,1.17200017,1,0,1200,1070,1,1199,bleed,11126 ,2019-10-21_20h38.31.124,SurveyExpMetaMem,3.2.3,Win32,60
,,,,,,,,,,,,,,,,,,,,5,3.517000198,5,0.380000353,1,0,1200,110,1,1199,animal,11126 ,2019-10-21_20h38.31.124,SurveyExpMetaMem,3.2.3,Win32,60
,,,,,,,,,,,,,,,,,,,,9,3.500000238,9,1.200000048,1,0,1200,102,1,1199,motorcycle,11126 ,2019-10-21_20h38.31.124,SurveyExpMetaMem,3.2.3,Win32,60
,,,,,,,,,,,,,,,,,,,,5,5.53000021,5,0.258000135,1,0,1200,850,1,1199,lake,11126 ,2019-10-21_20h38.31.124,SurveyExpMetaMem,3.2.3,Win32,60
,,,,,,,,,,,,,,,,,,,,5,1.048000097,5,0.27300024,1,0,1200,206,1,1199,comet,11126 ,2019-10-21_20h38.31.124,SurveyExpMetaMem,3.2.3,Win32,60
,,,,,,,,,,,,,,,,,,,,5,1.110000134,5,0.316000223,1,0,1200,341,1,1199,stinky,11126 ,2019-10-21_20h38.31.124,SurveyExpMetaMem,3.2.3,Win32,60
,,,,,,,,,,,,,,,,,,,,5,2.318000078,5,0.370000124,1,0,1200,103,1,1199,conquest,11126 ,2019-10-21_20h38.31.124,SurveyExpMetaMem,3.2.3,Win32,60
,,,,,,,,,,,,,,,,,,,,5,3.421000242,5,0.289000273,1,0,1200,200,1,1199,preach,11126 ,2019-10-21_20h38.31.124,SurveyExpMetaMem,3.2.3,Win32,60
,,,,,,,,,,,,,,,,,,,,6,3.012000084,6,0.379000187,1,0,1200,26,1,1199,inspired,11126 ,2019-10-21_20h38.31.124,SurveyExpMetaMem,3.2.3,Win32,60
,,,,,,,,,,,,,,,,,,,,5,2.83100009,5,0.359000206,1,0,1200,425,1,1199,crutch,11126 ,2019-10-21_20h38.31.124,SurveyExpMetaMem,3.2.3,Win32,60
,,,,,,,,,,,,,,,,,,,,5,5.071000338,5,0.25600028,1,0,1200,229,1,1199,heaven,11126 ,2019-10-21_20h38.31.124,SurveyExpMetaMem,3.2.3,Win32,60
,,,,,,,,,,,,,,,,,,,,2,2.077000141,2,2.428000212,1,0,1200,559,1,1199,lazy,11126 ,2019-10-21_20h38.31.124,SurveyExpMetaMem,3.2.3,Win32,60
,,,,,,,,,,,,,,,,,,,,5,2.050000191,5,0.281000137,1,0,1200,50,1,1199,bolt,11126 ,2019-10-21_20h38.31.124,SurveyExpMetaMem,3.2.3,Win32,60
,,,,,,,,,,,,,,,,,,,,5,1.427999973,5,0.322000265,1,0,1200,252,1,1199,infatuated,11126 ,2019-10-21_20h38.31.124,SurveyExpMetaMem,3.2.3,Win32,60
,,,,,,,,,,,,,,,,,,,,6,2.821000099,2,0.702000141,1,0,1200,1007,1,1199,tornado,11126 ,2019-10-21_20h38.31.124,SurveyExpMetaMem,3.2.3,Win32,60
,,,,,,,,,,,,,,,,,,,,8,5.082000256,8,1.541000128,1,0,1200,661,1,1199,cow,11126 ,2019-10-21_20h38.31.124,SurveyExpMetaMem,3.2.3,Win32,60
,,,,,,,,,,,,,,,,,,,,5,4.584000111,5,0.380000114,1,0,1200,584,1,1199,anus,11126 ,2019-10-21_20h38.31.124,SurveyExpMetaMem,3.2.3,Win32,60
,,,,,,,,,,,,,,,,,,,,2,4.542000055,9,1.295000076,1,0,1200,835,1,1199,helpful,11126 ,2019-10-21_20h38.31.124,SurveyExpMetaMem,3.2.3,Win32,60
,,,,,,,,,,,,,,,,,,,,7,2.973999977,2,0.443000078,1,0,1200,964,1,1199,grieve,11126 ,2019-10-21_20h38.31.124,SurveyExpMetaMem,3.2.3,Win32,60
,,,,,,,,,,,,,,,,,,,,5,2.105000257,5,0.748000145,1,0,1200,356,1,1199,mucous,11126 ,2019-10-21_20h38.31.124,SurveyExpMetaMem,3.2.3,Win32,60
,,,,,,,,,,,,,,,,,,,,5,4.291000128,5,0.440000296,1,0,1200,591,1,1199,bereavement,11126 ,2019-10-21_20h38.31.124,SurveyExpMetaMem,3.2.3,Win32,60
,,,,,,,,,,,,,,,,,,,,5,1.789000273,5,0.247000217,1,0,1200,621,1,1199,chew,11126 ,2019-10-21_20h38.31.124,SurveyExpMetaMem,3.2.3,Win32,60
,,,,,,,,,,,,,,,,,,,,5,1.937000275,5,0.289000273,1,0,1200,1068,1,1199,riot,11126 ,2019-10-21_20h38.31.124,SurveyExpMetaMem,3.2.3,Win32,60
,,,,,,,,,,,,,,,,,,,,6,3.741000175,6,0.270000219,1,0,1200,281,1,1199,summer,11126 ,2019-10-21_20h38.31.124,SurveyExpMetaMem,3.2.3,Win32,60
,,,,,,,,,,,,,,,,,,,,5,1.903000355,5,0.256000042,1,0,1200,613,1,1199,cup,11126 ,2019-10-21_20h38.31.124,SurveyExpMetaMem,3.2.3,Win32,60
,,,,,,,,,,,,,,,,,,,,2,5.435000181,6,0.571000099,1,0,1200,882,1,1199,gentle,11126 ,2019-10-21_20h38.31.124,SurveyExpMetaMem,3.2.3,Win32,60
,,,,,,,,,,,,,,,,,,,,5,4.110000134,5,0.240000248,1,0,1200,178,1,1199,alive,11126 ,2019-10-21_20h38.31.124,SurveyExpMetaMem,3.2.3,Win32,60
,,,,,,,,,,,,,,,,,,,,5,1.521000147,5,0.232000113,1,0,1200,945,1,1199,demon,11126 ,2019-10-21_20h38.31.124,SurveyExpMetaMem,3.2.3,Win32,60
,,,,,,,,,,,,,,,,,,,,5,1.244000196,5,0.320000172,1,0,1200,1010,1,1199,arson,11126 ,2019-10-21_20h38.31.124,SurveyExpMetaMem,3.2.3,Win32,60
,,,,,,,,,,,,,,,,,,,,6,4.070000172,3,0.539999962,1,0,1200,959,1,1199,divorce,11126 ,2019-10-21_20h38.31.124,SurveyExpMetaMem,3.2.3,Win32,60
,,,,,,,,,,,,,,,,,,,,5,1.674000025,5,0.35800004,1,0,1200,232,1,1199,prosper,11126 ,2019-10-21_20h38.31.124,SurveyExpMetaMem,3.2.3,Win32,60
,,,,,,,,,,,,,,,,,,,,2,7.746000051,6,0.649000168,1,0,1200,474,1,1199,weary,11126 ,2019-10-21_20h38.31.124,SurveyExpMetaMem,3.2.3,Win32,60
,,,,,,,,,,,,,,,,,,,,5,8.234000206,5,0.241000175,1,0,1200,746,1,1199,proper,11126 ,2019-10-21_20h38.31.124,SurveyExpMetaMem,3.2.3,Win32,60
,,,,,,,,,,,,,,,,,,,,5,1.037000179,5,0.261000156,1,0,1200,847,1,1199,moon,11126 ,2019-10-21_20h38.31.124,SurveyExpMetaMem,3.2.3,Win32,60
,,,,,,,,,,,,,,,,,,,,5,1.632000208,5,0.387000322,1,0,1200,57,1,1199,important,11126 ,2019-10-21_20h38.31.124,SurveyExpMetaMem,3.2.3,Win32,60
,,,,,,,,,,,,,,,,,,,,2,3.976000071,6,0.316000223,1,0,1200,875,1,1199,fluffy,11126 ,2019-10-21_20h38.31.124,SurveyExpMetaMem,3.2.3,Win32,60
,,,,,,,,,,,,,,,,,,,,5,1.209000349,5,0.271000147,1,0,1200,675,1,1199,golfer,11126 ,2019-10-21_20h38.31.124,SurveyExpMetaMem,3.2.3,Win32,60
,,,,,,,,,,,,,,,,,,,,5,0.848000288,5,0.670000315,1,0,1200,329,1,1199,worse,11126 ,2019-10-21_20h38.31.124,SurveyExpMetaMem,3.2.3,Win32,60
,,,,,,,,,,,,,,,,,,,,5,1.36400032,5,0.387000084,1,0,1200,652,1,1199,tend,11126 ,2019-10-21_20h38.31.124,SurveyExpMetaMem,3.2.3,Win32,60
,,,,,,,,,,,,,,,,,,,,5,0.070000172,5,2.063000202,1,0,1200,761,1,1199,corn,11126 ,2019-10-21_20h38.31.124,SurveyExpMetaMem,3.2.3,Win32,60
,,,,,,,,,,,,,,,,,,,,5,1.07400012,5,0.317000151,1,0,1200,151,1,1199,react,11126 ,2019-10-21_20h38.31.124,SurveyExpMetaMem,3.2.3,Win32,60
,,,,,,,,,,,,,,,,,,,,7,2.584000111,1,0.437000036,1,0,1200,1003,1,1199,jealousy,11126 ,2019-10-21_20h38.31.124,SurveyExpMetaMem,3.2.3,Win32,60
,,,,,,,,,,,,,,,,,,,,6,2.84800005,6,0.237000227,1,0,1200,81,1,1199,best,11126 ,2019-10-21_20h38.31.124,SurveyExpMetaMem,3.2.3,Win32,60
,,,,,,,,,,,,,,,,,,,,5,2.10800004,5,0.274000168,1,0,1200,974,1,1199,roach,11126 ,2019-10-21_20h38.31.124,SurveyExpMetaMem,3.2.3,Win32,60
,,,,,,,,,,,,,,,,,,,,5,0.945000172,5,0.309000015,1,0,1200,937,1,1199,prison,11126 ,2019-10-21_20h38.31.124,SurveyExpMetaMem,3.2.3,Win32,60
,,,,,,,,,,,,,,,,,,,,5,2.324000359,5,0.304000139,1,0,1200,839,1,1199,flower,11126 ,2019-10-21_20h38.31.124,SurveyExpMetaMem,3.2.3,Win32,60
,,,,,,,,,,,,,,,,,,,,5,1.735000134,5,0.287000179,1,0,1200,215,1,1199,salary,11126 ,2019-10-21_20h38.31.124,SurveyExpMetaMem,3.2.3,Win32,60
,,,,,,,,,,,,,,,,,,,,2,3.653000116,7,2.188000202,1,0,1200,897,1,1199,peaceful,11126 ,2019-10-21_20h38.31.124,SurveyExpMetaMem,3.2.3,Win32,60
,,,,,,,,,,,,,,,,,,,,5,1.390000343,5,0.42200017,1,0,1200,46,1,1199,god,11126 ,2019-10-21_20h38.31.124,SurveyExpMetaMem,3.2.3,Win32,60
,,,,,,,,,,,,,,,,,,,,5,1.512000084,5,0.322000027,1,0,1200,426,1,1199,con,11126 ,2019-10-21_20h38.31.124,SurveyExpMetaMem,3.2.3,Win32,60
,,,,,,,,,,,,,,,,,,,,5,1.401000261,5,0.35400033,1,0,1200,645,1,1199,telescope,11126 ,2019-10-21_20h38.31.124,SurveyExpMetaMem,3.2.3,Win32,60
,,,,,,,,,,,,,,,,,,,,5,9.414000034,5,0.334000349,1,0,1200,194,1,1199,celebration,11126 ,2019-10-21_20h38.31.124,SurveyExpMetaMem,3.2.3,Win32,60
,,,,,,,,,,,,,,,,,,,,5,1.09100008,5,0.305000067,1,0,1200,435,1,1199,grovel,11126 ,2019-10-21_20h38.31.124,SurveyExpMetaMem,3.2.3,Win32,60
,,,,,,,,,,,,,,,,,,,,8,4.437000036,8,3.309000254,1,0,1200,108,1,1199,naked,11126 ,2019-10-21_20h38.31.124,SurveyExpMetaMem,3.2.3,Win32,60
,,,,,,,,,,,,,,,,,,,,5,3,5,0.361999989,1,0,1200,1109,1,1199,germ,11126 ,2019-10-21_20h38.31.124,SurveyExpMetaMem,3.2.3,Win32,60
,,,,,,,,,,,,,,,,,,,,6,2.969000101,2,0.186000109,1,0,1200,919,1,1199,loss,11126 ,2019-10-21_20h38.31.124,SurveyExpMetaMem,3.2.3,Win32,60
,,,,,,,,,,,,,,,,,,,,5,4.715000153,5,0.320000172,1,0,1200,879,1,1199,bird,11126 ,2019-10-21_20h38.31.124,SurveyExpMetaMem,3.2.3,Win32,60
,,,,,,,,,,,,,,,,,,,,6,4.231000185,3,4.387000322,1,0,1200,212,1,1199,belief,11126 ,2019-10-21_20h38.31.124,SurveyExpMetaMem,3.2.3,Win32,60
,,,,,,,,,,,,,,,,,,,,5,2.361000299,5,0.338000298,1,0,1200,589,1,1199,coarse,11126 ,2019-10-21_20h38.31.124,SurveyExpMetaMem,3.2.3,Win32,60
,,,,,,,,,,,,,,,,,,,,5,1.004000187,5,0.470000267,1,0,1200,657,1,1199,peanut,11126 ,2019-10-21_20h38.31.124,SurveyExpMetaMem,3.2.3,Win32,60
,,,,,,,,,,,,,,,,,,,,5,1.103000164,5,0.370000124,1,0,1200,681,1,1199,fig,11126 ,2019-10-21_20h38.31.124,SurveyExpMetaMem,3.2.3,Win32,60
,,,,,,,,,,,,,,,,,,,,5,1.238000154,5,0.520000219,1,0,1200,234,1,1199,redeem,11126 ,2019-10-21_20h38.31.124,SurveyExpMetaMem,3.2.3,Win32,60
,,,,,,,,,,,,,,,,,,,,6,3.887000084,7,0.359000206,1,0,1200,884,1,1199,grateful,11126 ,2019-10-21_20h38.31.124,SurveyExpMetaMem,3.2.3,Win32,60
,,,,,,,,,,,,,,,,,,,,5,1.468000174,5,0.230000257,1,0,1200,445,1,1199,bleak,11126 ,2019-10-21_20h38.31.124,SurveyExpMetaMem,3.2.3,Win32,60
,,,,,,,,,,,,,,,,,,,,5,2.078000069,5,0.25,1,0,1200,819,1,1199,sheep,11126 ,2019-10-21_20h38.31.124,SurveyExpMetaMem,3.2.3,Win32,60
,,,,,,,,,,,,,,,,,,,,7,3.921000242,3,0.161000252,1,0,1200,968,1,1199,insult,11126 ,2019-10-21_20h38.31.124,SurveyExpMetaMem,3.2.3,Win32,60
,,,,,,,,,,,,,,,,,,,,5,2.43200016,5,0.24600029,1,0,1200,23,1,1199,earn,11126 ,2019-10-21_20h38.31.124,SurveyExpMetaMem,3.2.3,Win32,60
,,,,,,,,,,,,,,,,,,,,5,0.819000244,5,0.238000154,1,0,1200,116,1,1199,carnival,11126 ,2019-10-21_20h38.31.124,SurveyExpMetaMem,3.2.3,Win32,60
,,,,,,,,,,,,,,,,,,,,5,1.15500021,5,0.265000105,1,0,1200,689,1,1199,land,11126 ,2019-10-21_20h38.31.124,SurveyExpMetaMem,3.2.3,Win32,60
,,,,,,,,,,,,,,,,,,,,5,7.060000181,5,0.879000187,1,0,1200,29,1,1199,life,11126 ,2019-10-21_20h38.31.124,SurveyExpMetaMem,3.2.3,Win32,60
,,,,,,,,,,,,,,,,,,,,5,1.151000023,5,0.321000099,1,0,1200,611,1,1199,herring,11126 ,2019-10-21_20h38.31.124,SurveyExpMetaMem,3.2.3,Win32,60
,,,,,,,,,,,,,,,,,,,,5,1.080000162,5,0.29700017,1,0,1200,741,1,1199,wheat,11126 ,2019-10-21_20h38.31.124,SurveyExpMetaMem,3.2.3,Win32,60
,,,,,,,,,,,,,,,,,,,,5,1.105000019,5,0.254000187,1,0,1200,607,1,1199,greyhound,11126 ,2019-10-21_20h38.31.124,SurveyExpMetaMem,3.2.3,Win32,60
,,,,,,,,,,,,,,,,,,,,5,0.923000097,5,0.25,1,0,1200,579,1,1199,bus,11126 ,2019-10-21_20h38.31.124,SurveyExpMetaMem,3.2.3,Win32,60
,,,,,,,,,,,,,,,,,,,,5,0.852000237,9,4.440000296,1,0,1200,893,1,1199,nature,11126 ,2019-10-21_20h38.31.124,SurveyExpMetaMem,3.2.3,Win32,60
,,,,,,,,,,,,,,,,,,,,6,6.105000257,9,1.452000141,1,0,1200,105,1,1199,curious,11126 ,2019-10-21_20h38.31.124,SurveyExpMetaMem,3.2.3,Win32,60
,,,,,,,,,,,,,,,,,,,,6,3.805000067,8,1.045000076,1,0,1200,88,1,1199,ambitious,11126 ,2019-10-21_20h38.31.124,SurveyExpMetaMem,3.2.3,Win32,60
,,,,,,,,,,,,,,,,,,,,5,4.05700016,5,0.460000277,1,0,1200,498,1,1199,alimony,11126 ,2019-10-21_20h38.31.124,SurveyExpMetaMem,3.2.3,Win32,60
,,,,,,,,,,,,,,,,,,,,5,0.861000061,5,0.425000191,1,0,1200,220,1,1199,reef,11126 ,2019-10-21_20h38.31.124,SurveyExpMetaMem,3.2.3,Win32,60
,,,,,,,,,,,,,,,,,,,,5,1.005000114,5,0.403000116,1,0,1200,154,1,1199,race,11126 ,2019-10-21_20h38.31.124,SurveyExpMetaMem,3.2.3,Win32,60
,,,,,,,,,,,,,,,,,,,,5,0.988000154,5,0.303000212,1,0,1200,289,1,1199,concert,11126 ,2019-10-21_20h38.31.124,SurveyExpMetaMem,3.2.3,Win32,60
,,,,,,,,,,,,,,,,,,,,5,1.179000139,5,0.330000162,1,0,1200,423,1,1199,stain,11126 ,2019-10-21_20h38.31.124,SurveyExpMetaMem,3.2.3,Win32,60
,,,,,,,,,,,,,,,,,,,,6,2.62100029,7,1.436000109,1,0,1200,77,1,1199,adore,11126 ,2019-10-21_20h38.31.124,SurveyExpMetaMem,3.2.3,Win32,60
,,,,,,,,,,,,,,,,,,,,5,0.92200017,5,0.264000177,1,0,1200,1162,1,1199,baffle,11126 ,2019-10-21_20h38.31.124,SurveyExpMetaMem,3.2.3,Win32,60
,,,,,,,,,,,,,,,,,,,,6,4.124000311,7,1.524000168,1,0,1200,30,1,1199,impressed,11126 ,2019-10-21_20h38.31.124,SurveyExpMetaMem,3.2.3,Win32,60
,,,,,,,,,,,,,,,,,,,,5,1.203999996,5,0.337000132,1,0,1200,251,1,1199,meteor,11126 ,2019-10-21_20h38.31.124,SurveyExpMetaMem,3.2.3,Win32,60
,,,,,,,,,,,,,,,,,,,,5,1.239000082,5,0.288000107,1,0,1200,286,1,1199,superstar,11126 ,2019-10-21_20h38.31.124,SurveyExpMetaMem,3.2.3,Win32,60
,,,,,,,,,,,,,,,,,,,,5,3.060000181,5,0.274000168,1,0,1200,734,1,1199,piano,11126 ,2019-10-21_20h38.31.124,SurveyExpMetaMem,3.2.3,Win32,60
,,,,,,,,,,,,,,,,,,,,5,1.519000053,5,0.231000185,1,0,1200,176,1,1199,champ,11126 ,2019-10-21_20h38.31.124,SurveyExpMetaMem,3.2.3,Win32,60
,,,,,,,,,,,,,,,,,,,,5,0.837000132,5,0.258000135,1,0,1200,179,1,1199,star,11126 ,2019-10-21_20h38.31.124,SurveyExpMetaMem,3.2.3,Win32,60
,,,,,,,,,,,,,,,,,,,,7,3.319000006,2,1.452000141,1,0,1200,987,1,1199,disgusted,11126 ,2019-10-21_20h38.31.124,SurveyExpMetaMem,3.2.3,Win32,60
,,,,,,,,,,,,,,,,,,,,5,1.593000174,5,0.244000196,1,0,1200,437,1,1199,blubber,11126 ,2019-10-21_20h38.31.124,SurveyExpMetaMem,3.2.3,Win32,60
,,,,,,,,,,,,,,,,,,,,6,13.12700033,4,2.872000217,1,0,1200,542,1,1199,loose,11126 ,2019-10-21_20h38.31.124,SurveyExpMetaMem,3.2.3,Win32,60
,,,,,,,,,,,,,,,,,,,,5,2.935000181,5,0.26300025,1,0,1200,391,1,1199,detach,11126 ,2019-10-21_20h38.31.124,SurveyExpMetaMem,3.2.3,Win32,60
,,,,,,,,,,,,,,,,,,,,6,5.164000273,4,0.488000154,1,0,1200,1073,1,1199,bitch,11126 ,2019-10-21_20h38.31.124,SurveyExpMetaMem,3.2.3,Win32,60
,,,,,,,,,,,,,,,,,,,,5,3.924000025,5,0.238000154,1,0,1200,632,1,1199,avenue,11126 ,2019-10-21_20h38.31.124,SurveyExpMetaMem,3.2.3,Win32,60
,,,,,,,,,,,,,,,,,,,,5,0.853000164,5,0.349000216,1,0,1200,544,1,1199,snail,11126 ,2019-10-21_20h38.31.124,SurveyExpMetaMem,3.2.3,Win32,60
,,,,,,,,,,,,,,,,,,,,7,2.283000231,2,1.329000235,1,0,1200,347,1,1199,unpleasant,11126 ,2019-10-21_20h38.31.124,SurveyExpMetaMem,3.2.3,Win32,60
,,,,,,,,,,,,,,,,,,,,5,1.695000172,5,0.373000145,1,0,1200,768,1,1199,trait,11126 ,2019-10-21_20h38.31.124,SurveyExpMetaMem,3.2.3,Win32,60
,,,,,,,,,,,,,,,,,,,,6,3.590000153,2,1.62100029,1,0,1200,1004,1,1199,burglar,11126 ,2019-10-21_20h38.31.124,SurveyExpMetaMem,3.2.3,Win32,60
,,,,,,,,,,,,,,,,,,,,7,5.18900013,3,1.310000181,1,0,1200,390,1,1199,impair,11126 ,2019-10-21_20h38.31.124,SurveyExpMetaMem,3.2.3,Win32,60
,,,,,,,,,,,,,,,,,,,,5,3.267000198,6,2.025000334,1,0,1200,282,1,1199,luck,11126 ,2019-10-21_20h38.31.124,SurveyExpMetaMem,3.2.3,Win32,60
,,,,,,,,,,,,,,,,,,,,5,1.420000076,5,0.406000137,1,0,1200,874,1,1199,butterfly,11126 ,2019-10-21_20h38.31.124,SurveyExpMetaMem,3.2.3,Win32,60
,,,,,,,,,,,,,,,,,,,,5,1.653000116,5,0.308000088,1,0,1200,531,1,1199,omit,11126 ,2019-10-21_20h38.31.124,SurveyExpMetaMem,3.2.3,Win32,60
,,,,,,,,,,,,,,,,,,,,7,5.004000187,4,4.437000036,1,0,1200,1027,1,1199,criticism,11126 ,2019-10-21_20h38.31.124,SurveyExpMetaMem,3.2.3,Win32,60
,,,,,,,,,,,,,,,,,,,,6,8.379000187,7,0.719000101,1,0,1200,427,1,1199,doubt,11126 ,2019-10-21_20h38.31.124,SurveyExpMetaMem,3.2.3,Win32,60
,,,,,,,,,,,,,,,,,,,,5,1.226000071,5,0.287000179,1,0,1200,631,1,1199,delicate,11126 ,2019-10-21_20h38.31.124,SurveyExpMetaMem,3.2.3,Win32,60
,,,,,,,,,,,,,,,,,,,,5,1.53000021,5,0.259000301,1,0,1200,361,1,1199,glum,11126 ,2019-10-21_20h38.31.124,SurveyExpMetaMem,3.2.3,Win32,60
,,,,,,,,,,,,,,,,,,,,5,0.829000235,5,0.254000187,1,0,1200,460,1,1199,rag,11126 ,2019-10-21_20h38.31.124,SurveyExpMetaMem,3.2.3,Win32,60
,,,,,,,,,,,,,,,,,,,,5,5.86500001,5,0.235000134,1,0,1200,183,1,1199,congratulate,11126 ,2019-10-21_20h38.31.124,SurveyExpMetaMem,3.2.3,Win32,60
,,,,,,,,,,,,,,,,,,,,6,4.100000143,3,0.588000298,1,0,1200,977,1,1199,choke,11126 ,2019-10-21_20h38.31.124,SurveyExpMetaMem,3.2.3,Win32,60
,,,,,,,,,,,,,,,,,,,,5,1.566000223,5,0.241000175,1,0,1200,637,1,1199,flock,11126 ,2019-10-21_20h38.31.124,SurveyExpMetaMem,3.2.3,Win32,60
,,,,,,,,,,,,,,,,,,,,7,2.123000145,7,0.573000193,1,0,1200,115,1,1199,sexual,11126 ,2019-10-21_20h38.31.124,SurveyExpMetaMem,3.2.3,Win32,60
,,,,,,,,,,,,,,,,,,,,6,5.561000109,4,0.460000038,1,0,1200,411,1,1199,bitter,11126 ,2019-10-21_20h38.31.124,SurveyExpMetaMem,3.2.3,Win32,60
,,,,,,,,,,,,,,,,,,,,5,0.96900034,5,0.232000113,1,0,1200,104,1,1199,freeway,11126 ,2019-10-21_20h38.31.124,SurveyExpMetaMem,3.2.3,Win32,60
,,,,,,,,,,,,,,,,,,,,5,1.418000221,5,0.379000187,1,0,1200,994,1,1199,repulsed,11126 ,2019-10-21_20h38.31.124,SurveyExpMetaMem,3.2.3,Win32,60
,,,,,,,,,,,,,,,,,,,,7,5.113000154,8,2.270000219,1,0,1200,15,1,1199,curiosity,11126 ,2019-10-21_20h38.31.124,SurveyExpMetaMem,3.2.3,Win32,60
,,,,,,,,,,,,,,,,,,,,5,2.124000072,5,0.279000044,1,0,1200,31,1,1199,brownie,11126 ,2019-10-21_20h38.31.124,SurveyExpMetaMem,3.2.3,Win32,60
,,,,,,,,,,,,,,,,,,,,5,0.994000196,5,0.279000044,1,0,1200,577,1,1199,retreat,11126 ,2019-10-21_20h38.31.124,SurveyExpMetaMem,3.2.3,Win32,60
,,,,,,,,,,,,,,,,,,,,5,1.052000284,5,0.259000063,1,0,1200,799,1,1199,precise,11126 ,2019-10-21_20h38.31.124,SurveyExpMetaMem,3.2.3,Win32,60
,,,,,,,,,,,,,,,,,,,,5,1.191000223,5,0.243000269,1,0,1200,1035,1,1199,expel,11126 ,2019-10-21_20h38.31.124,SurveyExpMetaMem,3.2.3,Win32,60
,,,,,,,,,,,,,,,,,,,,5,21.05200005,5,0.226000309,1,0,1200,230,1,1199,eager,11126 ,2019-10-21_20h38.31.124,SurveyExpMetaMem,3.2.3,Win32,60
,,,,,,,,,,,,,,,,,,,,5,0.711000204,5,0.365000248,1,0,1200,260,1,1199,control,11126 ,2019-10-21_20h38.31.124,SurveyExpMetaMem,3.2.3,Win32,60
,,,,,,,,,,,,,,,,,,,,6,2.240000248,3,0.4150002,1,0,1200,1137,1,1199,knife,11126 ,2019-10-21_20h38.31.124,SurveyExpMetaMem,3.2.3,Win32,60
,,,,,,,,,,,,,,,,,,,,6,15.05500031,3,0.476999998,1,0,1200,961,1,1199,crucify,11126 ,2019-10-21_20h38.31.124,SurveyExpMetaMem,3.2.3,Win32,60
,,,,,,,,,,,,,,,,,,,,3,0.019000053,5,1.032999992,1,0,1200,1195,1,1199,speech,11126 ,2019-10-21_20h38.31.124,SurveyExpMetaMem,3.2.3,Win32,60
,,,,,,,,,,,,,,,,,,,,5,0.549000025,5,0.009000301,1,0,1200,237,1,1199,beautiful,11126 ,2019-10-21_20h38.31.124,SurveyExpMetaMem,3.2.3,Win32,60
,,,,,,,,,,,,,,,,,,,,2,7.238000154,7,0.506000042,1,0,1200,833,1,1199,nice,11126 ,2019-10-21_20h38.31.124,SurveyExpMetaMem,3.2.3,Win32,60
,,,,,,,,,,,,,,,,,,,,2,4.007000208,8,0.608000278,1,0,1200,817,1,1199,countryside,11126 ,2019-10-21_20h38.31.124,SurveyExpMetaMem,3.2.3,Win32,60
,,,,,,,,,,,,,,,,,,,,5,1.120000124,5,0.757000208,1,0,1200,1141,1,1199,shark,11126 ,2019-10-21_20h38.31.124,SurveyExpMetaMem,3.2.3,Win32,60
,,,,,,,,,,,,,,,,,,,,5,13.24800014,5,0.40500021,1,0,1200,422,1,1199,doubtful,11126 ,2019-10-21_20h38.31.124,SurveyExpMetaMem,3.2.3,Win32,60
,,,,,,,,,,,,,,,,,,,,7,4.254000187,3,1.156000137,1,0,1200,1052,1,1199,angry,11126 ,2019-10-21_20h38.31.124,SurveyExpMetaMem,3.2.3,Win32,60
,,,,,,,,,,,,,,,,,,,,2,5.11400032,7,0.952000141,1,0,1200,671,1,1199,windmill,11126 ,2019-10-21_20h38.31.124,SurveyExpMetaMem,3.2.3,Win32,60
,,,,,,,,,,,,,,,,,,,,6,7.545000315,2,0.786000252,1,0,1200,342,1,1199,alienation,11126 ,2019-10-21_20h38.31.124,SurveyExpMetaMem,3.2.3,Win32,60
,,,,,,,,,,,,,,,,,,,,7,2.139000177,1,1.702000141,1,0,1200,1012,1,1199,gunshot,11126 ,2019-10-21_20h38.31.124,SurveyExpMetaMem,3.2.3,Win32,60
,,,,,,,,,,,,,,,,,,,,2,3.762000084,7,0.340000153,1,0,1200,810,1,1199,polite,11126 ,2019-10-21_20h38.31.124,SurveyExpMetaMem,3.2.3,Win32,60
,,,,,,,,,,,,,,,,,,,,2,5.685000181,7,0.539000034,1,0,1200,703,1,1199,book,11126 ,2019-10-21_20h38.31.124,SurveyExpMetaMem,3.2.3,Win32,60
,,,,,,,,,,,,,,,,,,,,5,3.985000134,5,0.31400013,1,0,1200,573,1,1199,cease,11126 ,2019-10-21_20h38.31.124,SurveyExpMetaMem,3.2.3,Win32,60
,,,,,,,,,,,,,,,,,,,,6,5.423000097,6,0.353000164,1,0,1200,202,1,1199,mercy,11126 ,2019-10-21_20h38.31.124,SurveyExpMetaMem,3.2.3,Win32,60
,,,,,,,,,,,,,,,,,,,,5,1.309999943,5,0.387000084,1,0,1200,702,1,1199,den,11126 ,2019-10-21_20h38.31.124,SurveyExpMetaMem,3.2.3,Win32,60
,,,,,,,,,,,,,,,,,,,,7,3.991000175,2,2.19900012,1,0,1200,1130,1,1199,slut,11126 ,2019-10-21_20h38.31.124,SurveyExpMetaMem,3.2.3,Win32,60
,,,,,,,,,,,,,,,,,,,,5,6.628000259,5,0.277000189,1,0,1200,658,1,1199,method,11126 ,2019-10-21_20h38.31.124,SurveyExpMetaMem,3.2.3,Win32,60
,,,,,,,,,,,,,,,,,,,,5,1.268000364,5,0.436000109,1,0,1200,227,1,1199,musician,11126 ,2019-10-21_20h38.31.124,SurveyExpMetaMem,3.2.3,Win32,60
,,,,,,,,,,,,,,,,,,,,5,1.171000242,5,0.348000288,1,0,1200,866,1,1199,haven,11126 ,2019-10-21_20h38.31.124,SurveyExpMetaMem,3.2.3,Win32,60
,,,,,,,,,,,,,,,,,,,,5,0.955000162,5,0.316000223,1,0,1200,277,1,1199,cupcake,11126 ,2019-10-21_20h38.31.124,SurveyExpMetaMem,3.2.3,Win32,60
,,,,,,,,,,,,,,,,,,,,5,1.423000097,5,0.312000275,1,0,1200,258,1,1199,children,11126 ,2019-10-21_20h38.31.124,SurveyExpMetaMem,3.2.3,Win32,60
,,,,,,,,,,,,,,,,,,,,6,2.534000158,4,0.244000196,1,0,1200,1065,1,1199,slap,11126 ,2019-10-21_20h38.31.124,SurveyExpMetaMem,3.2.3,Win32,60
,,,,,,,,,,,,,,,,,,,,5,3.20600009,5,0.241000175,1,0,1200,504,1,1199,cane,11126 ,2019-10-21_20h38.31.124,SurveyExpMetaMem,3.2.3,Win32,60
,,,,,,,,,,,,,,,,,,,,4,3.488000154,7,0.646000147,1,0,1200,130,1,1199,great,11126 ,2019-10-21_20h38.31.124,SurveyExpMetaMem,3.2.3,Win32,60
,,,,,,,,,,,,,,,,,,,,2,2.752000093,7,0.791000128,1,0,1200,711,1,1199,sympathetic,11126 ,2019-10-21_20h38.31.124,SurveyExpMetaMem,3.2.3,Win32,60
,,,,,,,,,,,,,,,,,,,,6,3.74600029,4,0.414000034,1,0,1200,324,1,1199,inferiority,11126 ,2019-10-21_20h38.31.124,SurveyExpMetaMem,3.2.3,Win32,60
,,,,,,,,,,,,,,,,,,,,6,2.277000189,6,0.70600009,1,0,1200,148,1,1199,victory,11126 ,2019-10-21_20h38.31.124,SurveyExpMetaMem,3.2.3,Win32,60
,,,,,,,,,,,,,,,,,,,,5,24.5480001,5,0.227000237,1,0,1200,510,1,1199,excuse,11126 ,2019-10-21_20h38.31.124,SurveyExpMetaMem,3.2.3,Win32,60
,,,,,,,,,,,,,,,,,,,,5,1.002000332,5,0.277000189,1,0,1200,853,1,1199,breeze,11126 ,2019-10-21_20h38.31.124,SurveyExpMetaMem,3.2.3,Win32,60
,,,,,,,,,,,,,,,,,,,,5,0.992000103,5,0.237000227,1,0,1200,160,1,1199,reunion,11126 ,2019-10-21_20h38.31.124,SurveyExpMetaMem,3.2.3,Win32,60
,,,,,,,,,,,,,,,,,,,,5,2.093000174,5,0.313000202,1,0,1200,587,1,1199,dissolve,11126 ,2019-10-21_20h38.31.124,SurveyExpMetaMem,3.2.3,Win32,60
,,,,,,,,,,,,,,,,,,,,5,2.288000107,5,0.271000385,1,0,1200,1181,1,1199,blade,11126 ,2019-10-21_20h38.31.124,SurveyExpMetaMem,3.2.3,Win32,60
,,,,,,,,,,,,,,,,,,,,4,3.559000254,4,0.253000021,1,0,1200,335,1,1199,decay,11126 ,2019-10-21_20h38.31.124,SurveyExpMetaMem,3.2.3,Win32,60
,,,,,,,,,,,,,,,,,,,,5,5.42200017,5,0.271000147,1,0,1200,52,1,1199,dare,11126 ,2019-10-21_20h38.31.124,SurveyExpMetaMem,3.2.3,Win32,60
,,,,,,,,,,,,,,,,,,,,5,2.05700016,5,0.276000261,1,0,1200,129,1,1199,fly,11126 ,2019-10-21_20h38.31.124,SurveyExpMetaMem,3.2.3,Win32,60
,,,,,,,,,,,,,,,,,,,,6,3.070000172,4,0.427000284,1,0,1200,1119,1,1199,confusion,11126 ,2019-10-21_20h38.31.124,SurveyExpMetaMem,3.2.3,Win32,60
,,,,,,,,,,,,,,,,,,,,4,2.366000175,6,2.171000004,1,0,1200,881,1,1199,protected,11126 ,2019-10-21_20h38.31.124,SurveyExpMetaMem,3.2.3,Win32,60
,,,,,,,,,,,,,,,,,,,,3,3.383000135,6,0.874000311,1,0,1200,869,1,1199,assure,11126 ,2019-10-21_20h38.31.124,SurveyExpMetaMem,3.2.3,Win32,60
,,,,,,,,,,,,,,,,,,,,7,3.410000324,3,1.014000177,1,0,1200,980,1,1199,liar,11126 ,2019-10-21_20h38.31.124,SurveyExpMetaMem,3.2.3,Win32,60
,,,,,,,,,,,,,,,,,,,,5,1.378000259,5,0.340000153,1,0,1200,639,1,1199,outlet,11126 ,2019-10-21_20h38.31.124,SurveyExpMetaMem,3.2.3,Win32,60
,,,,,,,,,,,,,,,,,,,,5,1.602000237,5,0.306000233,1,0,1200,158,1,1199,engage,11126 ,2019-10-21_20h38.31.124,SurveyExpMetaMem,3.2.3,Win32,60
,,,,,,,,,,,,,,,,,,,,5,1.268000126,5,0.269999981,1,0,1200,601,1,1199,roof,11126 ,2019-10-21_20h38.31.124,SurveyExpMetaMem,3.2.3,Win32,60
,,,,,,,,,,,,,,,,,,,,5,2.404000044,5,0.2900002,1,0,1200,492,1,1199,naive,11126 ,2019-10-21_20h38.31.124,SurveyExpMetaMem,3.2.3,Win32,60
,,,,,,,,,,,,,,,,,,,,5,4.937000036,5,0.249000311,1,0,1200,522,1,1199,cleft,11126 ,2019-10-21_20h38.31.124,SurveyExpMetaMem,3.2.3,Win32,60
,,,,,,,,,,,,,,,,,,,,8,2.569000006,1,1.192000151,1,0,1200,901,1,1199,rape,11126 ,2019-10-21_20h38.31.124,SurveyExpMetaMem,3.2.3,Win32,60
,,,,,,,,,,,,,,,,,,,,5,1.844000101,5,0.275000095,1,0,1200,400,1,1199,urine,11126 ,2019-10-21_20h38.31.124,SurveyExpMetaMem,3.2.3,Win32,60
,,,,,,,,,,,,,,,,,,,,5,1.490000248,5,0.271000385,1,0,1200,1060,1,1199,dent,11126 ,2019-10-21_20h38.31.124,SurveyExpMetaMem,3.2.3,Win32,60
,,,,,,,,,,,,,,,,,,,,5,1.152000189,5,0.262000084,1,0,1200,822,1,1199,clearer,11126 ,2019-10-21_20h38.31.124,SurveyExpMetaMem,3.2.3,Win32,60
,,,,,,,,,,,,,,,,,,,,5,1.153000116,5,0.255000114,1,0,1200,723,1,1199,cinnamon,11126 ,2019-10-21_20h38.31.124,SurveyExpMetaMem,3.2.3,Win32,60
,,,,,,,,,,,,,,,,,,,,5,1.511000156,5,0.315000057,1,0,1200,622,1,1199,revere,11126 ,2019-10-21_20h38.31.124,SurveyExpMetaMem,3.2.3,Win32,60
,,,,,,,,,,,,,,,,,,,,5,2.320000172,5,0.29700017,1,0,1200,721,1,1199,contemporary,11126 ,2019-10-21_20h38.31.124,SurveyExpMetaMem,3.2.3,Win32,60
,,,,,,,,,,,,,,,,,,,,5,1.262000084,5,0.267000198,1,0,1200,112,1,1199,jaguar,11126 ,2019-10-21_20h38.31.124,SurveyExpMetaMem,3.2.3,Win32,60
,,,,,,,,,,,,,,,,,,,,5,4.727000237,2,0.238000154,1,0,1200,321,1,1199,wart,11126 ,2019-10-21_20h38.31.124,SurveyExpMetaMem,3.2.3,Win32,60
,,,,,,,,,,,,,,,,,,,,6,4.835999966,3,3.139000177,1,0,1200,207,1,1199,erect,11126 ,2019-10-21_20h38.31.124,SurveyExpMetaMem,3.2.3,Win32,60
,,,,,,,,,,,,,,,,,,,,5,2.370000124,5,0.28000021,1,0,1200,612,1,1199,propeller,11126 ,2019-10-21_20h38.31.124,SurveyExpMetaMem,3.2.3,Win32,60
,,,,,,,,,,,,,,,,,,,,5,1.194000244,5,0.294000149,1,0,1200,488,1,1199,rusty,11126 ,2019-10-21_20h38.31.124,SurveyExpMetaMem,3.2.3,Win32,60
,,,,,,,,,,,,,,,,,,,,2,3.173000097,8,1.776000261,1,0,1200,90,1,1199,satisfaction,11126 ,2019-10-21_20h38.31.124,SurveyExpMetaMem,3.2.3,Win32,60
,,,,,,,,,,,,,,,,,,,,5,2.61400032,5,0.275000095,1,0,1200,1179,1,1199,nerves,11126 ,2019-10-21_20h38.31.124,SurveyExpMetaMem,3.2.3,Win32,60
,,,,,,,,,,,,,,,,,,,,5,0.753000259,5,0.26300025,1,0,1200,586,1,1199,cab,11126 ,2019-10-21_20h38.31.124,SurveyExpMetaMem,3.2.3,Win32,60
,,,,,,,,,,,,,,,,,,,,6,1.953000307,2,0.445000172,1,0,1200,933,1,1199,afraid,11126 ,2019-10-21_20h38.31.124,SurveyExpMetaMem,3.2.3,Win32,60
,,,,,,,,,,,,,,,,,,,,5,1.936000109,5,0.292999983,1,0,1200,654,1,1199,brief,11126 ,2019-10-21_20h38.31.124,SurveyExpMetaMem,3.2.3,Win32,60
,,,,,,,,,,,,,,,,,,,,6,2.991000175,4,0.553000212,1,0,1200,477,1,1199,separate,11126 ,2019-10-21_20h38.31.124,SurveyExpMetaMem,3.2.3,Win32,60
,,,,,,,,,,,,,,,,,,,,3,3.786000013,6,1.961000204,1,0,1200,848,1,1199,graceful,11126 ,2019-10-21_20h38.31.124,SurveyExpMetaMem,3.2.3,Win32,60
,,,,,,,,,,,,,,,,,,,,5,6.417000055,5,0.279000282,1,0,1200,756,1,1199,plant,11126 ,2019-10-21_20h38.31.124,SurveyExpMetaMem,3.2.3,Win32,60
,,,,,,,,,,,,,,,,,,,,5,1.084000111,5,0.270000219,1,0,1200,12,1,1199,mountain,11126 ,2019-10-21_20h38.31.124,SurveyExpMetaMem,3.2.3,Win32,60
,,,,,,,,,,,,,,,,,,,,5,0.977000237,5,0.259000301,1,0,1200,745,1,1199,inform,11126 ,2019-10-21_20h38.31.124,SurveyExpMetaMem,3.2.3,Win32,60
,,,,,,,,,,,,,,,,,,,,7,2.478000164,2,0.581000328,1,0,1200,908,1,1199,suffer,11126 ,2019-10-21_20h38.31.124,SurveyExpMetaMem,3.2.3,Win32,60
,,,,,,,,,,,,,,,,,,,,6,2.491000175,1,0.509000063,1,0,1200,928,1,1199,cruel,11126 ,2019-10-21_20h38.31.124,SurveyExpMetaMem,3.2.3,Win32,60
,,,,,,,,,,,,,,,,,,,,5,2.0400002,5,0.22300005,1,0,1200,120,1,1199,imaginative,11126 ,2019-10-21_20h38.31.124,SurveyExpMetaMem,3.2.3,Win32,60
,,,,,,,,,,,,,,,,,,,,6,2.261000156,4,0.786000252,1,0,1200,1172,1,1199,overwhelmed,11126 ,2019-10-21_20h38.31.124,SurveyExpMetaMem,3.2.3,Win32,60
,,,,,,,,,,,,,,,,,,,,6,2.369000196,4,0.476000071,1,0,1200,1129,1,1199,spanking,11126 ,2019-10-21_20h38.31.124,SurveyExpMetaMem,3.2.3,Win32,60
,,,,,,,,,,,,,,,,,,,,7,3.020000219,3,0.89800024,1,0,1200,1016,1,1199,awful,11126 ,2019-10-21_20h38.31.124,SurveyExpMetaMem,3.2.3,Win32,60
,,,,,,,,,,,,,,,,,,,,7,3.936000109,7,3.974000216,1,0,1200,173,1,1199,hope,11126 ,2019-10-21_20h38.31.124,SurveyExpMetaMem,3.2.3,Win32,60
,,,,,,,,,,,,,,,,,,,,7,3.585000038,2,1.952000141,1,0,1200,917,1,1199,slave,11126 ,2019-10-21_20h38.31.124,SurveyExpMetaMem,3.2.3,Win32,60
,,,,,,,,,,,,,,,,,,,,6,3.256000042,7,0.090000153,1,0,1200,905,1,1199,suffocate,11126 ,2019-10-21_20h38.31.124,SurveyExpMetaMem,3.2.3,Win32,60
,,,,,,,,,,,,,,,,,,,,7,5.053000212,1,2.127000332,1,0,1200,950,1,1199,murder,11126 ,2019-10-21_20h38.31.124,SurveyExpMetaMem,3.2.3,Win32,60
,,,,,,,,,,,,,,,,,,,,7,3.57400012,2,1.128000021,1,0,1200,1079,1,1199,critic,11126 ,2019-10-21_20h38.31.124,SurveyExpMetaMem,3.2.3,Win32,60
,,,,,,,,,,,,,,,,,,,,5,2.991000175,5,0.220000029,1,0,1200,595,1,1199,vacuum,11126 ,2019-10-21_20h38.31.124,SurveyExpMetaMem,3.2.3,Win32,60
,,,,,,,,,,,,,,,,,,,,5,1.789000034,5,0.222000122,1,0,1200,502,1,1199,crap,11126 ,2019-10-21_20h38.31.124,SurveyExpMetaMem,3.2.3,Win32,60
,,,,,,,,,,,,,,,,,,,,5,0.858000278,5,0.223000288,1,0,1200,849,1,1199,blue,11126 ,2019-10-21_20h38.31.124,SurveyExpMetaMem,3.2.3,Win32,60
,,,,,,,,,,,,,,,,,,,,5,1.477000237,5,0.208000183,1,0,1200,180,1,1199,embrace,11126 ,2019-10-21_20h38.31.124,SurveyExpMetaMem,3.2.3,Win32,60
,,,,,,,,,,,,,,,,,,,,5,0.843000174,5,0.245000124,1,0,1200,421,1,1199,stale,11126 ,2019-10-21_20h38.31.124,SurveyExpMetaMem,3.2.3,Win32,60
,,,,,,,,,,,,,,,,,,,,7,3.88800025,2,1.452000141,1,0,1200,300,1,1199,unhappy,11126 ,2019-10-21_20h38.31.124,SurveyExpMetaMem,3.2.3,Win32,60
,,,,,,,,,,,,,,,,,,,,4,6.027000189,3,0.690000296,1,0,1200,373,1,1199,ignorance,11126 ,2019-10-21_20h38.31.124,SurveyExpMetaMem,3.2.3,Win32,60
,,,,,,,,,,,,,,,,,,,,5,1.687000036,5,0.214000225,1,0,1200,495,1,1199,dust,11126 ,2019-10-21_20h38.31.124,SurveyExpMetaMem,3.2.3,Win32,60
,,,,,,,,,,,,,,,,,,,,5,0.911000252,5,0.239000082,1,0,1200,609,1,1199,candlestick,11126 ,2019-10-21_20h38.31.124,SurveyExpMetaMem,3.2.3,Win32,60
,,,,,,,,,,,,,,,,,,,,5,1.419000149,5,0.221000195,1,0,1200,862,1,1199,ease,11126 ,2019-10-21_20h38.31.124,SurveyExpMetaMem,3.2.3,Win32,60
,,,,,,,,,,,,,,,,,,,,5,2.536000252,5,0.220000029,1,0,1200,580,1,1199,fur,11126 ,2019-10-21_20h38.31.124,SurveyExpMetaMem,3.2.3,Win32,60
,,,,,,,,,,,,,,,,,,,,5,0.94900012,5,0.239000082,1,0,1200,122,1,1199,prince,11126 ,2019-10-21_20h38.31.124,SurveyExpMetaMem,3.2.3,Win32,60
,,,,,,,,,,,,,,,,,,,,5,1.404000282,5,0.209000349,1,0,1200,507,1,1199,smudge,11126 ,2019-10-21_20h38.31.124,SurveyExpMetaMem,3.2.3,Win32,60
,,,,,,,,,,,,,,,,,,,,5,1.650000095,5,0.237000227,1,0,1200,439,1,1199,spit,11126 ,2019-10-21_20h38.31.124,SurveyExpMetaMem,3.2.3,Win32,60
,,,,,,,,,,,,,,,,,,,,5,1.450000048,5,0.26300025,1,0,1200,823,1,1199,nourish,11126 ,2019-10-21_20h38.31.124,SurveyExpMetaMem,3.2.3,Win32,60
,,,,,,,,,,,,,,,,,,,,7,2.461000204,7,0.437000036,1,0,1200,40,1,1199,kissing,11126 ,2019-10-21_20h38.31.124,SurveyExpMetaMem,3.2.3,Win32,60
,,,,,,,,,,,,,,,,,,,,5,1.851000309,5,0.227000237,1,0,1200,66,1,1199,zest,11126 ,2019-10-21_20h38.31.124,SurveyExpMetaMem,3.2.3,Win32,60
,,,,,,,,,,,,,,,,,,,,5,0.940000296,5,0.222000122,1,0,1200,804,1,1199,peach,11126 ,2019-10-21_20h38.31.124,SurveyExpMetaMem,3.2.3,Win32,60
,,,,,,,,,,,,,,,,,,,,5,1.862000227,5,0.261000156,1,0,1200,1102,1,1199,nuclear,11126 ,2019-10-21_20h38.31.124,SurveyExpMetaMem,3.2.3,Win32,60
,,,,,,,,,,,,,,,,,,,,5,1.388000011,5,0.236999989,1,0,1200,402,1,1199,dismissive,11126 ,2019-10-21_20h38.31.124,SurveyExpMetaMem,3.2.3,Win32,60
,,,,,,,,,,,,,,,,,,,,5,1.094000101,5,0.25600028,1,0,1200,834,1,1199,crown,11126 ,2019-10-21_20h38.31.124,SurveyExpMetaMem,3.2.3,Win32,60
,,,,,,,,,,,,,,,,,,,,5,1.587000132,5,0.229000092,1,0,1200,837,1,1199,responsible,11126 ,2019-10-21_20h38.31.124,SurveyExpMetaMem,3.2.3,Win32,60
,,,,,,,,,,,,,,,,,,,,6,2.568000078,6,0.379000187,1,0,1200,888,1,1199,refreshment,11126 ,2019-10-21_20h38.31.124,SurveyExpMetaMem,3.2.3,Win32,60
,,,,,,,,,,,,,,,,,,,,5,1.625000238,5,0.239000082,1,0,1200,617,1,1199,tomato,11126 ,2019-10-21_20h38.31.124,SurveyExpMetaMem,3.2.3,Win32,60
,,,,,,,,,,,,,,,,,,,,5,1.296000242,5,0.270000219,1,0,1200,772,1,1199,ornament,11126 ,2019-10-21_20h38.31.124,SurveyExpMetaMem,3.2.3,Win32,60
,,,,,,,,,,,,,,,,,,,,5,0.957000256,5,0.244000196,1,0,1200,79,1,1199,dazzle,11126 ,2019-10-21_20h38.31.124,SurveyExpMetaMem,3.2.3,Win32,60
,,,,,,,,,,,,,,,,,,,,5,1.346000195,5,0.2900002,1,0,1200,506,1,1199,lower,11126 ,2019-10-21_20h38.31.124,SurveyExpMetaMem,3.2.3,Win32,60
,,,,,,,,,,,,,,,,,,,,5,2.645000219,5,0.255000353,1,0,1200,672,1,1199,ketchup,11126 ,2019-10-21_20h38.31.124,SurveyExpMetaMem,3.2.3,Win32,60
,,,,,,,,,,,,,,,,,,,,5,1.196000338,5,0.287000179,1,0,1200,895,1,1199,peace,11126 ,2019-10-21_20h38.31.124,SurveyExpMetaMem,3.2.3,Win32,60
,,,,,,,,,,,,,,,,,,,,5,0.945000172,5,0.320000172,1,0,1200,550,1,1199,fart,11126 ,2019-10-21_20h38.31.124,SurveyExpMetaMem,3.2.3,Win32,60
,,,,,,,,,,,,,,,,,,,,5,0.036000252,5,1.525000095,1,0,1200,455,1,1199,chubby,11126 ,2019-10-21_20h38.31.124,SurveyExpMetaMem,3.2.3,Win32,60
,,,,,,,,,,,,,,,,,,,,6,2.726000071,3,0.53000021,1,0,1200,485,1,1199,pinch,11126 ,2019-10-21_20h38.31.124,SurveyExpMetaMem,3.2.3,Win32,60
,,,,,,,,,,,,,,,,,,,,6,4.745000124,7,0.924000025,1,0,1200,568,1,1199,therapy,11126 ,2019-10-21_20h38.31.124,SurveyExpMetaMem,3.2.3,Win32,60
,,,,,,,,,,,,,,,,,,,,5,1.141000032,5,0.608000278,1,0,1200,86,1,1199,talent,11126 ,2019-10-21_20h38.31.124,SurveyExpMetaMem,3.2.3,Win32,60
,,,,,,,,,,,,,,,,,,,,5,0.887000084,5,0.24000001,1,0,1200,380,1,1199,expire,11126 ,2019-10-21_20h38.31.124,SurveyExpMetaMem,3.2.3,Win32,60
,,,,,,,,,,,,,,,,,,,,5,0.890000105,5,0.270000219,1,0,1200,529,1,1199,small,11126 ,2019-10-21_20h38.31.124,SurveyExpMetaMem,3.2.3,Win32,60
,,,,,,,,,,,,,,,,,,,,2,5.375,1,0.843000174,1,0,1200,304,1,1199,depression,11126 ,2019-10-21_20h38.31.124,SurveyExpMetaMem,3.2.3,Win32,60
,,,,,,,,,,,,,,,,,,,,5,1.787000179,5,0.241000175,1,0,1200,355,1,1199,graveyard,11126 ,2019-10-21_20h38.31.124,SurveyExpMetaMem,3.2.3,Win32,60
,,,,,,,,,,,,,,,,,,,,5,0.943000078,5,0.25600028,1,0,1200,700,1,1199,frog,11126 ,2019-10-21_20h38.31.124,SurveyExpMetaMem,3.2.3,Win32,60
,,,,,,,,,,,,,,,,,,,,5,1.084000111,5,0.301000357,1,0,1200,539,1,1199,novice,11126 ,2019-10-21_20h38.31.124,SurveyExpMetaMem,3.2.3,Win32,60
,,,,,,,,,,,,,,,,,,,,7,2.325000048,6,1.861000299,1,0,1200,54,1,1199,alcohol,11126 ,2019-10-21_20h38.31.124,SurveyExpMetaMem,3.2.3,Win32,60
,,,,,,,,,,,,,,,,,,,,2,2.578999996,8,1.289999962,1,0,1200,643,1,1199,library,11126 ,2019-10-21_20h38.31.124,SurveyExpMetaMem,3.2.3,Win32,60
,,,,,,,,,,,,,,,,,,,,5,1.634000063,5,0.246999979,1,0,1200,73,1,1199,rhythm,11126 ,2019-10-21_20h38.31.124,SurveyExpMetaMem,3.2.3,Win32,60
,,,,,,,,,,,,,,,,,,,,5,1.153000116,5,0.231000185,1,0,1200,283,1,1199,elated,11126 ,2019-10-21_20h38.31.124,SurveyExpMetaMem,3.2.3,Win32,60
,,,,,,,,,,,,,,,,,,,,5,0.855000019,5,0.256999969,1,0,1200,667,1,1199,dew,11126 ,2019-10-21_20h38.31.124,SurveyExpMetaMem,3.2.3,Win32,60
,,,,,,,,,,,,,,,,,,,,6,1.975000143,3,1.022000074,1,0,1200,1148,1,1199,suspicious,11126 ,2019-10-21_20h38.31.124,SurveyExpMetaMem,3.2.3,Win32,60
,,,,,,,,,,,,,,,,,,,,5,1.633000135,5,0.26300025,1,0,1200,65,1,1199,restaurant,11126 ,2019-10-21_20h38.31.124,SurveyExpMetaMem,3.2.3,Win32,60
,,,,,,,,,,,,,,,,,,,,7,3.058000326,3,1.5400002,1,0,1200,1185,1,1199,shotgun,11126 ,2019-10-21_20h38.31.124,SurveyExpMetaMem,3.2.3,Win32,60
,,,,,,,,,,,,,,,,,,,,5,1.143000126,5,0.306000233,1,0,1200,669,1,1199,plaza,11126 ,2019-10-21_20h38.31.124,SurveyExpMetaMem,3.2.3,Win32,60
,,,,,,,,,,,,,,,,,,,,6,2.645000219,4,0.481000185,1,0,1200,1094,1,1199,disruptive,11126 ,2019-10-21_20h38.31.124,SurveyExpMetaMem,3.2.3,Win32,60
,,,,,,,,,,,,,,,,,,,,5,2.494000196,5,0.287000179,1,0,1200,606,1,1199,easel,11126 ,2019-10-21_20h38.31.124,SurveyExpMetaMem,3.2.3,Win32,60
,,,,,,,,,,,,,,,,,,,,6,2.046000242,6,0.356000185,1,0,1200,117,1,1199,powerful,11126 ,2019-10-21_20h38.31.124,SurveyExpMetaMem,3.2.3,Win32,60
,,,,,,,,,,,,,,,,,,,,5,1.114000082,5,0.322000027,1,0,1200,387,1,1199,tax,11126 ,2019-10-21_20h38.31.124,SurveyExpMetaMem,3.2.3,Win32,60
,,,,,,,,,,,,,,,,,,,,5,2.940000296,5,0.240000248,1,0,1200,807,1,1199,person,11126 ,2019-10-21_20h38.31.124,SurveyExpMetaMem,3.2.3,Win32,60
,,,,,,,,,,,,,,,,,,,,6,2.139000177,4,0.747000217,1,0,1200,794,1,1199,pray,11126 ,2019-10-21_20h38.31.124,SurveyExpMetaMem,3.2.3,Win32,60
,,,,,,,,,,,,,,,,,,,,7,2.103000164,2,1.546000242,1,0,1200,951,1,1199,castrate,11126 ,2019-10-21_20h38.31.124,SurveyExpMetaMem,3.2.3,Win32,60
,,,,,,,,,,,,,,,,,,,,5,1.988000154,5,0.269000292,1,0,1200,109,1,1199,new,11126 ,2019-10-21_20h38.31.124,SurveyExpMetaMem,3.2.3,Win32,60
,,,,,,,,,,,,,,,,,,,,5,1.445000172,5,0.237000227,1,0,1200,707,1,1199,adapt,11126 ,2019-10-21_20h38.31.124,SurveyExpMetaMem,3.2.3,Win32,60
,,,,,,,,,,,,,,,,,,,,5,2.574000359,5,0.248000145,1,0,1200,465,1,1199,void,11126 ,2019-10-21_20h38.31.124,SurveyExpMetaMem,3.2.3,Win32,60
,,,,,,,,,,,,,,,,,,,,6,2.52300024,4,0.392000198,1,0,1200,1069,1,1199,defeat,11126 ,2019-10-21_20h38.31.124,SurveyExpMetaMem,3.2.3,Win32,60
,,,,,,,,,,,,,,,,,,,,5,2.159000158,5,0.228000164,1,0,1200,747,1,1199,furniture,11126 ,2019-10-21_20h38.31.124,SurveyExpMetaMem,3.2.3,Win32,60
,,,,,,,,,,,,,,,,,,,,6,1.838000298,6,0.476000309,1,0,1200,235,1,1199,cheery,11126 ,2019-10-21_20h38.31.124,SurveyExpMetaMem,3.2.3,Win32,60
,,,,,,,,,,,,,,,,,,,,5,3.886000156,5,0.246000051,1,0,1200,825,1,1199,swan,11126 ,2019-10-21_20h38.31.124,SurveyExpMetaMem,3.2.3,Win32,60
,,,,,,,,,,,,,,,,,,,,6,6.071000338,4,0.295000076,1,0,1200,1131,1,1199,envious,11126 ,2019-10-21_20h38.31.124,SurveyExpMetaMem,3.2.3,Win32,60
,,,,,,,,,,,,,,,,,,,,8,4.012000322,8,0.363000154,1,0,1200,763,1,1199,vegetables,11126 ,2019-10-21_20h38.31.124,SurveyExpMetaMem,3.2.3,Win32,60
,,,,,,,,,,,,,,,,,,,,5,1.223000288,5,0.225000143,1,0,1200,548,1,1199,vague,11126 ,2019-10-21_20h38.31.124,SurveyExpMetaMem,3.2.3,Win32,60
,,,,,,,,,,,,,,,,,,,,5,3.319000244,5,0.223000288,1,0,1200,466,1,1199,gnaw,11126 ,2019-10-21_20h38.31.124,SurveyExpMetaMem,3.2.3,Win32,60
,,,,,,,,,,,,,,,,,,,,6,4.53000021,7,1.203000307,1,0,1200,889,1,1199,wise,11126 ,2019-10-21_20h38.31.124,SurveyExpMetaMem,3.2.3,Win32,60
,,,,,,,,,,,,,,,,,,,,5,1.963000298,5,0.254000187,1,0,1200,490,1,1199,detached,11126 ,2019-10-21_20h38.31.124,SurveyExpMetaMem,3.2.3,Win32,60
,,,,,,,,,,,,,,,,,,,,5,1.642000198,5,0.246999979,1,0,1200,360,1,1199,dandruff,11126 ,2019-10-21_20h38.31.124,SurveyExpMetaMem,3.2.3,Win32,60
,,,,,,,,,,,,,,,,,,,,2,3.130000114,7,1.139000177,1,0,1200,857,1,1199,thankful,11126 ,2019-10-21_20h38.31.124,SurveyExpMetaMem,3.2.3,Win32,60
,,,,,,,,,,,,,,,,,,,,7,1.725000143,2,0.589000225,1,0,1200,920,1,1199,hurt,11126 ,2019-10-21_20h38.31.124,SurveyExpMetaMem,3.2.3,Win32,60
,,,,,,,,,,,,,,,,,,,,6,3.152000189,4,0.389000177,1,0,1200,309,1,1199,homeless,11126 ,2019-10-21_20h38.31.124,SurveyExpMetaMem,3.2.3,Win32,60
,,,,,,,,,,,,,,,,,,,,5,2.10800004,5,0.230000019,1,0,1200,201,1,1199,gorilla,11126 ,2019-10-21_20h38.31.124,SurveyExpMetaMem,3.2.3,Win32,60
,,,,,,,,,,,,,,,,,,,,5,1.085000277,5,0.237000227,1,0,1200,578,1,1199,govern,11126 ,2019-10-21_20h38.31.124,SurveyExpMetaMem,3.2.3,Win32,60
,,,,,,,,,,,,,,,,,,,,5,1.645000219,5,0.256000042,1,0,1200,880,1,1199,security,11126 ,2019-10-21_20h38.31.124,SurveyExpMetaMem,3.2.3,Win32,60
,,,,,,,,,,,,,,,,,,,,5,1.446000338,5,0.237000227,1,0,1200,222,1,1199,waterskiing,11126 ,2019-10-21_20h38.31.124,SurveyExpMetaMem,3.2.3,Win32,60
,,,,,,,,,,,,,,,,,,,,6,3.137000322,6,0.538000107,1,0,1200,255,1,1199,ass,11126 ,2019-10-21_20h38.31.124,SurveyExpMetaMem,3.2.3,Win32,60
,,,,,,,,,,,,,,,,,,,,5,1.57400012,5,0.353000164,1,0,1200,405,1,1199,fatigued,11126 ,2019-10-21_20h38.31.124,SurveyExpMetaMem,3.2.3,Win32,60
,,,,,,,,,,,,,,,,,,,,7,2.675000191,4,2.158000231,1,0,1200,193,1,1199,party,11126 ,2019-10-21_20h38.31.124,SurveyExpMetaMem,3.2.3,Win32,60
,,,,,,,,,,,,,,,,,,,,7,4.766000032,2,0.801000357,1,0,1200,1100,1,1199,evil,11126 ,2019-10-21_20h38.31.124,SurveyExpMetaMem,3.2.3,Win32,60
,,,,,,,,,,,,,,,,,,,,6,2.62100029,4,0.470000029,1,0,1200,996,1,1199,sting,11126 ,2019-10-21_20h38.31.124,SurveyExpMetaMem,3.2.3,Win32,60
,,,,,,,,,,,,,,,,,,,,7,4.034000158,5,6.716000319,1,0,1200,78,1,1199,energetic,11126 ,2019-10-21_20h38.31.124,SurveyExpMetaMem,3.2.3,Win32,60
,,,,,,,,,,,,,,,,,,,,5,1.244000196,5,0.270000219,1,0,1200,171,1,1199,imagination,11126 ,2019-10-21_20h38.31.124,SurveyExpMetaMem,3.2.3,Win32,60
,,,,,,,,,,,,,,,,,,,,5,4.272000074,5,0.243000269,1,0,1200,1126,1,1199,offensive,11126 ,2019-10-21_20h38.31.124,SurveyExpMetaMem,3.2.3,Win32,60
,,,,,,,,,,,,,,,,,,,,5,15.48300004,5,0.187999964,1,0,1200,25,1,1199,charisma,11126 ,2019-10-21_20h38.31.124,SurveyExpMetaMem,3.2.3,Win32,60
,,,,,,,,,,,,,,,,,,,,5,0.990000248,5,0.226999998,1,0,1200,887,1,1199,elegant,11126 ,2019-10-21_20h38.31.124,SurveyExpMetaMem,3.2.3,Win32,60
,,,,,,,,,,,,,,,,,,,,7,1.920000076,2,0.257000208,1,0,1200,1058,1,1199,bloody,11126 ,2019-10-21_20h38.31.124,SurveyExpMetaMem,3.2.3,Win32,60
,,,,,,,,,,,,,,,,,,,,7,4.145000219,2,0.525000095,1,0,1200,1132,1,1199,anarchy,11126 ,2019-10-21_20h38.31.124,SurveyExpMetaMem,3.2.3,Win32,60
,,,,,,,,,,,,,,,,,,,,5,1.295000076,5,0.419000149,1,0,1200,315,1,1199,zit,11126 ,2019-10-21_20h38.31.124,SurveyExpMetaMem,3.2.3,Win32,60
,,,,,,,,,,,,,,,,,,,,2,3.137000084,6,1.211000204,1,0,1200,48,1,1199,excellence,11126 ,2019-10-21_20h38.31.124,SurveyExpMetaMem,3.2.3,Win32,60
,,,,,,,,,,,,,,,,,,,,6,3.249000072,4,0.363000154,1,0,1200,1030,1,1199,offend,11126 ,2019-10-21_20h38.31.124,SurveyExpMetaMem,3.2.3,Win32,60
,,,,,,,,,,,,,,,,,,,,2,8.109000206,7,1.109000206,1,0,1200,718,1,1199,flow,11126 ,2019-10-21_20h38.31.124,SurveyExpMetaMem,3.2.3,Win32,60
,,,,,,,,,,,,,,,,,,,,5,1.827000141,5,0.272000313,1,0,1200,1196,1,1199,breathless,11126 ,2019-10-21_20h38.31.124,SurveyExpMetaMem,3.2.3,Win32,60
,,,,,,,,,,,,,,,,,,,,6,2.872000217,7,1.019999981,1,0,1200,191,1,1199,compassion,11126 ,2019-10-21_20h38.31.124,SurveyExpMetaMem,3.2.3,Win32,60
,,,,,,,,,,,,,,,,,,,,5,1.940000057,5,0.219000101,1,0,1200,627,1,1199,introductory,11126 ,2019-10-21_20h38.31.124,SurveyExpMetaMem,3.2.3,Win32,60
,,,,,,,,,,,,,,,,,,,,6,2.478000164,4,0.376000166,1,0,1200,1088,1,1199,forbid,11126 ,2019-10-21_20h38.31.124,SurveyExpMetaMem,3.2.3,Win32,60
,,,,,,,,,,,,,,,,,,,,5,1.919000149,5,0.233999968,1,0,1200,1097,1,1199,bees,11126 ,2019-10-21_20h38.31.124,SurveyExpMetaMem,3.2.3,Win32,60
,,,,,,,,,,,,,,,,,,,,5,1,5,0.211000204,1,0,1200,512,1,1199,insect,11126 ,2019-10-21_20h38.31.124,SurveyExpMetaMem,3.2.3,Win32,60
,,,,,,,,,,,,,,,,,,,,7,3.045000315,3,0.67200017,1,0,1200,979,1,1199,harassment,11126 ,2019-10-21_20h38.31.124,SurveyExpMetaMem,3.2.3,Win32,60
,,,,,,,,,,,,,,,,,,,,5,14.34300017,5,0.228000164,1,0,1200,1194,1,1199,obsession,11126 ,2019-10-21_20h38.31.124,SurveyExpMetaMem,3.2.3,Win32,60
,,,,,,,,,,,,,,,,,,,,2,2.95600009,7,0.669000149,1,0,1200,731,1,1199,decency,11126 ,2019-10-21_20h38.31.124,SurveyExpMetaMem,3.2.3,Win32,60
,,,,,,,,,,,,,,,,,,,,2,1.976999998,7,0.953000069,1,0,1200,147,1,1199,cure,11126 ,2019-10-21_20h38.31.124,SurveyExpMetaMem,3.2.3,Win32,60
,,,,,,,,,,,,,,,,,,,,7,5.262000084,8,1.591000319,1,0,1200,124,1,1199,honeymoon,11126 ,2019-10-21_20h38.31.124,SurveyExpMetaMem,3.2.3,Win32,60
,,,,,,,,,,,,,,,,,,,,6,3.377000093,4,0.274000168,1,0,1200,431,1,1199,itch,11126 ,2019-10-21_20h38.31.124,SurveyExpMetaMem,3.2.3,Win32,60
,,,,,,,,,,,,,,,,,,,,6,1.553000212,4,0.310000181,1,0,1200,1136,1,1199,appall,11126 ,2019-10-21_20h38.31.124,SurveyExpMetaMem,3.2.3,Win32,60
,,,,,,,,,,,,,,,,,,,,5,1.041000128,5,0.279000282,1,0,1200,625,1,1199,hat,11126 ,2019-10-21_20h38.31.124,SurveyExpMetaMem,3.2.3,Win32,60
,,,,,,,,,,,,,,,,,,,,5,0.789999962,5,0.243000031,1,0,1200,523,1,1199,witch,11126 ,2019-10-21_20h38.31.124,SurveyExpMetaMem,3.2.3,Win32,60
,,,,,,,,,,,,,,,,,,,,5,0.822000265,5,0.22900033,1,0,1200,1158,1,1199,dentist,11126 ,2019-10-21_20h38.31.124,SurveyExpMetaMem,3.2.3,Win32,60
,,,,,,,,,,,,,,,,,,,,5,1.368000269,5,0.255000114,1,0,1200,2,1,1199,zealous,11126 ,2019-10-21_20h38.31.124,SurveyExpMetaMem,3.2.3,Win32,60
,,,,,,,,,,,,,,,,,,,,5,0.0400002,1,2.345000267,1,0,1200,953,1,1199,victim,11126 ,2019-10-21_20h38.31.124,SurveyExpMetaMem,3.2.3,Win32,60
,,,,,,,,,,,,,,,,,,,,5,2.495000362,5,0.237000227,1,0,1200,89,1,1199,cruiseship,11126 ,2019-10-21_20h38.31.124,SurveyExpMetaMem,3.2.3,Win32,60
,,,,,,,,,,,,,,,,,,,,6,2.01300025,4,0.304000139,1,0,1200,318,1,1199,disappointment,11126 ,2019-10-21_20h38.31.124,SurveyExpMetaMem,3.2.3,Win32,60
,,,,,,,,,,,,,,,,,,,,2,3.113000154,8,0.892000198,1,0,1200,871,1,1199,comfort,11126 ,2019-10-21_20h38.31.124,SurveyExpMetaMem,3.2.3,Win32,60
,,,,,,,,,,,,,,,,,,,,5,1.202000141,5,0.247000217,1,0,1200,713,1,1199,mobile,11126 ,2019-10-21_20h38.31.124,SurveyExpMetaMem,3.2.3,Win32,60
,,,,,,,,,,,,,,,,,,,,5,1.760000229,5,0.271000147,1,0,1200,829,1,1199,innocent,11126 ,2019-10-21_20h38.31.124,SurveyExpMetaMem,3.2.3,Win32,60
,,,,,,,,,,,,,,,,,,,,5,1.630000114,5,0.278000116,1,0,1200,370,1,1199,rodent,11126 ,2019-10-21_20h38.31.124,SurveyExpMetaMem,3.2.3,Win32,60
,,,,,,,,,,,,,,,,,,,,5,1.99600029,5,0.2900002,1,0,1200,468,1,1199,noose,11126 ,2019-10-21_20h38.31.124,SurveyExpMetaMem,3.2.3,Win32,60
,,,,,,,,,,,,,,,,,,,,7,1.634000301,1,0.899000168,1,0,1200,1128,1,1199,fighting,11126 ,2019-10-21_20h38.31.124,SurveyExpMetaMem,3.2.3,Win32,60
,,,,,,,,,,,,,,,,,,,,6,2.775000095,4,0.407000065,1,0,1200,989,1,1199,banish,11126 ,2019-10-21_20h38.31.124,SurveyExpMetaMem,3.2.3,Win32,60
,,,,,,,,,,,,,,,,,,,,2,10.18100023,6,1.077000141,1,0,1200,773,1,1199,rational,11126 ,2019-10-21_20h38.31.124,SurveyExpMetaMem,3.2.3,Win32,60
,,,,,,,,,,,,,,,,,,,,5,8.697000265,5,0.228000164,1,0,1200,941,1,1199,leprosy,11126 ,2019-10-21_20h38.31.124,SurveyExpMetaMem,3.2.3,Win32,60
,,,,,,,,,,,,,,,,,,,,6,2.220000267,4,0.409000158,1,0,1200,1164,1,1199,battle,11126 ,2019-10-21_20h38.31.124,SurveyExpMetaMem,3.2.3,Win32,60
,,,,,,,,,,,,,,,,,,,,6,1.631000042,4,0.423000097,1,0,1200,508,1,1199,haphazard,11126 ,2019-10-21_20h38.31.124,SurveyExpMetaMem,3.2.3,Win32,60
,,,,,,,,,,,,,,,,,,,,6,1.889000177,4,0.26300025,1,0,1200,456,1,1199,piss,11126 ,2019-10-21_20h38.31.124,SurveyExpMetaMem,3.2.3,Win32,60
,,,,,,,,,,,,,,,,,,,,5,1.559000254,5,0.220000029,1,0,1200,610,1,1199,miniature,11126 ,2019-10-21_20h38.31.124,SurveyExpMetaMem,3.2.3,Win32,60
,,,,,,,,,,,,,,,,,,,,2,2.620000124,7,1.115000248,1,0,1200,297,1,1199,pleasure,11126 ,2019-10-21_20h38.31.124,SurveyExpMetaMem,3.2.3,Win32,60
,,,,,,,,,,,,,,,,,,,,5,2.329000235,5,0.253000259,1,0,1200,532,1,1199,recede,11126 ,2019-10-21_20h38.31.124,SurveyExpMetaMem,3.2.3,Win32,60
,,,,,,,,,,,,,,,,,,,,5,2.328000307,5,0.220000029,1,0,1200,214,1,1199,revive,11126 ,2019-10-21_20h38.31.124,SurveyExpMetaMem,3.2.3,Win32,60
,,,,,,,,,,,,,,,,,,,,5,2.828999996,5,0.255000114,1,0,1200,365,1,1199,discouraged,11126 ,2019-10-21_20h38.31.124,SurveyExpMetaMem,3.2.3,Win32,60
,,,,,,,,,,,,,,,,,,,,5,1.96900034,5,0.224000216,1,0,1200,618,1,1199,ceiling,11126 ,2019-10-21_20h38.31.124,SurveyExpMetaMem,3.2.3,Win32,60
,,,,,,,,,,,,,,,,,,,,5,0.858000278,5,0.286000013,1,0,1200,381,1,1199,sloppy,11126 ,2019-10-21_20h38.31.124,SurveyExpMetaMem,3.2.3,Win32,60
,,,,,,,,,,,,,,,,,,,,5,1.427000046,5,0.256000042,1,0,1200,3,1,1199,nudist,11126 ,2019-10-21_20h38.31.124,SurveyExpMetaMem,3.2.3,Win32,60
,,,,,,,,,,,,,,,,,,,,5,1.351000071,5,0.220000029,1,0,1200,1113,1,1199,dagger,11126 ,2019-10-21_20h38.31.124,SurveyExpMetaMem,3.2.3,Win32,60
,,,,,,,,,,,,,,,,,,,,3,3.037000179,7,0.755000114,1,0,1200,64,1,1199,brain,11126 ,2019-10-21_20h38.31.124,SurveyExpMetaMem,3.2.3,Win32,60
,,,,,,,,,,,,,,,,,,,,6,2.716000319,4,0.320000172,1,0,1200,327,1,1199,misfortune,11126 ,2019-10-21_20h38.31.124,SurveyExpMetaMem,3.2.3,Win32,60
,,,,,,,,,,,,,,,,,,,,5,1.558000326,5,0.253000259,1,0,1200,598,1,1199,feet,11126 ,2019-10-21_20h38.31.124,SurveyExpMetaMem,3.2.3,Win32,60
,,,,,,,,,,,,,,,,,,,,6,2.822000027,4,0.354000092,1,0,1200,1098,1,1199,confused,11126 ,2019-10-21_20h38.31.124,SurveyExpMetaMem,3.2.3,Win32,60
,,,,,,,,,,,,,,,,,,,,5,0.948000193,5,0.236999989,1,0,1200,795,1,1199,soup,11126 ,2019-10-21_20h38.31.124,SurveyExpMetaMem,3.2.3,Win32,60
,,,,,,,,,,,,,,,,,,,,6,15.71800017,4,0.261000156,1,0,1200,441,1,1199,prohibit,11126 ,2019-10-21_20h38.31.124,SurveyExpMetaMem,3.2.3,Win32,60
,,,,,,,,,,,,,,,,,,,,6,0.883000374,4,0.256000042,1,0,1200,1078,1,1199,trouble,11126 ,2019-10-21_20h38.31.124,SurveyExpMetaMem,3.2.3,Win32,60
,,,,,,,,,,,,,,,,,,,,5,0.993000031,5,0.470000267,1,0,1200,1034,1,1199,pester,11126 ,2019-10-21_20h38.31.124,SurveyExpMetaMem,3.2.3,Win32,60
,,,,,,,,,,,,,,,,,,,,5,1.076000214,5,0.23900032,1,0,1200,624,1,1199,tower,11126 ,2019-10-21_20h38.31.124,SurveyExpMetaMem,3.2.3,Win32,60
,,,,,,,,,,,,,,,,,,,,5,0.707000256,5,0.254000187,1,0,1200,766,1,1199,flag,11126 ,2019-10-21_20h38.31.124,SurveyExpMetaMem,3.2.3,Win32,60
,,,,,,,,,,,,,,,,,,,,6,1.612000227,4,0.203000307,1,0,1200,392,1,1199,moody,11126 ,2019-10-21_20h38.31.124,SurveyExpMetaMem,3.2.3,Win32,60
,,,,,,,,,,,,,,,,,,,,5,1.764000177,5,0.262000084,1,0,1200,545,1,1199,tar,11126 ,2019-10-21_20h38.31.124,SurveyExpMetaMem,3.2.3,Win32,60
,,,,,,,,,,,,,,,,,,,,3,4.389000177,7,0.425000191,1,0,1200,164,1,1199,marry,11126 ,2019-10-21_20h38.31.124,SurveyExpMetaMem,3.2.3,Win32,60
,,,,,,,,,,,,,,,,,,,,5,1.151000261,5,0.235000134,1,0,1200,730,1,1199,slogan,11126 ,2019-10-21_20h38.31.124,SurveyExpMetaMem,3.2.3,Win32,60
,,,,,,,,,,,,,,,,,,,,6,2.903000116,6,0.545000076,1,0,1200,170,1,1199,entertainment,11126 ,2019-10-21_20h38.31.124,SurveyExpMetaMem,3.2.3,Win32,60
,,,,,,,,,,,,,,,,,,,,5,1.935000181,5,0.251000166,1,0,1200,43,1,1199,diamond,11126 ,2019-10-21_20h38.31.124,SurveyExpMetaMem,3.2.3,Win32,60
,,,,,,,,,,,,,,,,,,,,5,1.062000275,5,0.258000135,1,0,1200,684,1,1199,send,11126 ,2019-10-21_20h38.31.124,SurveyExpMetaMem,3.2.3,Win32,60
,,,,,,,,,,,,,,,,,,,,5,0.779000044,5,0.224000216,1,0,1200,787,1,1199,dawn,11126 ,2019-10-21_20h38.31.124,SurveyExpMetaMem,3.2.3,Win32,60
,,,,,,,,,,,,,,,,,,,,2,2.231000185,7,0.454000235,1,0,1200,891,1,1199,kind,11126 ,2019-10-21_20h38.31.124,SurveyExpMetaMem,3.2.3,Win32,60
,,,,,,,,,,,,,,,,,,,,5,1.111000061,5,0.232000351,1,0,1200,1155,1,1199,tangle,11126 ,2019-10-21_20h38.31.124,SurveyExpMetaMem,3.2.3,Win32,60
,,,,,,,,,,,,,,,,,,,,5,9.225000143,5,0.270000219,1,0,1200,517,1,1199,habit,11126 ,2019-10-21_20h38.31.124,SurveyExpMetaMem,3.2.3,Win32,60
,,,,,,,,,,,,,,,,,,,,5,3.481000185,5,0.221000195,1,0,1200,553,1,1199,corner,11126 ,2019-10-21_20h38.31.124,SurveyExpMetaMem,3.2.3,Win32,60
,,,,,,,,,,,,,,,,,,,,6,1.803000212,4,0.277000189,1,0,1200,1151,1,1199,drama,11126 ,2019-10-21_20h38.31.124,SurveyExpMetaMem,3.2.3,Win32,60
,,,,,,,,,,,,,,,,,,,,7,1.855999947,2,1.066000223,1,0,1200,922,1,1199,nightmare,11126 ,2019-10-21_20h38.31.124,SurveyExpMetaMem,3.2.3,Win32,60
,,,,,,,,,,,,,,,,,,,,5,1.938000202,4,0.338000059,1,0,1200,1173,1,1199,lurk,11126 ,2019-10-21_20h38.31.124,SurveyExpMetaMem,3.2.3,Win32,60
,,,,,,,,,,,,,,,,,,,,5,10.35400009,5,0.272000313,1,0,1200,778,1,1199,adorn,11126 ,2019-10-21_20h38.31.124,SurveyExpMetaMem,3.2.3,Win32,60
,,,,,,,,,,,,,,,,,,,,5,0.842000246,5,0.242000103,1,0,1200,815,1,1199,apple,11126 ,2019-10-21_20h38.31.124,SurveyExpMetaMem,3.2.3,Win32,60
,,,,,,,,,,,,,,,,,,,,5,0.784000158,5,0.243000031,1,0,1200,603,1,1199,mane,11126 ,2019-10-21_20h38.31.124,SurveyExpMetaMem,3.2.3,Win32,60
,,,,,,,,,,,,,,,,,,,,4,3.17200017,6,0.778000116,1,0,1200,218,1,1199,charming,11126 ,2019-10-21_20h38.31.124,SurveyExpMetaMem,3.2.3,Win32,60
,,,,,,,,,,,,,,,,,,,,7,2.684000015,1,0.571000099,1,0,1200,1054,1,1199,jealous,11126 ,2019-10-21_20h38.31.124,SurveyExpMetaMem,3.2.3,Win32,60
,,,,,,,,,,,,,,,,,,,,6,2.937000036,4,0.332999945,1,0,1200,505,1,1199,exhaust,11126 ,2019-10-21_20h38.31.124,SurveyExpMetaMem,3.2.3,Win32,60
,,,,,,,,,,,,,,,,,,,,6,2.618999958,4,0.305000305,1,0,1200,243,1,1199,fame,11126 ,2019-10-21_20h38.31.124,SurveyExpMetaMem,3.2.3,Win32,60
,,,,,,,,,,,,,,,,,,,,5,3.521000147,5,0.248000145,1,0,1200,1178,1,1199,weight,11126 ,2019-10-21_20h38.31.124,SurveyExpMetaMem,3.2.3,Win32,60
,,,,,,,,,,,,,,,,,,,,6,1.637000322,4,0.277000189,1,0,1200,1046,1,1199,unsafe,11126 ,2019-10-21_20h38.31.124,SurveyExpMetaMem,3.2.3,Win32,60
,,,,,,,,,,,,,,,,,,,,7,3.503999949,2,0.906000137,1,0,1200,914,1,1199,fail,11126 ,2019-10-21_20h38.31.124,SurveyExpMetaMem,3.2.3,Win32,60
,,,,,,,,,,,,,,,,,,,,5,2.695000172,5,0.322000265,1,0,1200,1112,1,1199,pressure,11126 ,2019-10-21_20h38.31.124,SurveyExpMetaMem,3.2.3,Win32,60
,,,,,,,,,,,,,,,,,,,,2,3.958000183,8,0.616000175,1,0,1200,602,1,1199,vegetable,11126 ,2019-10-21_20h38.31.124,SurveyExpMetaMem,3.2.3,Win32,60
,,,,,,,,,,,,,,,,,,,,5,1.805000067,5,0.439000368,1,0,1200,524,1,1199,sigh,11126 ,2019-10-21_20h38.31.124,SurveyExpMetaMem,3.2.3,Win32,60
,,,,,,,,,,,,,,,,,,,,6,2.888000011,4,0.262000322,1,0,1200,943,1,1199,trauma,11126 ,2019-10-21_20h38.31.124,SurveyExpMetaMem,3.2.3,Win32,60
,,,,,,,,,,,,,,,,,,,,5,4.421000004,5,0.79700017,1,0,1200,233,1,1199,exhilaration,11126 ,2019-10-21_20h38.31.124,SurveyExpMetaMem,3.2.3,Win32,60
,,,,,,,,,,,,,,,,,,,,5,1.12100029,5,0.277000189,1,0,1200,332,1,1199,sewage,11126 ,2019-10-21_20h38.31.124,SurveyExpMetaMem,3.2.3,Win32,60
,,,,,,,,,,,,,,,,,,,,5,0.758000135,5,0.254000187,1,0,1200,581,1,1199,dork,11126 ,2019-10-21_20h38.31.124,SurveyExpMetaMem,3.2.3,Win32,60
,,,,,,,,,,,,,,,,,,,,5,2.990000248,5,0.266000271,1,0,1200,818,1,1199,priest,11126 ,2019-10-21_20h38.31.124,SurveyExpMetaMem,3.2.3,Win32,60
,,,,,,,,,,,,,,,,,,,,5,0.818000078,5,0.262000322,1,0,1200,18,1,1199,mail,11126 ,2019-10-21_20h38.31.124,SurveyExpMetaMem,3.2.3,Win32,60
,,,,,,,,,,,,,,,,,,,,2,3.463999987,7,0.748000145,1,0,1200,858,1,1199,donate,11126 ,2019-10-21_20h38.31.124,SurveyExpMetaMem,3.2.3,Win32,60
,,,,,,,,,,,,,,,,,,,,2,3.247000217,6,0.828000069,1,0,1200,735,1,1199,tea,11126 ,2019-10-21_20h38.31.124,SurveyExpMetaMem,3.2.3,Win32,60
,,,,,,,,,,,,,,,,,,,,6,2.416000128,4,0.389000177,1,0,1200,956,1,1199,crushed,11126 ,2019-10-21_20h38.31.124,SurveyExpMetaMem,3.2.3,Win32,60
,,,,,,,,,,,,,,,,,,,,6,9.248000145,4,0.379000187,1,0,1200,484,1,1199,leave,11126 ,2019-10-21_20h38.31.124,SurveyExpMetaMem,3.2.3,Win32,60
,,,,,,,,,,,,,,,,,,,,5,1.305000067,5,0.271000147,1,0,1200,1091,1,1199,cram,11126 ,2019-10-21_20h38.31.124,SurveyExpMetaMem,3.2.3,Win32,60
,,,,,,,,,,,,,,,,,,,,6,1.245000124,4,0.287000179,1,0,1200,957,1,1199,debt,11126 ,2019-10-21_20h38.31.124,SurveyExpMetaMem,3.2.3,Win32,60
,,,,,,,,,,,,,,,,,,,,5,5.526000261,5,0.26300025,1,0,1200,716,1,1199,blouse,11126 ,2019-10-21_20h38.31.124,SurveyExpMetaMem,3.2.3,Win32,60
,,,,,,,,,,,,,,,,,,,,5,0.98300004,5,0.291000128,1,0,1200,369,1,1199,blind,11126 ,2019-10-21_20h38.31.124,SurveyExpMetaMem,3.2.3,Win32,60
,,,,,,,,,,,,,,,,,,,,7,1.870000124,5,1.458000183,1,0,1200,100,1,1199,intense,11126 ,2019-10-21_20h38.31.124,SurveyExpMetaMem,3.2.3,Win32,60
,,,,,,,,,,,,,,,,,,,,6,3.929000139,2,1.194000006,1,0,1200,378,1,1199,dislike,11126 ,2019-10-21_20h38.31.124,SurveyExpMetaMem,3.2.3,Win32,60
,,,,,,,,,,,,,,,,,,,,2,2.77300024,7,0.471000195,1,0,1200,238,1,1199,sunshine,11126 ,2019-10-21_20h38.31.124,SurveyExpMetaMem,3.2.3,Win32,60
,,,,,,,,,,,,,,,,,,,,5,0.995000124,5,0.242000103,1,0,1200,1092,1,1199,rattlesnake,11126 ,2019-10-21_20h38.31.124,SurveyExpMetaMem,3.2.3,Win32,60
,,,,,,,,,,,,,,,,,,,,5,1.241000175,5,0.4150002,1,0,1200,236,1,1199,amaze,11126 ,2019-10-21_20h38.31.124,SurveyExpMetaMem,3.2.3,Win32,60
,,,,,,,,,,,,,,,,,,,,5,1.810000181,5,0.310000181,1,0,1200,935,1,1199,despise,11126 ,2019-10-21_20h38.31.124,SurveyExpMetaMem,3.2.3,Win32,60
,,,,,,,,,,,,,,,,,,,,5,1.47900033,5,0.276000023,1,0,1200,132,1,1199,silly,11126 ,2019-10-21_20h38.31.124,SurveyExpMetaMem,3.2.3,Win32,60
,,,,,,,,,,,,,,,,,,,,6,2.021000147,4,0.353000164,1,0,1200,942,1,1199,aggravation,11126 ,2019-10-21_20h38.31.124,SurveyExpMetaMem,3.2.3,Win32,60
,,,,,,,,,,,,,,,,,,,,2,2.253999949,7,0.420000315,1,0,1200,820,1,1199,oxygen,11126 ,2019-10-21_20h38.31.124,SurveyExpMetaMem,3.2.3,Win32,60
,,,,,,,,,,,,,,,,,,,,2,1.945000172,7,0.589000225,1,0,1200,890,1,1199,carefree,11126 ,2019-10-21_20h38.31.124,SurveyExpMetaMem,3.2.3,Win32,60
,,,,,,,,,,,,,,,,,,,,5,1.319000244,5,0.465000153,1,0,1200,1159,1,1199,rifle,11126 ,2019-10-21_20h38.31.124,SurveyExpMetaMem,3.2.3,Win32,60
,,,,,,,,,,,,,,,,,,,,7,2.536000252,1,0.919000149,1,0,1200,1087,1,1199,affair,11126 ,2019-10-21_20h38.31.124,SurveyExpMetaMem,3.2.3,Win32,60
,,,,,,,,,,,,,,,,,,,,5,2.559999943,5,0.295000315,1,0,1200,217,1,1199,bravery,11126 ,2019-10-21_20h38.31.124,SurveyExpMetaMem,3.2.3,Win32,60
,,,,,,,,,,,,,,,,,,,,7,3.856000185,4,1.05700016,1,0,1200,1101,1,1199,scary,11126 ,2019-10-21_20h38.31.124,SurveyExpMetaMem,3.2.3,Win32,60
,,,,,,,,,,,,,,,,,,,,7,1.995000362,2,0.92200017,1,0,1200,967,1,1199,horrible,11126 ,2019-10-21_20h38.31.124,SurveyExpMetaMem,3.2.3,Win32,60
,,,,,,,,,,,,,,,,,,,,5,2.442000151,5,0.346000195,1,0,1200,1103,1,1199,mob,11126 ,2019-10-21_20h38.31.124,SurveyExpMetaMem,3.2.3,Win32,60
,,,,,,,,,,,,,,,,,,,,6,2.053000212,4,0.289000034,1,0,1200,463,1,1199,limp,11126 ,2019-10-21_20h38.31.124,SurveyExpMetaMem,3.2.3,Win32,60
,,,,,,,,,,,,,,,,,,,,4,4.167000294,6,1.312000036,1,0,1200,37,1,1199,magnificence,11126 ,2019-10-21_20h38.31.124,SurveyExpMetaMem,3.2.3,Win32,60
,,,,,,,,,,,,,,,,,,,,6,4.519999981,4,0.328999996,1,0,1200,204,1,1199,crazy,11126 ,2019-10-21_20h38.31.124,SurveyExpMetaMem,3.2.3,Win32,60
,,,,,,,,,,,,,,,,,,,,6,4.510000229,7,1.440000296,1,0,1200,181,1,1199,fascinate,11126 ,2019-10-21_20h38.31.124,SurveyExpMetaMem,3.2.3,Win32,60
,,,,,,,,,,,,,,,,,,,,5,1.926000118,5,0.258000135,1,0,1200,801,1,1199,noon,11126 ,2019-10-21_20h38.31.124,SurveyExpMetaMem,3.2.3,Win32,60
,,,,,,,,,,,,,,,,,,,,5,1.101999998,5,0.312000275,1,0,1200,461,1,1199,ail,11126 ,2019-10-21_20h38.31.124,SurveyExpMetaMem,3.2.3,Win32,60
,,,,,,,,,,,,,,,,,,,,5,0.804000139,5,0.272000313,1,0,1200,755,1,1199,soap,11126 ,2019-10-21_20h38.31.124,SurveyExpMetaMem,3.2.3,Win32,60
,,,,,,,,,,,,,,,,,,,,7,3.768000126,3,0.874000072,1,0,1200,469,1,1199,resent,11126 ,2019-10-21_20h38.31.124,SurveyExpMetaMem,3.2.3,Win32,60
,,,,,,,,,,,,,,,,,,,,5,1.588000298,5,0.254000187,1,0,1200,228,1,1199,suite,11126 ,2019-10-21_20h38.31.124,SurveyExpMetaMem,3.2.3,Win32,60
,,,,,,,,,,,,,,,,,,,,6,4.305000305,2,0.787000179,1,0,1200,1006,1,1199,rash,11126 ,2019-10-21_20h38.31.124,SurveyExpMetaMem,3.2.3,Win32,60
,,,,,,,,,,,,,,,,,,,,6,5.90500021,4,0.333000183,1,0,1200,397,1,1199,complaint,11126 ,2019-10-21_20h38.31.124,SurveyExpMetaMem,3.2.3,Win32,60
,,,,,,,,,,,,,,,,,,,,5,3.419000149,5,0.429000139,1,0,1200,141,1,1199,surprise,11126 ,2019-10-21_20h38.31.124,SurveyExpMetaMem,3.2.3,Win32,60
,,,,,,,,,,,,,,,,,,,,5,5.687000036,2,1.215000153,1,0,1200,301,1,1199,sad,11126 ,2019-10-21_20h38.31.124,SurveyExpMetaMem,3.2.3,Win32,60
,,,,,,,,,,,,,,,,,,,,5,6.380000114,5,0.223000288,1,0,1200,691,1,1199,circle,11126 ,2019-10-21_20h38.31.124,SurveyExpMetaMem,3.2.3,Win32,60
,,,,,,,,,,,,,,,,,,,,5,1.073000193,5,0.239000082,1,0,1200,765,1,1199,candid,11126 ,2019-10-21_20h38.31.124,SurveyExpMetaMem,3.2.3,Win32,60
,,,,,,,,,,,,,,,,,,,,7,5.345000029,3,0.872000217,1,0,1200,971,1,1199,crash,11126 ,2019-10-21_20h38.31.124,SurveyExpMetaMem,3.2.3,Win32,60
,,,,,,,,,,,,,,,,,,,,5,1.602000237,5,0.238000154,1,0,1200,864,1,1199,blanket,11126 ,2019-10-21_20h38.31.124,SurveyExpMetaMem,3.2.3,Win32,60
,,,,,,,,,,,,,,,,,,,,5,1.536000252,5,0.241000175,1,0,1200,628,1,1199,chess,11126 ,2019-10-21_20h38.31.124,SurveyExpMetaMem,3.2.3,Win32,60
,,,,,,,,,,,,,,,,,,,,5,1.778000116,5,0.226000071,1,0,1200,644,1,1199,farm,11126 ,2019-10-21_20h38.31.124,SurveyExpMetaMem,3.2.3,Win32,60
,,,,,,,,,,,,,,,,,,,,5,1.377000093,5,0.238000154,1,0,1200,163,1,1199,gem,11126 ,2019-10-21_20h38.31.124,SurveyExpMetaMem,3.2.3,Win32,60
,,,,,,,,,,,,,,,,,,,,5,0.769000292,5,0.221000195,1,0,1200,965,1,1199,traffic,11126 ,2019-10-21_20h38.31.124,SurveyExpMetaMem,3.2.3,Win32,60
,,,,,,,,,,,,,,,,,,,,7,1.601000071,3,0.697000265,1,0,1200,371,1,1199,weakness,11126 ,2019-10-21_20h38.31.124,SurveyExpMetaMem,3.2.3,Win32,60
,,,,,,,,,,,,,,,,,,,,5,2.059000015,5,0.240000248,1,0,1200,865,1,1199,bliss,11126 ,2019-10-21_20h38.31.124,SurveyExpMetaMem,3.2.3,Win32,60
,,,,,,,,,,,,,,,,,,,,5,0.860000134,5,0.26300025,1,0,1200,616,1,1199,coat,11126 ,2019-10-21_20h38.31.124,SurveyExpMetaMem,3.2.3,Win32,60
,,,,,,,,,,,,,,,,,,,,5,1.021000147,5,0.205000162,1,0,1200,710,1,1199,gender,11126 ,2019-10-21_20h38.31.124,SurveyExpMetaMem,3.2.3,Win32,60
,,,,,,,,,,,,,,,,,,,,5,0.769000053,5,0.270000219,1,0,1200,167,1,1199,casino,11126 ,2019-10-21_20h38.31.124,SurveyExpMetaMem,3.2.3,Win32,60
,,,,,,,,,,,,,,,,,,,,5,1.271000147,5,0.259000063,1,0,1200,267,1,1199,bold,11126 ,2019-10-21_20h38.31.124,SurveyExpMetaMem,3.2.3,Win32,60
,,,,,,,,,,,,,,,,,,,,2,1.757000208,7,1.18200016,1,0,1200,47,1,1199,enjoy,11126 ,2019-10-21_20h38.31.124,SurveyExpMetaMem,3.2.3,Win32,60
,,,,,,,,,,,,,,,,,,,,5,1.00600028,5,0.271000147,1,0,1200,651,1,1199,bathroom,11126 ,2019-10-21_20h38.31.124,SurveyExpMetaMem,3.2.3,Win32,60
,,,,,,,,,,,,,,,,,,,,2,1.803000212,6,0.60400033,1,0,1200,91,1,1199,pretty,11126 ,2019-10-21_20h38.31.124,SurveyExpMetaMem,3.2.3,Win32,60
,,,,,,,,,,,,,,,,,,,,6,2.231000185,4,0.371999979,1,0,1200,534,1,1199,rules,11126 ,2019-10-21_20h38.31.124,SurveyExpMetaMem,3.2.3,Win32,60
,,,,,,,,,,,,,,,,,,,,5,3.227000237,5,0.242000103,1,0,1200,127,1,1199,glamorous,11126 ,2019-10-21_20h38.31.124,SurveyExpMetaMem,3.2.3,Win32,60
,,,,,,,,,,,,,,,,,,,,6,3.957999945,6,1.084000111,1,0,1200,131,1,1199,treat,11126 ,2019-10-21_20h38.31.124,SurveyExpMetaMem,3.2.3,Win32,60
,,,,,,,,,,,,,,,,,,,,5,4.037000179,5,0.301000118,1,0,1200,990,1,1199,enraged,11126 ,2019-10-21_20h38.31.124,SurveyExpMetaMem,3.2.3,Win32,60
,,,,,,,,,,,,,,,,,,,,5,5.402000189,5,0.21900034,1,0,1200,292,1,1199,birthday,11126 ,2019-10-21_20h38.31.124,SurveyExpMetaMem,3.2.3,Win32,60
,,,,,,,,,,,,,,,,,,,,7,2.072000265,2,0.822000027,1,0,1200,1183,1,1199,emotional,11126 ,2019-10-21_20h38.31.124,SurveyExpMetaMem,3.2.3,Win32,60
,,,,,,,,,,,,,,,,,,,,7,6.400000095,3,1.009000301,1,0,1200,1081,1,1199,damage,11126 ,2019-10-21_20h38.31.124,SurveyExpMetaMem,3.2.3,Win32,60
,,,,,,,,,,,,,,,,,,,,2,3.077000141,7,0.893000126,1,0,1200,753,1,1199,patience,11126 ,2019-10-21_20h38.31.124,SurveyExpMetaMem,3.2.3,Win32,60
,,,,,,,,,,,,,,,,,,,,5,3.024000168,5,0.289000273,1,0,1200,353,1,1199,blister,11126 ,2019-10-21_20h38.31.124,SurveyExpMetaMem,3.2.3,Win32,60
,,,,,,,,,,,,,,,,,,,,6,9.184000015,4,0.220000029,1,0,1200,367,1,1199,pathetic,11126 ,2019-10-21_20h38.31.124,SurveyExpMetaMem,3.2.3,Win32,60
,,,,,,,,,,,,,,,,,,,,5,7.808000088,5,0.296000242,1,0,1200,636,1,1199,refine,11126 ,2019-10-21_20h38.31.124,SurveyExpMetaMem,3.2.3,Win32,60
,,,,,,,,,,,,,,,,,,,,5,0.909000158,5,0.274000168,1,0,1200,447,1,1199,dishes,11126 ,2019-10-21_20h38.31.124,SurveyExpMetaMem,3.2.3,Win32,60
,,,,,,,,,,,,,,,,,,,,5,1.750000238,5,0.251000166,1,0,1200,34,1,1199,personality,11126 ,2019-10-21_20h38.31.124,SurveyExpMetaMem,3.2.3,Win32,60
,,,,,,,,,,,,,,,,,,,,5,1.184000015,5,0.220999956,1,0,1200,770,1,1199,buffalo,11126 ,2019-10-21_20h38.31.124,SurveyExpMetaMem,3.2.3,Win32,60
,,,,,,,,,,,,,,,,,,,,5,0.906000137,5,0.236000299,1,0,1200,1190,1,1199,clench,11126 ,2019-10-21_20h38.31.124,SurveyExpMetaMem,3.2.3,Win32,60
,,,,,,,,,,,,,,,,,,,,6,1.937000275,4,0.343000174,1,0,1200,525,1,1199,stagnant,11126 ,2019-10-21_20h38.31.124,SurveyExpMetaMem,3.2.3,Win32,60
,,,,,,,,,,,,,,,,,,,,6,2.142000198,4,0.275000334,1,0,1200,1115,1,1199,invade,11126 ,2019-10-21_20h38.31.124,SurveyExpMetaMem,3.2.3,Win32,60
,,,,,,,,,,,,,,,,,,,,3,4.718000174,7,1.293000221,1,0,1200,172,1,1199,potential,11126 ,2019-10-21_20h38.31.124,SurveyExpMetaMem,3.2.3,Win32,60
,,,,,,,,,,,,,,,,,,,,7,2.463999987,2,0.838000298,1,0,1200,1072,1,1199,bothered,11126 ,2019-10-21_20h38.31.124,SurveyExpMetaMem,3.2.3,Win32,60
,,,,,,,,,,,,,,,,,,,,5,2.788000107,5,0.358999968,1,0,1200,597,1,1199,drool,11126 ,2019-10-21_20h38.31.124,SurveyExpMetaMem,3.2.3,Win32,60
,,,,,,,,,,,,,,,,,,,,7,2.54700017,2,1.232000113,1,0,1200,939,1,1199,vomit,11126 ,2019-10-21_20h38.31.124,SurveyExpMetaMem,3.2.3,Win32,60
,,,,,,,,,,,,,,,,,,,,5,3.48300004,5,0.213000059,1,0,1200,751,1,1199,listen,11126 ,2019-10-21_20h38.31.124,SurveyExpMetaMem,3.2.3,Win32,60
,,,,,,,,,,,,,,,,,,,,5,1.327000141,5,0.288000107,1,0,1200,398,1,1199,handicapped,11126 ,2019-10-21_20h38.31.124,SurveyExpMetaMem,3.2.3,Win32,60
,,,,,,,,,,,,,,,,,,,,5,1.185000181,5,0.327000141,1,0,1200,715,1,1199,sheltered,11126 ,2019-10-21_20h38.31.124,SurveyExpMetaMem,3.2.3,Win32,60
,,,,,,,,,,,,,,,,,,,,5,1.571000099,5,0.669000387,1,0,1200,346,1,1199,alcoholism,11126 ,2019-10-21_20h38.31.124,SurveyExpMetaMem,3.2.3,Win32,60
,,,,,,,,,,,,,,,,,,,,7,19.3380003,3,1.702000141,1,0,1200,1089,1,1199,ridicule,11126 ,2019-10-21_20h38.31.124,SurveyExpMetaMem,3.2.3,Win32,60
,,,,,,,,,,,,,,,,,,,,3,0.015000343,2,5.456000328,1,0,1200,322,1,1199,widow,11126 ,2019-10-21_20h38.31.124,SurveyExpMetaMem,3.2.3,Win32,60
,,,,,,,,,,,,,,,,,,,,6,4.447999954,4,4.791000128,1,0,1200,557,1,1199,class,11126 ,2019-10-21_20h38.31.124,SurveyExpMetaMem,3.2.3,Win32,60
,,,,,,,,,,,,,,,,,,,,5,2.943000317,5,0.278000355,1,0,1200,35,1,1199,bright,11126 ,2019-10-21_20h38.31.124,SurveyExpMetaMem,3.2.3,Win32,60
,,,,,,,,,,,,,,,,,,,,3,2.823000193,7,0.761000156,1,0,1200,873,1,1199,useful,11126 ,2019-10-21_20h38.31.124,SurveyExpMetaMem,3.2.3,Win32,60
,,,,,,,,,,,,,,,,,,,,3,2.068000078,7,0.453000069,1,0,1200,898,1,1199,kindness,11126 ,2019-10-21_20h38.31.124,SurveyExpMetaMem,3.2.3,Win32,60
,,,,,,,,,,,,,,,,,,,,6,2.538000107,4,0.383000135,1,0,1200,570,1,1199,muddy,11126 ,2019-10-21_20h38.31.124,SurveyExpMetaMem,3.2.3,Win32,60
,,,,,,,,,,,,,,,,,,,,5,2.899000168,5,0.223000288,1,0,1200,1154,1,1199,politics,11126 ,2019-10-21_20h38.31.124,SurveyExpMetaMem,3.2.3,Win32,60
,,,,,,,,,,,,,,,,,,,,6,2.140000343,4,0.403000116,1,0,1200,992,1,1199,addict,11126 ,2019-10-21_20h38.31.124,SurveyExpMetaMem,3.2.3,Win32,60
,,,,,,,,,,,,,,,,,,,,5,1.611999989,5,0.271000147,1,0,1200,697,1,1199,clarinet,11126 ,2019-10-21_20h38.31.124,SurveyExpMetaMem,3.2.3,Win32,60
,,,,,,,,,,,,,,,,,,,,6,1.977000237,4,0.198000193,1,0,1200,424,1,1199,fault,11126 ,2019-10-21_20h38.31.124,SurveyExpMetaMem,3.2.3,Win32,60
,,,,,,,,,,,,,,,,,,,,7,1.93200016,4,3.616000175,1,0,1200,1,1,1199,fuck,11126 ,2019-10-21_20h38.31.124,SurveyExpMetaMem,3.2.3,Win32,60
,,,,,,,,,,,,,,,,,,,,6,4.007000208,7,0.989000082,1,0,1200,99,1,1199,funny,11126 ,2019-10-21_20h38.31.124,SurveyExpMetaMem,3.2.3,Win32,60
,,,,,,,,,,,,,,,,,,,,7,5.529000044,3,0.972000122,1,0,1200,1171,1,1199,chaos,11126 ,2019-10-21_20h38.31.124,SurveyExpMetaMem,3.2.3,Win32,60
,,,,,,,,,,,,,,,,,,,,7,2.186000347,2,0.618000269,1,0,1200,1104,1,1199,avalanche,11126 ,2019-10-21_20h38.31.124,SurveyExpMetaMem,3.2.3,Win32,60
,,,,,,,,,,,,,,,,,,,,6,2.372000217,4,0.339000225,1,0,1200,1180,1,1199,heat,11126 ,2019-10-21_20h38.31.124,SurveyExpMetaMem,3.2.3,Win32,60
,,,,,,,,,,,,,,,,,,,,5,1.686000109,5,0.249000311,1,0,1200,430,1,1199,cancel,11126 ,2019-10-21_20h38.31.124,SurveyExpMetaMem,3.2.3,Win32,60
,,,,,,,,,,,,,,,,,,,,5,1.268000126,5,0.277000189,1,0,1200,159,1,1199,teenager,11126 ,2019-10-21_20h38.31.124,SurveyExpMetaMem,3.2.3,Win32,60
,,,,,,,,,,,,,,,,,,,,2,2.10400033,7,2.245000124,1,0,1200,287,1,1199,optimistic,11126 ,2019-10-21_20h38.31.124,SurveyExpMetaMem,3.2.3,Win32,60
,,,,,,,,,,,,,,,,,,,,6,2.254000187,4,0.282000065,1,0,1200,988,1,1199,deserter,11126 ,2019-10-21_20h38.31.124,SurveyExpMetaMem,3.2.3,Win32,60
,,,,,,,,,,,,,,,,,,,,3,2.752000093,7,0.629000187,1,0,1200,82,1,1199,stunning,11126 ,2019-10-21_20h38.31.124,SurveyExpMetaMem,3.2.3,Win32,60
,,,,,,,,,,,,,,,,,,,,2,3.425000191,7,0.874000072,1,0,1200,792,1,1199,moral,11126 ,2019-10-21_20h38.31.124,SurveyExpMetaMem,3.2.3,Win32,60
,,,,,,,,,,,,,,,,,,,,5,1.093000174,5,0.590000391,1,0,1200,168,1,1199,mate,11126 ,2019-10-21_20h38.31.124,SurveyExpMetaMem,3.2.3,Win32,60
,,,,,,,,,,,,,,,,,,,,5,3.024000168,5,0.272000313,1,0,1200,118,1,1199,conquer,11126 ,2019-10-21_20h38.31.124,SurveyExpMetaMem,3.2.3,Win32,60
,,,,,,,,,,,,,,,,,,,,5,1.471000195,5,0.302000046,1,0,1200,530,1,1199,erase,11126 ,2019-10-21_20h38.31.124,SurveyExpMetaMem,3.2.3,Win32,60
,,,,,,,,,,,,,,,,,,,,5,1.255000353,5,0.225000143,1,0,1200,223,1,1199,fashion,11126 ,2019-10-21_20h38.31.124,SurveyExpMetaMem,3.2.3,Win32,60
,,,,,,,,,,,,,,,,,,,,2,3.025000334,7,0.880000114,1,0,1200,284,1,1199,delight,11126 ,2019-10-21_20h38.31.124,SurveyExpMetaMem,3.2.3,Win32,60
,,,,,,,,,,,,,,,,,,,,6,5.354000092,3,1.184000254,1,0,1200,344,1,1199,pessimistic,11126 ,2019-10-21_20h38.31.124,SurveyExpMetaMem,3.2.3,Win32,60
,,,,,,,,,,,,,,,,,,,,7,3.003000021,7,1.225000381,1,0,1200,195,1,1199,laughing,11126 ,2019-10-21_20h38.31.124,SurveyExpMetaMem,3.2.3,Win32,60
,,,,,,,,,,,,,,,,,,,,5,4.090000391,5,0.420000076,1,0,1200,642,1,1199,newspaper,11126 ,2019-10-21_20h38.31.124,SurveyExpMetaMem,3.2.3,Win32,60
,,,,,,,,,,,,,,,,,,,,2,3.601999998,7,0.248000145,1,0,1200,83,1,1199,appreciative,11126 ,2019-10-21_20h38.31.124,SurveyExpMetaMem,3.2.3,Win32,60
,,,,,,,,,,,,,,,,,,,,7,3.267000198,7,0.472000122,1,0,1200,242,1,1199,triumph,11126 ,2019-10-21_20h38.31.124,SurveyExpMetaMem,3.2.3,Win32,60
,,,,,,,,,,,,,,,,,,,,7,7.125000238,3,0.878000259,1,0,1200,1059,1,1199,harsh,11126 ,2019-10-21_20h38.31.124,SurveyExpMetaMem,3.2.3,Win32,60
,,,,,,,,,,,,,,,,,,,,5,2.110000134,5,0.311000109,1,0,1200,1117,1,1199,court,11126 ,2019-10-21_20h38.31.124,SurveyExpMetaMem,3.2.3,Win32,60
,,,,,,,,,,,,,,,,,,,,5,1.253000259,5,0.219000101,1,0,1200,262,1,1199,athletics,11126 ,2019-10-21_20h38.31.124,SurveyExpMetaMem,3.2.3,Win32,60
,,,,,,,,,,,,,,,,,,,,5,1.187000036,5,0.246000051,1,0,1200,339,1,1199,chore,11126 ,2019-10-21_20h38.31.124,SurveyExpMetaMem,3.2.3,Win32,60
,,,,,,,,,,,,,,,,,,,,5,1.09400034,5,0.274000168,1,0,1200,527,1,1199,passive,11126 ,2019-10-21_20h38.31.124,SurveyExpMetaMem,3.2.3,Win32,60
,,,,,,,,,,,,,,,,,,,,6,2.090000153,4,0.330000162,1,0,1200,473,1,1199,senseless,11126 ,2019-10-21_20h38.31.124,SurveyExpMetaMem,3.2.3,Win32,60
,,,,,,,,,,,,,,,,,,,,5,1.214000225,5,0.302000284,1,0,1200,51,1,1199,body,11126 ,2019-10-21_20h38.31.124,SurveyExpMetaMem,3.2.3,Win32,60
,,,,,,,,,,,,,,,,,,,,2,2.110000134,8,0.837000132,1,0,1200,196,1,1199,smile,11126 ,2019-10-21_20h38.31.124,SurveyExpMetaMem,3.2.3,Win32,60
,,,,,,,,,,,,,,,,,,,,5,5.521000147,2,0.906000137,1,0,1200,685,1,1199,makeup,11126 ,2019-10-21_20h38.31.124,SurveyExpMetaMem,3.2.3,Win32,60
,,,,,,,,,,,,,,,,,,,,2,7.726000071,2,2.693000078,1,0,1200,541,1,1199,apathy,11126 ,2019-10-21_20h38.31.124,SurveyExpMetaMem,3.2.3,Win32,60
,,,,,,,,,,,,,,,,,,,,5,1.737000227,5,0.255000114,1,0,1200,840,1,1199,cuisine,11126 ,2019-10-21_20h38.31.124,SurveyExpMetaMem,3.2.3,Win32,60
,,,,,,,,,,,,,,,,,,,,6,3.121999979,3,1.039000273,1,0,1200,962,1,1199,poisonous,11126 ,2019-10-21_20h38.31.124,SurveyExpMetaMem,3.2.3,Win32,60
,,,,,,,,,,,,,,,,,,,,5,3.118000269,5,0.248000145,1,0,1200,750,1,1199,porpoise,11126 ,2019-10-21_20h38.31.124,SurveyExpMetaMem,3.2.3,Win32,60
,,,,,,,,,,,,,,,,,,,,5,1.639000177,5,0.244000196,1,0,1200,519,1,1199,listless,11126 ,2019-10-21_20h38.31.124,SurveyExpMetaMem,3.2.3,Win32,60
,,,,,,,,,,,,,,,,,,,,6,2.407000303,4,0.321000338,1,0,1200,1140,1,1199,blood,11126 ,2019-10-21_20h38.31.124,SurveyExpMetaMem,3.2.3,Win32,60
,,,,,,,,,,,,,,,,,,,,7,5.386000156,2,1.070000172,1,0,1200,918,1,1199,gunpoint,11126 ,2019-10-21_20h38.31.124,SurveyExpMetaMem,3.2.3,Win32,60
,,,,,,,,,,,,,,,,,,,,7,2.545000076,2,0.88800025,1,0,1200,1056,1,1199,crime,11126 ,2019-10-21_20h38.31.124,SurveyExpMetaMem,3.2.3,Win32,60
,,,,,,,,,,,,,,,,,,,,7,1.212000132,2,0.465000153,1,0,1200,1009,1,1199,frightened,11126 ,2019-10-21_20h38.31.124,SurveyExpMetaMem,3.2.3,Win32,60
,,,,,,,,,,,,,,,,,,,,5,2.272000313,5,0.186000109,1,0,1200,836,1,1199,lounge,11126 ,2019-10-21_20h38.31.124,SurveyExpMetaMem,3.2.3,Win32,60
,,,,,,,,,,,,,,,,,,,,6,1.659000158,4,0.255000114,1,0,1200,1143,1,1199,arrogant,11126 ,2019-10-21_20h38.31.124,SurveyExpMetaMem,3.2.3,Win32,60
,,,,,,,,,,,,,,,,,,,,7,6.55700016,8,1.055999994,1,0,1200,199,1,1199,laughter,11126 ,2019-10-21_20h38.31.124,SurveyExpMetaMem,3.2.3,Win32,60
,,,,,,,,,,,,,,,,,,,,5,8.370000124,5,0.237000227,1,0,1200,14,1,1199,attain,11126 ,2019-10-21_20h38.31.124,SurveyExpMetaMem,3.2.3,Win32,60
,,,,,,,,,,,,,,,,,,,,6,2.942000151,6,0.885000229,1,0,1200,288,1,1199,tasty,11126 ,2019-10-21_20h38.31.124,SurveyExpMetaMem,3.2.3,Win32,60
,,,,,,,,,,,,,,,,,,,,5,1.583000183,5,0.208000183,1,0,1200,771,1,1199,practical,11126 ,2019-10-21_20h38.31.124,SurveyExpMetaMem,3.2.3,Win32,60
,,,,,,,,,,,,,,,,,,,,5,1.214000225,5,0.194000244,1,0,1200,593,1,1199,errand,11126 ,2019-10-21_20h38.31.124,SurveyExpMetaMem,3.2.3,Win32,60
,,,,,,,,,,,,,,,,,,,,2,2.704000235,1,0.613000154,1,0,1200,302,1,1199,loneliness,11126 ,2019-10-21_20h38.31.124,SurveyExpMetaMem,3.2.3,Win32,60
,,,,,,,,,,,,,,,,,,,,5,1.736000299,5,0.20600009,1,0,1200,6,1,1199,chest,11126 ,2019-10-21_20h38.31.124,SurveyExpMetaMem,3.2.3,Win32,60
,,,,,,,,,,,,,,,,,,,,5,1.590000153,5,0.226000309,1,0,1200,720,1,1199,stable,11126 ,2019-10-21_20h38.31.124,SurveyExpMetaMem,3.2.3,Win32,60
,,,,,,,,,,,,,,,,,,,,7,3.024000168,7,0.870000124,1,0,1200,264,1,1199,thong,11126 ,2019-10-21_20h38.31.124,SurveyExpMetaMem,3.2.3,Win32,60
,,,,,,,,,,,,,,,,,,,,5,2.736000299,5,0.254000187,1,0,1200,572,1,1199,cast,11126 ,2019-10-21_20h38.31.124,SurveyExpMetaMem,3.2.3,Win32,60
,,,,,,,,,,,,,,,,,,,,8,2.536999941,2,2.197000265,1,0,1200,981,1,1199,rage,11126 ,2019-10-21_20h38.31.124,SurveyExpMetaMem,3.2.3,Win32,60
,,,,,,,,,,,,,,,,,,,,5,2.677999973,5,0.26300025,1,0,1200,562,1,1199,average,11126 ,2019-10-21_20h38.31.124,SurveyExpMetaMem,3.2.3,Win32,60
,,,,,,,,,,,,,,,,,,,,5,1.627000093,5,0.244000196,1,0,1200,554,1,1199,label,11126 ,2019-10-21_20h38.31.124,SurveyExpMetaMem,3.2.3,Win32,60
,,,,,,,,,,,,,,,,,,,,6,2.576000214,7,0.7900002,1,0,1200,293,1,1199,succeed,11126 ,2019-10-21_20h38.31.124,SurveyExpMetaMem,3.2.3,Win32,60
,,,,,,,,,,,,,,,,,,,,7,2.096000195,2,0.663000107,1,0,1200,1022,1,1199,creepy,11126 ,2019-10-21_20h38.31.124,SurveyExpMetaMem,3.2.3,Win32,60
,,,,,,,,,,,,,,,,,,,,7,2.210000277,3,0.592000246,1,0,1200,326,1,1199,scam,11126 ,2019-10-21_20h38.31.124,SurveyExpMetaMem,3.2.3,Win32,60
,,,,,,,,,,,,,,,,,,,,7,1.642000198,1,1.190000057,1,0,1200,985,1,1199,pollution,11126 ,2019-10-21_20h38.31.124,SurveyExpMetaMem,3.2.3,Win32,60
,,,,,,,,,,,,,,,,,,,,2,2.622000217,7,0.345000029,1,0,1200,68,1,1199,perfect,11126 ,2019-10-21_20h38.31.124,SurveyExpMetaMem,3.2.3,Win32,60
,,,,,,,,,,,,,,,,,,,,7,2.236999989,3,0.794000149,1,0,1200,1169,1,1199,enforcement,11126 ,2019-10-21_20h38.31.124,SurveyExpMetaMem,3.2.3,Win32,60
,,,,,,,,,,,,,,,,,,,,7,2.269000292,1,1.291000128,1,0,1200,923,1,1199,punish,11126 ,2019-10-21_20h38.31.124,SurveyExpMetaMem,3.2.3,Win32,60
,,,,,,,,,,,,,,,,,,,,5,2.268000126,5,0.237000227,1,0,1200,604,1,1199,lamp,11126 ,2019-10-21_20h38.31.124,SurveyExpMetaMem,3.2.3,Win32,60
,,,,,,,,,,,,,,,,,,,,5,0.978000164,5,0.277000189,1,0,1200,740,1,1199,groceries,11126 ,2019-10-21_20h38.31.124,SurveyExpMetaMem,3.2.3,Win32,60
,,,,,,,,,,,,,,,,,,,,6,1.625,3,0.821000338,1,0,1200,319,1,1199,malaria,11126 ,2019-10-21_20h38.31.124,SurveyExpMetaMem,3.2.3,Win32,60
,,,,,,,,,,,,,,,,,,,,6,3.736999989,7,0.493000031,1,0,1200,198,1,1199,comedy,11126 ,2019-10-21_20h38.31.124,SurveyExpMetaMem,3.2.3,Win32,60
,,,,,,,,,,,,,,,,,,,,5,1.837000132,5,0.264000177,1,0,1200,386,1,1199,pale,11126 ,2019-10-21_20h38.31.124,SurveyExpMetaMem,3.2.3,Win32,60
,,,,,,,,,,,,,,,,,,,,5,0.925000191,5,0.254000187,1,0,1200,221,1,1199,sparkle,11126 ,2019-10-21_20h38.31.124,SurveyExpMetaMem,3.2.3,Win32,60
,,,,,,,,,,,,,,,,,,,,5,1.271000147,5,0.287000179,1,0,1200,1111,1,1199,bruise,11126 ,2019-10-21_20h38.31.124,SurveyExpMetaMem,3.2.3,Win32,60
,,,,,,,,,,,,,,,,,,,,7,3.119000196,3,0.895000219,1,0,1200,948,1,1199,pain,11126 ,2019-10-21_20h38.31.124,SurveyExpMetaMem,3.2.3,Win32,60
,,,,,,,,,,,,,,,,,,,,2,5.71200037,2,1.214000225,1,0,1200,521,1,1199,laundry,11126 ,2019-10-21_20h38.31.124,SurveyExpMetaMem,3.2.3,Win32,60
,,,,,,,,,,,,,,,,,,,,5,1.502000093,5,0.333000183,1,0,1200,540,1,1199,derelict,11126 ,2019-10-21_20h38.31.124,SurveyExpMetaMem,3.2.3,Win32,60
,,,,,,,,,,,,,,,,,,,,5,1.640000105,5,0.258000135,1,0,1200,682,1,1199,camel,11126 ,2019-10-21_20h38.31.124,SurveyExpMetaMem,3.2.3,Win32,60
,,,,,,,,,,,,,,,,,,,,5,2.124000072,5,0.269000292,1,0,1200,273,1,1199,worthwhile,11126 ,2019-10-21_20h38.31.124,SurveyExpMetaMem,3.2.3,Win32,60
,,,,,,,,,,,,,,,,,,,,5,3.570000172,1,0.74000001,1,0,1200,1120,1,1199,gun,11126 ,2019-10-21_20h38.31.124,SurveyExpMetaMem,3.2.3,Win32,60
,,,,,,,,,,,,,,,,,,,,2,5.260000229,7,0.836000204,1,0,1200,824,1,1199,favor,11126 ,2019-10-21_20h38.31.124,SurveyExpMetaMem,3.2.3,Win32,60
,,,,,,,,,,,,,,,,,,,,5,4.087000132,5,1.276000023,1,0,1200,84,1,1199,eat,11126 ,2019-10-21_20h38.31.124,SurveyExpMetaMem,3.2.3,Win32,60
,,,,,,,,,,,,,,,,,,,,5,1.446000099,5,0.470000267,1,0,1200,434,1,1199,frail,11126 ,2019-10-21_20h38.31.124,SurveyExpMetaMem,3.2.3,Win32,60
,,,,,,,,,,,,,,,,,,,,7,2.255000114,2,0.760000229,1,0,1200,338,1,1199,obesity,11126 ,2019-10-21_20h38.31.124,SurveyExpMetaMem,3.2.3,Win32,60
,,,,,,,,,,,,,,,,,,,,7,2.322000265,3,1.476999998,1,0,1200,960,1,1199,irritated,11126 ,2019-10-21_20h38.31.124,SurveyExpMetaMem,3.2.3,Win32,60
,,,,,,,,,,,,,,,,,,,,5,1.134000063,5,0.210000038,1,0,1200,119,1,1199,stereo,11126 ,2019-10-21_20h38.31.124,SurveyExpMetaMem,3.2.3,Win32,60
,,,,,,,,,,,,,,,,,,,,2,2.246999979,2,0.72900033,1,0,1200,389,1,1199,gloomy,11126 ,2019-10-21_20h38.31.124,SurveyExpMetaMem,3.2.3,Win32,60
,,,,,,,,,,,,,,,,,,,,7,1.933000326,7,2.920000076,1,0,1200,244,1,1199,sexy,11126 ,2019-10-21_20h38.31.124,SurveyExpMetaMem,3.2.3,Win32,60
,,,,,,,,,,,,,,,,,,,,5,0.972000122,5,0.269999981,1,0,1200,699,1,1199,leg,11126 ,2019-10-21_20h38.31.124,SurveyExpMetaMem,3.2.3,Win32,60
,,,,,,,,,,,,,,,,,,,,5,1.477000237,5,0.241000175,1,0,1200,926,1,1199,dead,11126 ,2019-10-21_20h38.31.124,SurveyExpMetaMem,3.2.3,Win32,60
,,,,,,,,,,,,,,,,,,,,5,1.226000309,5,0.29700017,1,0,1200,153,1,1199,teach,11126 ,2019-10-21_20h38.31.124,SurveyExpMetaMem,3.2.3,Win32,60
,,,,,,,,,,,,,,,,,,,,5,2.98900032,5,0.250000238,1,0,1200,442,1,1199,foolish,11126 ,2019-10-21_20h38.31.124,SurveyExpMetaMem,3.2.3,Win32,60
,,,,,,,,,,,,,,,,,,,,7,1.901000261,7,0.587000132,1,0,1200,11,1,1199,astonished,11126 ,2019-10-21_20h38.31.124,SurveyExpMetaMem,3.2.3,Win32,60
,,,,,,,,,,,,,,,,,,,,5,1.194000244,5,0.294000149,1,0,1200,137,1,1199,money,11126 ,2019-10-21_20h38.31.124,SurveyExpMetaMem,3.2.3,Win32,60
,,,,,,,,,,,,,,,,,,,,7,2.748000145,2,0.53000021,1,0,1200,900,1,1199,suicide,11126 ,2019-10-21_20h38.31.124,SurveyExpMetaMem,3.2.3,Win32,60
,,,,,,,,,,,,,,,,,,,,5,3.809000254,5,0.253000259,1,0,1200,790,1,1199,binoculars,11126 ,2019-10-21_20h38.31.124,SurveyExpMetaMem,3.2.3,Win32,60
,,,,,,,,,,,,,,,,,,,,7,2.870000124,3,1.020000219,1,0,1200,1076,1,1199,embarrassed,11126 ,2019-10-21_20h38.31.124,SurveyExpMetaMem,3.2.3,Win32,60
,,,,,,,,,,,,,,,,,,,,5,2.068000078,5,0.269999981,1,0,1200,1051,1,1199,insane,11126 ,2019-10-21_20h38.31.124,SurveyExpMetaMem,3.2.3,Win32,60
,,,,,,,,,,,,,,,,,,,,5,2.741000175,5,0.223999977,1,0,1200,263,1,1199,answer,11126 ,2019-10-21_20h38.31.124,SurveyExpMetaMem,3.2.3,Win32,60
,,,,,,,,,,,,,,,,,,,,5,0.742000341,5,0.226000309,1,0,1200,61,1,1199,zoom,11126 ,2019-10-21_20h38.31.124,SurveyExpMetaMem,3.2.3,Win32,60
,,,,,,,,,,,,,,,,,,,,5,1.088000059,5,0.207000256,1,0,1200,722,1,1199,consoled,11126 ,2019-10-21_20h38.31.124,SurveyExpMetaMem,3.2.3,Win32,60
,,,,,,,,,,,,,,,,,,,,5,1.359000206,5,0.232000113,1,0,1200,177,1,1199,frosting,11126 ,2019-10-21_20h38.31.124,SurveyExpMetaMem,3.2.3,Win32,60
,,,,,,,,,,,,,,,,,,,,5,0.863000154,5,0.236999989,1,0,1200,767,1,1199,civil,11126 ,2019-10-21_20h38.31.124,SurveyExpMetaMem,3.2.3,Win32,60
,,,,,,,,,,,,,,,,,,,,5,0.837000132,5,0.243000269,1,0,1200,125,1,1199,dancing,11126 ,2019-10-21_20h38.31.124,SurveyExpMetaMem,3.2.3,Win32,60
,,,,,,,,,,,,,,,,,,,,5,2.434999943,5,0.249000072,1,0,1200,462,1,1199,shallow,11126 ,2019-10-21_20h38.31.124,SurveyExpMetaMem,3.2.3,Win32,60
,,,,,,,,,,,,,,,,,,,,7,1.54700017,8,1.09400034,1,0,1200,98,1,1199,affection,11126 ,2019-10-21_20h38.31.124,SurveyExpMetaMem,3.2.3,Win32,60
,,,,,,,,,,,,,,,,,,,,5,1.29700017,5,0.265000105,1,0,1200,785,1,1199,pond,11126 ,2019-10-21_20h38.31.124,SurveyExpMetaMem,3.2.3,Win32,60
,,,,,,,,,,,,,,,,,,,,7,2.103000164,2,0.457000256,1,0,1200,912,1,1199,rabies,11126 ,2019-10-21_20h38.31.124,SurveyExpMetaMem,3.2.3,Win32,60
,,,,,,,,,,,,,,,,,,,,6,4.548000336,3,0.52300024,1,0,1200,1165,1,1199,revolt,11126 ,2019-10-21_20h38.31.124,SurveyExpMetaMem,3.2.3,Win32,60
,,,,,,,,,,,,,,,,,,,,5,2.088000059,5,0.255000114,1,0,1200,560,1,1199,spurn,11126 ,2019-10-21_20h38.31.124,SurveyExpMetaMem,3.2.3,Win32,60
,,,,,,,,,,,,,,,,,,,,5,0.871999979,5,0.238000154,1,0,1200,854,1,1199,river,11126 ,2019-10-21_20h38.31.124,SurveyExpMetaMem,3.2.3,Win32,60
,,,,,,,,,,,,,,,,,,,,5,1.584000349,5,0.249000072,1,0,1200,205,1,1199,outspoken,11126 ,2019-10-21_20h38.31.124,SurveyExpMetaMem,3.2.3,Win32,60
,,,,,,,,,,,,,,,,,,,,6,1.809000254,4,0.237000227,1,0,1200,1062,1,1199,shoplifter,11126 ,2019-10-21_20h38.31.124,SurveyExpMetaMem,3.2.3,Win32,60
,,,,,,,,,,,,,,,,,,,,5,1.427000284,5,0.253000021,1,0,1200,1187,1,1199,drill,11126 ,2019-10-21_20h38.31.124,SurveyExpMetaMem,3.2.3,Win32,60
,,,,,,,,,,,,,,,,,,,,6,3.351000071,5,4.927000284,1,0,1200,184,1,1199,surprised,11126 ,2019-10-21_20h38.31.124,SurveyExpMetaMem,3.2.3,Win32,60
,,,,,,,,,,,,,,,,,,,,5,1.084000111,5,0.247000217,1,0,1200,440,1,1199,forgot,11126 ,2019-10-21_20h38.31.124,SurveyExpMetaMem,3.2.3,Win32,60
,,,,,,,,,,,,,,,,,,,,6,3.121000051,4,0.262000322,1,0,1200,635,1,1199,sensitive,11126 ,2019-10-21_20h38.31.124,SurveyExpMetaMem,3.2.3,Win32,60
,,,,,,,,,,,,,,,,,,,,5,1.904000282,5,0.209000111,1,0,1200,694,1,1199,pecan,11126 ,2019-10-21_20h38.31.124,SurveyExpMetaMem,3.2.3,Win32,60
,,,,,,,,,,,,,,,,,,,,5,1.179000139,5,0.195000172,1,0,1200,496,1,1199,slow,11126 ,2019-10-21_20h38.31.124,SurveyExpMetaMem,3.2.3,Win32,60
,,,,,,,,,,,,,,,,,,,,5,2.119000196,5,0.233999968,1,0,1200,714,1,1199,courtyard,11126 ,2019-10-21_20h38.31.124,SurveyExpMetaMem,3.2.3,Win32,60
,,,,,,,,,,,,,,,,,,,,5,1.226999998,5,0.233000278,1,0,1200,660,1,1199,rock,11126 ,2019-10-21_20h38.31.124,SurveyExpMetaMem,3.2.3,Win32,60
,,,,,,,,,,,,,,,,,,,,5,1.75600028,5,0.244000196,1,0,1200,827,1,1199,saint,11126 ,2019-10-21_20h38.31.124,SurveyExpMetaMem,3.2.3,Win32,60
,,,,,,,,,,,,,,,,,,,,5,0.748000145,5,0.209000111,1,0,1200,806,1,1199,tree,11126 ,2019-10-21_20h38.31.124,SurveyExpMetaMem,3.2.3,Win32,60
,,,,,,,,,,,,,,,,,,,,5,1.19900012,5,0.257000208,1,0,1200,705,1,1199,tolerant,11126 ,2019-10-21_20h38.31.124,SurveyExpMetaMem,3.2.3,Win32,60
,,,,,,,,,,,,,,,,,,,,5,1.890000105,5,0.240000248,1,0,1200,575,1,1199,paragraph,11126 ,2019-10-21_20h38.31.124,SurveyExpMetaMem,3.2.3,Win32,60
,,,,,,,,,,,,,,,,,,,,7,2.323000193,6,2.210000038,1,0,1200,144,1,1199,aroused,11126 ,2019-10-21_20h38.31.124,SurveyExpMetaMem,3.2.3,Win32,60
,,,,,,,,,,,,,,,,,,,,2,1.98900032,4,2.526000023,1,0,1200,416,1,1199,boring,11126 ,2019-10-21_20h38.31.124,SurveyExpMetaMem,3.2.3,Win32,60
,,,,,,,,,,,,,,,,,,,,6,2.9150002,4,0.377000093,1,0,1200,486,1,1199,fool,11126 ,2019-10-21_20h38.31.124,SurveyExpMetaMem,3.2.3,Win32,60
,,,,,,,,,,,,,,,,,,,,7,1.510000229,6,1.390000105,1,0,1200,5,1,1199,drunk,11126 ,2019-10-21_20h38.31.124,SurveyExpMetaMem,3.2.3,Win32,60
,,,,,,,,,,,,,,,,,,,,5,1.802000046,5,0.226000071,1,0,1200,764,1,1199,coin,11126 ,2019-10-21_20h38.31.124,SurveyExpMetaMem,3.2.3,Win32,60
,,,,,,,,,,,,,,,,,,,,5,0.897000074,5,0.247000217,1,0,1200,493,1,1199,little,11126 ,2019-10-21_20h38.31.124,SurveyExpMetaMem,3.2.3,Win32,60
,,,,,,,,,,,,,,,,,,,,7,3.445000172,3,0.730000019,1,0,1200,1018,1,1199,distress,11126 ,2019-10-21_20h38.31.124,SurveyExpMetaMem,3.2.3,Win32,60
,,,,,,,,,,,,,,,,,,,,5,1.63800025,5,0.279000044,1,0,1200,155,1,1199,ignite,11126 ,2019-10-21_20h38.31.124,SurveyExpMetaMem,3.2.3,Win32,60
,,,,,,,,,,,,,,,,,,,,5,1.556000233,5,0.272000074,1,0,1200,1040,1,1199,communism,11126 ,2019-10-21_20h38.31.124,SurveyExpMetaMem,3.2.3,Win32,60
,,,,,,,,,,,,,,,,,,,,5,1.052000046,2,2.67200017,1,0,1200,925,1,1199,disloyal,11126 ,2019-10-21_20h38.31.124,SurveyExpMetaMem,3.2.3,Win32,60
,,,,,,,,,,,,,,,,,,,,5,2.223999977,5,0.270000219,1,0,1200,1093,1,1199,hive,11126 ,2019-10-21_20h38.31.124,SurveyExpMetaMem,3.2.3,Win32,60
,,,,,,,,,,,,,,,,,,,,5,1.504000187,4,1.142000198,1,0,1200,374,1,1199,sluggish,11126 ,2019-10-21_20h38.31.124,SurveyExpMetaMem,3.2.3,Win32,60
,,,,,,,,,,,,,,,,,,,,5,1.143000126,5,0.353000164,1,0,1200,1153,1,1199,mangle,11126 ,2019-10-21_20h38.31.124,SurveyExpMetaMem,3.2.3,Win32,60
,,,,,,,,,,,,,,,,,,,,7,2.11500001,2,0.893000126,1,0,1200,954,1,1199,hostage,11126 ,2019-10-21_20h38.31.124,SurveyExpMetaMem,3.2.3,Win32,60
,,,,,,,,,,,,,,,,,,,,5,1.163000107,5,0.242000103,1,0,1200,590,1,1199,stool,11126 ,2019-10-21_20h38.31.124,SurveyExpMetaMem,3.2.3,Win32,60
,,,,,,,,,,,,,,,,,,,,5,1.856000185,5,0.282000065,1,0,1200,777,1,1199,casual,11126 ,2019-10-21_20h38.31.124,SurveyExpMetaMem,3.2.3,Win32,60
,,,,,,,,,,,,,,,,,,,,5,1.560000181,5,0.286000252,1,0,1200,1145,1,1199,officer,11126 ,2019-10-21_20h38.31.124,SurveyExpMetaMem,3.2.3,Win32,60
,,,,,,,,,,,,,,,,,,,,5,1.587000132,5,0.242000103,1,0,1200,157,1,1199,reveal,11126 ,2019-10-21_20h38.31.124,SurveyExpMetaMem,3.2.3,Win32,60
,,,,,,,,,,,,,,,,,,,,2,2.211000204,7,1.26699996,1,0,1200,732,1,1199,humble,11126 ,2019-10-21_20h38.31.124,SurveyExpMetaMem,3.2.3,Win32,60
,,,,,,,,,,,,,,,,,,,,5,1.118000269,5,0.289000273,1,0,1200,499,1,1199,stop,11126 ,2019-10-21_20h38.31.124,SurveyExpMetaMem,3.2.3,Win32,60
,,,,,,,,,,,,,,,,,,,,5,1.10400033,5,0.272000074,1,0,1200,1176,1,1199,vampire,11126 ,2019-10-21_20h38.31.124,SurveyExpMetaMem,3.2.3,Win32,60
,,,,,,,,,,,,,,,,,,,,5,0.89800024,5,0.303000212,1,0,1200,830,1,1199,pear,11126 ,2019-10-21_20h38.31.124,SurveyExpMetaMem,3.2.3,Win32,60
,,,,,,,,,,,,,,,,,,,,5,1.310000181,5,0.305000305,1,0,1200,986,1,1199,mad,11126 ,2019-10-21_20h38.31.124,SurveyExpMetaMem,3.2.3,Win32,60
,,,,,,,,,,,,,,,,,,,,5,1.236000299,5,0.252000093,1,0,1200,457,1,1199,confuse,11126 ,2019-10-21_20h38.31.124,SurveyExpMetaMem,3.2.3,Win32,60
,,,,,,,,,,,,,,,,,,,,6,3.171000004,6,0.225000143,1,0,1200,135,1,1199,applause,11126 ,2019-10-21_20h38.31.124,SurveyExpMetaMem,3.2.3,Win32,60
,,,,,,,,,,,,,,,,,,,,5,1.141000032,5,0.241000175,1,0,1200,514,1,1199,defer,11126 ,2019-10-21_20h38.31.124,SurveyExpMetaMem,3.2.3,Win32,60
,,,,,,,,,,,,,,,,,,,,2,2.048000097,6,0.801000118,1,0,1200,717,1,1199,modest,11126 ,2019-10-21_20h38.31.124,SurveyExpMetaMem,3.2.3,Win32,60
,,,,,,,,,,,,,,,,,,,,7,2.104000092,2,0.552000284,1,0,1200,1037,1,1199,scared,11126 ,2019-10-21_20h38.31.124,SurveyExpMetaMem,3.2.3,Win32,60
,,,,,,,,,,,,,,,,,,,,5,1.328000069,5,0.356000185,1,0,1200,58,1,1199,boost,11126 ,2019-10-21_20h38.31.124,SurveyExpMetaMem,3.2.3,Win32,60
,,,,,,,,,,,,,,,,,,,,5,1.109000206,5,0.240999937,1,0,1200,1055,1,1199,alarm,11126 ,2019-10-21_20h38.31.124,SurveyExpMetaMem,3.2.3,Win32,60
,,,,,,,,,,,,,,,,,,,,5,1.0400002,5,0.278000355,1,0,1200,626,1,1199,pan,11126 ,2019-10-21_20h38.31.124,SurveyExpMetaMem,3.2.3,Win32,60
,,,,,,,,,,,,,,,,,,,,2,3.286000013,7,0.729000092,1,0,1200,239,1,1199,compassionate,11126 ,2019-10-21_20h38.31.124,SurveyExpMetaMem,3.2.3,Win32,60
,,,,,,,,,,,,,,,,,,,,2,1.836000204,7,0.687000275,1,0,1200,894,1,1199,sunset,11126 ,2019-10-21_20h38.31.124,SurveyExpMetaMem,3.2.3,Win32,60
,,,,,,,,,,,,,,,,,,,,5,1.43900013,5,0.254000187,1,0,1200,666,1,1199,verify,11126 ,2019-10-21_20h38.31.124,SurveyExpMetaMem,3.2.3,Win32,60
,,,,,,,,,,,,,,,,,,,,5,1.404000044,5,0.216000319,1,0,1200,614,1,1199,crossword,11126 ,2019-10-21_20h38.31.124,SurveyExpMetaMem,3.2.3,Win32,60
,,,,,,,,,,,,,,,,,,,,6,1.772000074,4,0.38800025,1,0,1200,975,1,1199,insecure,11126 ,2019-10-21_20h38.31.124,SurveyExpMetaMem,3.2.3,Win32,60
,,,,,,,,,,,,,,,,,,,,5,1.457000256,5,0.247000217,1,0,1200,758,1,1199,camera,11126 ,2019-10-21_20h38.31.124,SurveyExpMetaMem,3.2.3,Win32,60
,,,,,,,,,,,,,,,,,,,,5,0.961000204,5,0.226000309,1,0,1200,414,1,1199,pity,11126 ,2019-10-21_20h38.31.124,SurveyExpMetaMem,3.2.3,Win32,60
,,,,,,,,,,,,,,,,,,,,5,1.078999996,5,0.241000175,1,0,1200,831,1,1199,sofa,11126 ,2019-10-21_20h38.31.124,SurveyExpMetaMem,3.2.3,Win32,60
,,,,,,,,,,,,,,,,,,,,5,0.808000088,5,0.219000101,1,0,1200,1039,1,1199,stalk,11126 ,2019-10-21_20h38.31.124,SurveyExpMetaMem,3.2.3,Win32,60
,,,,,,,,,,,,,,,,,,,,5,1.087000132,5,0.220000029,1,0,1200,886,1,1199,sunflower,11126 ,2019-10-21_20h38.31.124,SurveyExpMetaMem,3.2.3,Win32,60
,,,,,,,,,,,,,,,,,,,,5,1.019000292,5,0.230000019,1,0,1200,518,1,1199,report,11126 ,2019-10-21_20h38.31.124,SurveyExpMetaMem,3.2.3,Win32,60
,,,,,,,,,,,,,,,,,,,,5,1.097000122,5,0.245000124,1,0,1200,515,1,1199,blues,11126 ,2019-10-21_20h38.31.124,SurveyExpMetaMem,3.2.3,Win32,60
,,,,,,,,,,,,,,,,,,,,5,1.347000122,5,0.22900033,1,0,1200,1193,1,1199,damn,11126 ,2019-10-21_20h38.31.124,SurveyExpMetaMem,3.2.3,Win32,60
,,,,,,,,,,,,,,,,,,,,7,2.102000237,2,1.367000103,1,0,1200,1036,1,1199,anxiety,11126 ,2019-10-21_20h38.31.124,SurveyExpMetaMem,3.2.3,Win32,60
,,,,,,,,,,,,,,,,,,,,5,4.518000126,5,0.236000299,1,0,1200,786,1,1199,afternoon,11126 ,2019-10-21_20h38.31.124,SurveyExpMetaMem,3.2.3,Win32,60
,,,,,,,,,,,,,,,,,,,,5,0.97200036,5,0.193000078,1,0,1200,7,1,1199,duet,11126 ,2019-10-21_20h38.31.124,SurveyExpMetaMem,3.2.3,Win32,60
,,,,,,,,,,,,,,,,,,,,2,1.555000305,7,1.33100009,1,0,1200,870,1,1199,safe,11126 ,2019-10-21_20h38.31.124,SurveyExpMetaMem,3.2.3,Win32,60
,,,,,,,,,,,,,,,,,,,,5,1.033000231,5,0.27300024,1,0,1200,1021,1,1199,attack,11126 ,2019-10-21_20h38.31.124,SurveyExpMetaMem,3.2.3,Win32,60
,,,,,,,,,,,,,,,,,,,,5,1.028000355,5,0.23300004,1,0,1200,1138,1,1199,wail,11126 ,2019-10-21_20h38.31.124,SurveyExpMetaMem,3.2.3,Win32,60
,,,,,,,,,,,,,,,,,,,,7,1.606000185,1,0.908000231,1,0,1200,940,1,1199,war,11126 ,2019-10-21_20h38.31.124,SurveyExpMetaMem,3.2.3,Win32,60
,,,,,,,,,,,,,,,,,,,,5,1.245000124,5,0.248000145,1,0,1200,687,1,1199,skinny,11126 ,2019-10-21_20h38.31.124,SurveyExpMetaMem,3.2.3,Win32,60
,,,,,,,,,,,,,,,,,,,,5,1.167000294,5,0.239000082,1,0,1200,53,1,1199,lotion,11126 ,2019-10-21_20h38.31.124,SurveyExpMetaMem,3.2.3,Win32,60
,,,,,,,,,,,,,,,,,,,,5,0.755000114,5,0.227000237,1,0,1200,114,1,1199,raise,11126 ,2019-10-21_20h38.31.124,SurveyExpMetaMem,3.2.3,Win32,60
,,,,,,,,,,,,,,,,,,,,5,0.792000294,5,0.196000338,1,0,1200,678,1,1199,lightbulb,11126 ,2019-10-21_20h38.31.124,SurveyExpMetaMem,3.2.3,Win32,60
,,,,,,,,,,,,,,,,,,,,5,0.822000265,5,0.222000122,1,0,1200,209,1,1199,husband,11126 ,2019-10-21_20h38.31.124,SurveyExpMetaMem,3.2.3,Win32,60
,,,,,,,,,,,,,,,,,,,,6,1.806000233,4,0.289999962,1,0,1200,1125,1,1199,outrage,11126 ,2019-10-21_20h38.31.124,SurveyExpMetaMem,3.2.3,Win32,60
,,,,,,,,,,,,,,,,,,,,5,1.003000259,5,0.256000042,1,0,1200,500,1,1199,nosey,11126 ,2019-10-21_20h38.31.124,SurveyExpMetaMem,3.2.3,Win32,60
,,,,,,,,,,,,,,,,,,,,5,0.805000067,5,0.221000195,1,0,1200,161,1,1199,limousine,11126 ,2019-10-21_20h38.31.124,SurveyExpMetaMem,3.2.3,Win32,60
,,,,,,,,,,,,,,,,,,,,5,1.154999971,5,0.241000175,1,0,1200,418,1,1199,cheapskate,11126 ,2019-10-21_20h38.31.124,SurveyExpMetaMem,3.2.3,Win32,60
,,,,,,,,,,,,,,,,,,,,5,1.088000298,5,0.237000227,1,0,1200,526,1,1199,dry,11126 ,2019-10-21_20h38.31.124,SurveyExpMetaMem,3.2.3,Win32,60
,,,,,,,,,,,,,,,,,,,,5,0.744000196,5,0.254000187,1,0,1200,491,1,1199,meek,11126 ,2019-10-21_20h38.31.124,SurveyExpMetaMem,3.2.3,Win32,60
,,,,,,,,,,,,,,,,,,,,5,0.821000338,5,0.25999999,1,0,1200,582,1,1199,cling,11126 ,2019-10-21_20h38.31.124,SurveyExpMetaMem,3.2.3,Win32,60
,,,,,,,,,,,,,,,,,,,,2,1.745000124,6,0.884000301,1,0,1200,892,1,1199,untroubled,11126 ,2019-10-21_20h38.31.124,SurveyExpMetaMem,3.2.3,Win32,60
,,,,,,,,,,,,,,,,,,,,5,0.87100029,5,0.2900002,1,0,1200,254,1,1199,crush,11126 ,2019-10-21_20h38.31.124,SurveyExpMetaMem,3.2.3,Win32,60
,,,,,,,,,,,,,,,,,,,,5,1.170000076,5,0.493000031,1,0,1200,22,1,1199,doughnut,11126 ,2019-10-21_20h38.31.124,SurveyExpMetaMem,3.2.3,Win32,60
