mouse_4.x,mouse_4.y,mouse_4.leftButton,mouse_4.midButton,mouse_4.rightButton,mouse.x,mouse.y,mouse.leftButton,mouse.midButton,mouse.rightButton,mouse_2.x,mouse_2.y,mouse_2.leftButton,mouse_2.midButton,mouse_2.rightButton,mouse_3.x,mouse_3.y,mouse_3.leftButton,mouse_3.midButton,mouse_3.rightButton,A_key_resp.keys,A_key_resp.rt,key_resp.keys,key_resp.rt,trials.thisRepN,trials.thisTrialN,trials.thisN,trials.thisIndex,trials.ran,trials.order,word,ParticipantID,date,expName,psychopyVersion,OS,frameRate
0.067592621,-0.190740761,1,0,0,0.067592621,-0.190740761,1,0,0,0.067592621,-0.190740761,1,0,0,0.067592621,-0.190740761,1,0,0,7,5.371999979,2,6.865999699,1,0,1200,340,1,1199,coward,11135,2019-10-23_11h07.41.252,SurveyExpMetaMem,3.2.3,Win32,60
,,,,,,,,,,,,,,,,,,,,5,4.095000029,5,2.595000029,1,0,1200,648,1,1199,beads,11135,2019-10-23_11h07.41.252,SurveyExpMetaMem,3.2.3,Win32,60
,,,,,,,,,,,,,,,,,,,,6,3.320999861,2,2.303999901,1,0,1200,321,1,1199,wart,11135,2019-10-23_11h07.41.252,SurveyExpMetaMem,3.2.3,Win32,60
,,,,,,,,,,,,,,,,,,,,7,4.865999937,2,1.729000092,1,0,1200,326,1,1199,scam,11135,2019-10-23_11h07.41.252,SurveyExpMetaMem,3.2.3,Win32,60
,,,,,,,,,,,,,,,,,,,,6,4.015999794,8,3.298999786,1,0,1200,162,1,1199,royalty,11135,2019-10-23_11h07.41.252,SurveyExpMetaMem,3.2.3,Win32,60
,,,,,,,,,,,,,,,,,,,,5,2.089999914,7,2.309000015,1,0,1200,786,1,1199,afternoon,11135,2019-10-23_11h07.41.252,SurveyExpMetaMem,3.2.3,Win32,60
,,,,,,,,,,,,,,,,,,,,5,1.470999956,5,2.9599998,1,0,1200,737,1,1199,lamb,11135,2019-10-23_11h07.41.252,SurveyExpMetaMem,3.2.3,Win32,60
,,,,,,,,,,,,,,,,,,,,6,3.21600008,4,1.697999954,1,0,1200,654,1,1199,brief,11135,2019-10-23_11h07.41.252,SurveyExpMetaMem,3.2.3,Win32,60
,,,,,,,,,,,,,,,,,,,,5,1.659999847,5,1.644000053,1,0,1200,262,1,1199,athletics,11135,2019-10-23_11h07.41.252,SurveyExpMetaMem,3.2.3,Win32,60
,,,,,,,,,,,,,,,,,,,,7,4.066999912,5,1.940000057,1,0,1200,466,1,1199,gnaw,11135,2019-10-23_11h07.41.252,SurveyExpMetaMem,3.2.3,Win32,60
,,,,,,,,,,,,,,,,,,,,5,1.585999966,5,1.105999947,1,0,1200,586,1,1199,cab,11135,2019-10-23_11h07.41.252,SurveyExpMetaMem,3.2.3,Win32,60
,,,,,,,,,,,,,,,,,,,,8,2.143999815,3,3.138000011,1,0,1200,1047,1,1199,psycho,11135,2019-10-23_11h07.41.252,SurveyExpMetaMem,3.2.3,Win32,60
,,,,,,,,,,,,,,,,,,,,6,1.90199995,5,1.089999914,1,0,1200,151,1,1199,react,11135,2019-10-23_11h07.41.252,SurveyExpMetaMem,3.2.3,Win32,60
,,,,,,,,,,,,,,,,,,,,5,1.231999874,5,0.354000092,1,0,1200,512,1,1199,insect,11135,2019-10-23_11h07.41.252,SurveyExpMetaMem,3.2.3,Win32,60
,,,,,,,,,,,,,,,,,,,,7,2.220000029,3,1.186000109,1,0,1200,1011,1,1199,robber,11135,2019-10-23_11h07.41.252,SurveyExpMetaMem,3.2.3,Win32,60
,,,,,,,,,,,,,,,,,,,,6,2.588000059,5,1.403999805,1,0,1200,607,1,1199,greyhound,11135,2019-10-23_11h07.41.252,SurveyExpMetaMem,3.2.3,Win32,60
,,,,,,,,,,,,,,,,,,,,9,3.206999779,2,1.34800005,1,0,1200,941,1,1199,leprosy,11135,2019-10-23_11h07.41.252,SurveyExpMetaMem,3.2.3,Win32,60
,,,,,,,,,,,,,,,,,,,,5,1.250999928,5,0.173000097,1,0,1200,684,1,1199,send,11135,2019-10-23_11h07.41.252,SurveyExpMetaMem,3.2.3,Win32,60
,,,,,,,,,,,,,,,,,,,,7,4.894999981,8,0.441999912,1,0,1200,133,1,1199,prosperous,11135,2019-10-23_11h07.41.252,SurveyExpMetaMem,3.2.3,Win32,60
,,,,,,,,,,,,,,,,,,,,7,2.700999737,7,1.33100009,1,0,1200,279,1,1199,bargain,11135,2019-10-23_11h07.41.252,SurveyExpMetaMem,3.2.3,Win32,60
,,,,,,,,,,,,,,,,,,,,8,3.036000013,2,2.328999996,1,0,1200,906,1,1199,syphilis,11135,2019-10-23_11h07.41.252,SurveyExpMetaMem,3.2.3,Win32,60
,,,,,,,,,,,,,,,,,,,,5,1.507999897,5,0.363999844,1,0,1200,34,1,1199,personality,11135,2019-10-23_11h07.41.252,SurveyExpMetaMem,3.2.3,Win32,60
,,,,,,,,,,,,,,,,,,,,7,2.720999718,3,0.737999916,1,0,1200,516,1,1199,smug,11135,2019-10-23_11h07.41.252,SurveyExpMetaMem,3.2.3,Win32,60
,,,,,,,,,,,,,,,,,,,,6,2.622999907,4,1.016000032,1,0,1200,410,1,1199,tarnish,11135,2019-10-23_11h07.41.252,SurveyExpMetaMem,3.2.3,Win32,60
,,,,,,,,,,,,,,,,,,,,7,2.665999889,3,1.980999947,1,0,1200,461,1,1199,ail,11135,2019-10-23_11h07.41.252,SurveyExpMetaMem,3.2.3,Win32,60
,,,,,,,,,,,,,,,,,,,,7,1.416999817,2,1.227999926,1,0,1200,407,1,1199,handicap,11135,2019-10-23_11h07.41.252,SurveyExpMetaMem,3.2.3,Win32,60
,,,,,,,,,,,,,,,,,,,,7,2.006999969,8,0.676000118,1,0,1200,828,1,1199,cooperative,11135,2019-10-23_11h07.41.252,SurveyExpMetaMem,3.2.3,Win32,60
,,,,,,,,,,,,,,,,,,,,6,2.253999949,9,1.723999739,1,0,1200,891,1,1199,kind,11135,2019-10-23_11h07.41.252,SurveyExpMetaMem,3.2.3,Win32,60
,,,,,,,,,,,,,,,,,,,,8,1.867000103,1,1.026999712,1,0,1200,314,1,1199,hopeless,11135,2019-10-23_11h07.41.252,SurveyExpMetaMem,3.2.3,Win32,60
,,,,,,,,,,,,,,,,,,,,7,3.252000093,2,1.038000107,1,0,1200,1085,1,1199,sever,11135,2019-10-23_11h07.41.252,SurveyExpMetaMem,3.2.3,Win32,60
,,,,,,,,,,,,,,,,,,,,8,9.356999874,2,0.773999929,1,0,1200,1065,1,1199,slap,11135,2019-10-23_11h07.41.252,SurveyExpMetaMem,3.2.3,Win32,60
,,,,,,,,,,,,,,,,,,,,6,1.973999977,6,1.519999743,1,0,1200,666,1,1199,verify,11135,2019-10-23_11h07.41.252,SurveyExpMetaMem,3.2.3,Win32,60
,,,,,,,,,,,,,,,,,,,,7,2.15899992,3,0.954999924,1,0,1200,1006,1,1199,rash,11135,2019-10-23_11h07.41.252,SurveyExpMetaMem,3.2.3,Win32,60
,,,,,,,,,,,,,,,,,,,,9,1.358999968,1,1.014999866,1,0,1200,900,1,1199,suicide,11135,2019-10-23_11h07.41.252,SurveyExpMetaMem,3.2.3,Win32,60
,,,,,,,,,,,,,,,,,,,,8,1.472999811,1,1.212999821,1,0,1200,977,1,1199,choke,11135,2019-10-23_11h07.41.252,SurveyExpMetaMem,3.2.3,Win32,60
,,,,,,,,,,,,,,,,,,,,7,1.946999788,2,1.190999746,1,0,1200,417,1,1199,dummy,11135,2019-10-23_11h07.41.252,SurveyExpMetaMem,3.2.3,Win32,60
,,,,,,,,,,,,,,,,,,,,7,1.726999998,8,1.352999926,1,0,1200,872,1,1199,dignified,11135,2019-10-23_11h07.41.252,SurveyExpMetaMem,3.2.3,Win32,60
,,,,,,,,,,,,,,,,,,,,7,1.389999866,3,0.427999973,1,0,1200,589,1,1199,coarse,11135,2019-10-23_11h07.41.252,SurveyExpMetaMem,3.2.3,Win32,60
,,,,,,,,,,,,,,,,,,,,5,1.136999846,5,0.308999777,1,0,1200,702,1,1199,den,11135,2019-10-23_11h07.41.252,SurveyExpMetaMem,3.2.3,Win32,60
,,,,,,,,,,,,,,,,,,,,8,1.724999905,3,0.407000065,1,0,1200,956,1,1199,crushed,11135,2019-10-23_11h07.41.252,SurveyExpMetaMem,3.2.3,Win32,60
,,,,,,,,,,,,,,,,,,,,8,2.062000036,3,1.829999924,1,0,1200,1008,1,1199,gang,11135,2019-10-23_11h07.41.252,SurveyExpMetaMem,3.2.3,Win32,60
,,,,,,,,,,,,,,,,,,,,6,2.496999979,6,1.098999739,1,0,1200,798,1,1199,crystal,11135,2019-10-23_11h07.41.252,SurveyExpMetaMem,3.2.3,Win32,60
,,,,,,,,,,,,,,,,,,,,5,3.184999943,7,0.965999842,1,0,1200,705,1,1199,tolerant,11135,2019-10-23_11h07.41.252,SurveyExpMetaMem,3.2.3,Win32,60
,,,,,,,,,,,,,,,,,,,,5,1.155999899,5,0.207000017,1,0,1200,220,1,1199,reef,11135,2019-10-23_11h07.41.252,SurveyExpMetaMem,3.2.3,Win32,60
,,,,,,,,,,,,,,,,,,,,4,4.598999977,4,2.894000053,1,0,1200,513,1,1199,bland,11135,2019-10-23_11h07.41.252,SurveyExpMetaMem,3.2.3,Win32,60
,,,,,,,,,,,,,,,,,,,,6,2.849999905,4,0.880000114,1,0,1200,505,1,1199,exhaust,11135,2019-10-23_11h07.41.252,SurveyExpMetaMem,3.2.3,Win32,60
,,,,,,,,,,,,,,,,,,,,7,1.660000086,3,0.864000082,1,0,1200,301,1,1199,sad,11135,2019-10-23_11h07.41.252,SurveyExpMetaMem,3.2.3,Win32,60
,,,,,,,,,,,,,,,,,,,,7,4.154999971,5,2.073999882,1,0,1200,0,1,1199,dragon,11135,2019-10-23_11h07.41.252,SurveyExpMetaMem,3.2.3,Win32,60
,,,,,,,,,,,,,,,,,,,,5,1.152999878,5,0.160000086,1,0,1200,625,1,1199,hat,11135,2019-10-23_11h07.41.252,SurveyExpMetaMem,3.2.3,Win32,60
,,,,,,,,,,,,,,,,,,,,7,2.779999971,3,1.211999893,1,0,1200,1002,1,1199,wounds,11135,2019-10-23_11h07.41.252,SurveyExpMetaMem,3.2.3,Win32,60
,,,,,,,,,,,,,,,,,,,,7,1.698999882,8,0.840999842,1,0,1200,30,1,1199,impressed,11135,2019-10-23_11h07.41.252,SurveyExpMetaMem,3.2.3,Win32,60
,,,,,,,,,,,,,,,,,,,,8,1.993999958,2,0.871000051,1,0,1200,337,1,1199,stinks,11135,2019-10-23_11h07.41.252,SurveyExpMetaMem,3.2.3,Win32,60
,,,,,,,,,,,,,,,,,,,,7,2.782000065,4,1.519999981,1,0,1200,442,1,1199,foolish,11135,2019-10-23_11h07.41.252,SurveyExpMetaMem,3.2.3,Win32,60
,,,,,,,,,,,,,,,,,,,,6,1.991999865,6,1.688999891,1,0,1200,862,1,1199,ease,11135,2019-10-23_11h07.41.252,SurveyExpMetaMem,3.2.3,Win32,60
,,,,,,,,,,,,,,,,,,,,5,1.832999945,5,0.415999889,1,0,1200,475,1,1199,nameless,11135,2019-10-23_11h07.41.252,SurveyExpMetaMem,3.2.3,Win32,60
,,,,,,,,,,,,,,,,,,,,7,2.085999966,2,0.686999798,1,0,1200,464,1,1199,tick,11135,2019-10-23_11h07.41.252,SurveyExpMetaMem,3.2.3,Win32,60
,,,,,,,,,,,,,,,,,,,,8,2.835000038,2,1.090999842,1,0,1200,940,1,1199,war,11135,2019-10-23_11h07.41.252,SurveyExpMetaMem,3.2.3,Win32,60
,,,,,,,,,,,,,,,,,,,,7,3.433000088,4,0.142999887,1,0,1200,496,1,1199,slow,11135,2019-10-23_11h07.41.252,SurveyExpMetaMem,3.2.3,Win32,60
,,,,,,,,,,,,,,,,,,,,7,3.385999918,3,2.736999989,1,0,1200,382,1,1199,vulnerable,11135,2019-10-23_11h07.41.252,SurveyExpMetaMem,3.2.3,Win32,60
,,,,,,,,,,,,,,,,,,,,7,1.789999962,4,0.757999897,1,0,1200,1179,1,1199,nerves,11135,2019-10-23_11h07.41.252,SurveyExpMetaMem,3.2.3,Win32,60
,,,,,,,,,,,,,,,,,,,,9,1.971999884,6,1.768999815,1,0,1200,8,1,1199,extreme,11135,2019-10-23_11h07.41.252,SurveyExpMetaMem,3.2.3,Win32,60
,,,,,,,,,,,,,,,,,,,,8,2.574999809,8,0.663000107,1,0,1200,284,1,1199,delight,11135,2019-10-23_11h07.41.252,SurveyExpMetaMem,3.2.3,Win32,60
,,,,,,,,,,,,,,,,,,,,5,2.104000092,5,0.421000004,1,0,1200,777,1,1199,casual,11135,2019-10-23_11h07.41.252,SurveyExpMetaMem,3.2.3,Win32,60
,,,,,,,,,,,,,,,,,,,,5,6.234999895,4,1.803999901,1,0,1200,531,1,1199,omit,11135,2019-10-23_11h07.41.252,SurveyExpMetaMem,3.2.3,Win32,60
,,,,,,,,,,,,,,,,,,,,5,1.15899992,5,0.188999891,1,0,1200,776,1,1199,doll,11135,2019-10-23_11h07.41.252,SurveyExpMetaMem,3.2.3,Win32,60
,,,,,,,,,,,,,,,,,,,,6,1.711999893,5,0.108999968,1,0,1200,246,1,1199,complete,11135,2019-10-23_11h07.41.252,SurveyExpMetaMem,3.2.3,Win32,60
,,,,,,,,,,,,,,,,,,,,6,2.29399991,2,1.092999935,1,0,1200,379,1,1199,slob,11135,2019-10-23_11h07.41.252,SurveyExpMetaMem,3.2.3,Win32,60
,,,,,,,,,,,,,,,,,,,,7,1.43900013,8,0.15899992,1,0,1200,41,1,1199,progress,11135,2019-10-23_11h07.41.252,SurveyExpMetaMem,3.2.3,Win32,60
,,,,,,,,,,,,,,,,,,,,5,1.156999826,5,0.123999834,1,0,1200,460,1,1199,rag,11135,2019-10-23_11h07.41.252,SurveyExpMetaMem,3.2.3,Win32,60
,,,,,,,,,,,,,,,,,,,,7,2.785000086,3,0.207000017,1,0,1200,1070,1,1199,bleed,11135,2019-10-23_11h07.41.252,SurveyExpMetaMem,3.2.3,Win32,60
,,,,,,,,,,,,,,,,,,,,5,1.193000078,5,0.220999956,1,0,1200,816,1,1199,hippotamus,11135,2019-10-23_11h07.41.252,SurveyExpMetaMem,3.2.3,Win32,60
,,,,,,,,,,,,,,,,,,,,3,5.871999979,5,2.203999758,1,0,1200,674,1,1199,fitting,11135,2019-10-23_11h07.41.252,SurveyExpMetaMem,3.2.3,Win32,60
,,,,,,,,,,,,,,,,,,,,7,13.18599987,3,1.848999739,1,0,1200,1078,1,1199,trouble,11135,2019-10-23_11h07.41.252,SurveyExpMetaMem,3.2.3,Win32,60
,,,,,,,,,,,,,,,,,,,,8,1.576999903,8,1.381999731,1,0,1200,116,1,1199,carnival,11135,2019-10-23_11h07.41.252,SurveyExpMetaMem,3.2.3,Win32,60
,,,,,,,,,,,,,,,,,,,,8,2.719000101,7,1.111999989,1,0,1200,252,1,1199,infatuated,11135,2019-10-23_11h07.41.252,SurveyExpMetaMem,3.2.3,Win32,60
,,,,,,,,,,,,,,,,,,,,8,1.57400012,3,1.672999859,1,0,1200,565,1,1199,frozen,11135,2019-10-23_11h07.41.252,SurveyExpMetaMem,3.2.3,Win32,60
,,,,,,,,,,,,,,,,,,,,3,2.684999943,8,3.888999939,1,0,1200,863,1,1199,fireplace,11135,2019-10-23_11h07.41.252,SurveyExpMetaMem,3.2.3,Win32,60
,,,,,,,,,,,,,,,,,,,,3,2.389999866,8,1.204999924,1,0,1200,669,1,1199,plaza,11135,2019-10-23_11h07.41.252,SurveyExpMetaMem,3.2.3,Win32,60
,,,,,,,,,,,,,,,,,,,,6,1.920000076,8,1.536999941,1,0,1200,612,1,1199,propeller,11135,2019-10-23_11h07.41.252,SurveyExpMetaMem,3.2.3,Win32,60
,,,,,,,,,,,,,,,,,,,,2,2.840999842,5,2.992999792,1,0,1200,617,1,1199,tomato,11135,2019-10-23_11h07.41.252,SurveyExpMetaMem,3.2.3,Win32,60
,,,,,,,,,,,,,,,,,,,,8,3.457000017,1,1.503999949,1,0,1200,308,1,1199,worthless,11135,2019-10-23_11h07.41.252,SurveyExpMetaMem,3.2.3,Win32,60
,,,,,,,,,,,,,,,,,,,,2,1.85199976,5,3.076999903,1,0,1200,637,1,1199,flock,11135,2019-10-23_11h07.41.252,SurveyExpMetaMem,3.2.3,Win32,60
,,,,,,,,,,,,,,,,,,,,4,3.290999889,3,1.520999908,1,0,1200,409,1,1199,old,11135,2019-10-23_11h07.41.252,SurveyExpMetaMem,3.2.3,Win32,60
,,,,,,,,,,,,,,,,,,,,8,2.375999928,2,2.036999941,1,0,1200,1183,1,1199,emotional,11135,2019-10-23_11h07.41.252,SurveyExpMetaMem,3.2.3,Win32,60
,,,,,,,,,,,,,,,,,,,,7,2.862999916,3,1.137999773,1,0,1200,1009,1,1199,frightened,11135,2019-10-23_11h07.41.252,SurveyExpMetaMem,3.2.3,Win32,60
,,,,,,,,,,,,,,,,,,,,8,1.740999699,1,2.172999859,1,0,1200,1175,1,1199,prostitute,11135,2019-10-23_11h07.41.252,SurveyExpMetaMem,3.2.3,Win32,60
,,,,,,,,,,,,,,,,,,,,4,2.874000072,8,1.289999962,1,0,1200,638,1,1199,quench,11135,2019-10-23_11h07.41.252,SurveyExpMetaMem,3.2.3,Win32,60
,,,,,,,,,,,,,,,,,,,,7,1.868999958,2,1.637999773,1,0,1200,392,1,1199,moody,11135,2019-10-23_11h07.41.252,SurveyExpMetaMem,3.2.3,Win32,60
,,,,,,,,,,,,,,,,,,,,6,2.384000063,7,1.945999861,1,0,1200,105,1,1199,curious,11135,2019-10-23_11h07.41.252,SurveyExpMetaMem,3.2.3,Win32,60
,,,,,,,,,,,,,,,,,,,,8,1.910000086,4,1.004999876,1,0,1200,1079,1,1199,critic,11135,2019-10-23_11h07.41.252,SurveyExpMetaMem,3.2.3,Win32,60
,,,,,,,,,,,,,,,,,,,,1,2.381000042,6,4.644999981,1,0,1200,576,1,1199,policy,11135,2019-10-23_11h07.41.252,SurveyExpMetaMem,3.2.3,Win32,60
,,,,,,,,,,,,,,,,,,,,7,1.661999941,3,0.970999956,1,0,1200,443,1,1199,incorrect,11135,2019-10-23_11h07.41.252,SurveyExpMetaMem,3.2.3,Win32,60
,,,,,,,,,,,,,,,,,,,,8,1.570999861,2,1.097999811,1,0,1200,420,1,1199,smoke,11135,2019-10-23_11h07.41.252,SurveyExpMetaMem,3.2.3,Win32,60
,,,,,,,,,,,,,,,,,,,,1,2.003000021,9,1.432999849,1,0,1200,897,1,1199,peaceful,11135,2019-10-23_11h07.41.252,SurveyExpMetaMem,3.2.3,Win32,60
,,,,,,,,,,,,,,,,,,,,9,2.036999941,6,2.286999941,1,0,1200,204,1,1199,crazy,11135,2019-10-23_11h07.41.252,SurveyExpMetaMem,3.2.3,Win32,60
,,,,,,,,,,,,,,,,,,,,8,1.361000061,8,3.385999918,1,0,1200,146,1,1199,congratulations,11135,2019-10-23_11h07.41.252,SurveyExpMetaMem,3.2.3,Win32,60
,,,,,,,,,,,,,,,,,,,,2,1.217999935,5,1.140999794,1,0,1200,580,1,1199,fur,11135,2019-10-23_11h07.41.252,SurveyExpMetaMem,3.2.3,Win32,60
,,,,,,,,,,,,,,,,,,,,2,1.802999973,6,2.305999994,1,0,1200,797,1,1199,hamburger,11135,2019-10-23_11h07.41.252,SurveyExpMetaMem,3.2.3,Win32,60
,,,,,,,,,,,,,,,,,,,,1,1.756999969,5,0.771999836,1,0,1200,647,1,1199,accord,11135,2019-10-23_11h07.41.252,SurveyExpMetaMem,3.2.3,Win32,60
,,,,,,,,,,,,,,,,,,,,9,2.671999931,9,0.862999916,1,0,1200,20,1,1199,climax,11135,2019-10-23_11h07.41.252,SurveyExpMetaMem,3.2.3,Win32,60
,,,,,,,,,,,,,,,,,,,,8,4.282999992,3,1.695999861,1,0,1200,1015,1,1199,frighten,11135,2019-10-23_11h07.41.252,SurveyExpMetaMem,3.2.3,Win32,60
,,,,,,,,,,,,,,,,,,,,9,1.618999958,1,0.914999962,1,0,1200,1049,1,1199,electrocute,11135,2019-10-23_11h07.41.252,SurveyExpMetaMem,3.2.3,Win32,60
,,,,,,,,,,,,,,,,,,,,8,1.235999823,2,1.487999916,1,0,1200,1127,1,1199,spank,11135,2019-10-23_11h07.41.252,SurveyExpMetaMem,3.2.3,Win32,60
,,,,,,,,,,,,,,,,,,,,8,1.325000048,8,1.809999943,1,0,1200,3,1,1199,nudist,11135,2019-10-23_11h07.41.252,SurveyExpMetaMem,3.2.3,Win32,60
,,,,,,,,,,,,,,,,,,,,8,5.255999804,1,1.12899971,1,0,1200,1102,1,1199,nuclear,11135,2019-10-23_11h07.41.252,SurveyExpMetaMem,3.2.3,Win32,60
,,,,,,,,,,,,,,,,,,,,7,1.44299984,2,1.204999924,1,0,1200,1071,1,1199,uncomfortable,11135,2019-10-23_11h07.41.252,SurveyExpMetaMem,3.2.3,Win32,60
,,,,,,,,,,,,,,,,,,,,2,1.67599988,6,4.302999973,1,0,1200,843,1,1199,garden,11135,2019-10-23_11h07.41.252,SurveyExpMetaMem,3.2.3,Win32,60
,,,,,,,,,,,,,,,,,,,,9,1.623999834,2,1.842000008,1,0,1200,987,1,1199,disgusted,11135,2019-10-23_11h07.41.252,SurveyExpMetaMem,3.2.3,Win32,60
,,,,,,,,,,,,,,,,,,,,8,1.536000013,1,4.785999775,1,0,1200,449,1,1199,egotistical,11135,2019-10-23_11h07.41.252,SurveyExpMetaMem,3.2.3,Win32,60
,,,,,,,,,,,,,,,,,,,,2,1.917999983,7,1.112999916,1,0,1200,273,1,1199,worthwhile,11135,2019-10-23_11h07.41.252,SurveyExpMetaMem,3.2.3,Win32,60
,,,,,,,,,,,,,,,,,,,,7,2.588000059,3,1.146000147,1,0,1200,467,1,1199,FALSE,11135,2019-10-23_11h07.41.252,SurveyExpMetaMem,3.2.3,Win32,60
,,,,,,,,,,,,,,,,,,,,2,51.21799994,7,1.504999876,1,0,1200,694,1,1199,pecan,11135,2019-10-23_11h07.41.252,SurveyExpMetaMem,3.2.3,Win32,60
,,,,,,,,,,,,,,,,,,,,8,1.65199995,3,0.930999994,1,0,1200,1114,1,1199,foe,11135,2019-10-23_11h07.41.252,SurveyExpMetaMem,3.2.3,Win32,60
,,,,,,,,,,,,,,,,,,,,9,3.40899992,2,1.204999924,1,0,1200,942,1,1199,aggravation,11135,2019-10-23_11h07.41.252,SurveyExpMetaMem,3.2.3,Win32,60
,,,,,,,,,,,,,,,,,,,,4,2.552000046,7,1.402999878,1,0,1200,17,1,1199,outgoing,11135,2019-10-23_11h07.41.252,SurveyExpMetaMem,3.2.3,Win32,60
,,,,,,,,,,,,,,,,,,,,3,2.799999952,4,2.564999819,1,0,1200,492,1,1199,naive,11135,2019-10-23_11h07.41.252,SurveyExpMetaMem,3.2.3,Win32,60
,,,,,,,,,,,,,,,,,,,,1,1.517999887,5,1.254999876,1,0,1200,724,1,1199,owl,11135,2019-10-23_11h07.41.252,SurveyExpMetaMem,3.2.3,Win32,60
,,,,,,,,,,,,,,,,,,,,7,3.65199995,3,1.011999846,1,0,1200,558,1,1199,punk,11135,2019-10-23_11h07.41.252,SurveyExpMetaMem,3.2.3,Win32,60
,,,,,,,,,,,,,,,,,,,,7,2.00999999,2,1.638000011,1,0,1200,1166,1,1199,compulsive,11135,2019-10-23_11h07.41.252,SurveyExpMetaMem,3.2.3,Win32,60
,,,,,,,,,,,,,,,,,,,,2,2.036999941,5,1.274999857,1,0,1200,730,1,1199,slogan,11135,2019-10-23_11h07.41.252,SurveyExpMetaMem,3.2.3,Win32,60
,,,,,,,,,,,,,,,,,,,,7,1.590999842,8,7.194000006,1,0,1200,95,1,1199,giggle,11135,2019-10-23_11h07.41.252,SurveyExpMetaMem,3.2.3,Win32,60
,,,,,,,,,,,,,,,,,,,,8,3.308999777,2,1.463999748,1,0,1200,1163,1,1199,python,11135,2019-10-23_11h07.41.252,SurveyExpMetaMem,3.2.3,Win32,60
,,,,,,,,,,,,,,,,,,,,1,1.851000071,5,1.440999746,1,0,1200,655,1,1199,name,11135,2019-10-23_11h07.41.252,SurveyExpMetaMem,3.2.3,Win32,60
,,,,,,,,,,,,,,,,,,,,8,1.394999981,8,0.671999931,1,0,1200,97,1,1199,enthusiastic,11135,2019-10-23_11h07.41.252,SurveyExpMetaMem,3.2.3,Win32,60
,,,,,,,,,,,,,,,,,,,,1,1.491999865,5,1.080999851,1,0,1200,697,1,1199,clarinet,11135,2019-10-23_11h07.41.252,SurveyExpMetaMem,3.2.3,Win32,60
,,,,,,,,,,,,,,,,,,,,6,3.608999968,9,2.601999998,1,0,1200,198,1,1199,comedy,11135,2019-10-23_11h07.41.252,SurveyExpMetaMem,3.2.3,Win32,60
,,,,,,,,,,,,,,,,,,,,9,1.903000116,2,2.259000063,1,0,1200,930,1,1199,poison,11135,2019-10-23_11h07.41.252,SurveyExpMetaMem,3.2.3,Win32,60
,,,,,,,,,,,,,,,,,,,,8,1.970999956,3,1.569999933,1,0,1200,542,1,1199,loose,11135,2019-10-23_11h07.41.252,SurveyExpMetaMem,3.2.3,Win32,60
,,,,,,,,,,,,,,,,,,,,2,1.623999834,7,1.910000086,1,0,1200,84,1,1199,eat,11135,2019-10-23_11h07.41.252,SurveyExpMetaMem,3.2.3,Win32,60
,,,,,,,,,,,,,,,,,,,,7,1.784999847,2,1.803999901,1,0,1200,1098,1,1199,confused,11135,2019-10-23_11h07.41.252,SurveyExpMetaMem,3.2.3,Win32,60
,,,,,,,,,,,,,,,,,,,,2,2.45299983,5,1.421000004,1,0,1200,43,1,1199,diamond,11135,2019-10-23_11h07.41.252,SurveyExpMetaMem,3.2.3,Win32,60
,,,,,,,,,,,,,,,,,,,,4,9.508999825,7,1.520999908,1,0,1200,717,1,1199,modest,11135,2019-10-23_11h07.41.252,SurveyExpMetaMem,3.2.3,Win32,60
,,,,,,,,,,,,,,,,,,,,6,2.523999929,3,3.102999926,1,0,1200,134,1,1199,dollar,11135,2019-10-23_11h07.41.252,SurveyExpMetaMem,3.2.3,Win32,60
,,,,,,,,,,,,,,,,,,,,6,5.200000048,8,0.997999907,1,0,1200,138,1,1199,blessings,11135,2019-10-23_11h07.41.252,SurveyExpMetaMem,3.2.3,Win32,60
,,,,,,,,,,,,,,,,,,,,9,3.237999916,1,1.378000021,1,0,1200,1172,1,1199,overwhelmed,11135,2019-10-23_11h07.41.252,SurveyExpMetaMem,3.2.3,Win32,60
,,,,,,,,,,,,,,,,,,,,3,2.703000069,3,1.928999901,1,0,1200,387,1,1199,tax,11135,2019-10-23_11h07.41.252,SurveyExpMetaMem,3.2.3,Win32,60
,,,,,,,,,,,,,,,,,,,,7,1.688999891,3,1.032999992,1,0,1200,366,1,1199,fatigue,11135,2019-10-23_11h07.41.252,SurveyExpMetaMem,3.2.3,Win32,60
,,,,,,,,,,,,,,,,,,,,8,20.6500001,2,2.505999804,1,0,1200,540,1,1199,derelict,11135,2019-10-23_11h07.41.252,SurveyExpMetaMem,3.2.3,Win32,60
,,,,,,,,,,,,,,,,,,,,4,27.02499986,7,1.337999821,1,0,1200,732,1,1199,humble,11135,2019-10-23_11h07.41.252,SurveyExpMetaMem,3.2.3,Win32,60
,,,,,,,,,,,,,,,,,,,,7,1.65899992,6,1.807999849,1,0,1200,137,1,1199,money,11135,2019-10-23_11h07.41.252,SurveyExpMetaMem,3.2.3,Win32,60
,,,,,,,,,,,,,,,,,,,,7,2.055999994,8,0.987999916,1,0,1200,69,1,1199,special,11135,2019-10-23_11h07.41.252,SurveyExpMetaMem,3.2.3,Win32,60
,,,,,,,,,,,,,,,,,,,,3,2.072999716,7,10.42499995,1,0,1200,782,1,1199,open,11135,2019-10-23_11h07.41.252,SurveyExpMetaMem,3.2.3,Win32,60
,,,,,,,,,,,,,,,,,,,,8,2.020999908,3,0.773000002,1,0,1200,1153,1,1199,mangle,11135,2019-10-23_11h07.41.252,SurveyExpMetaMem,3.2.3,Win32,60
,,,,,,,,,,,,,,,,,,,,2,1.723999977,5,1.493999958,1,0,1200,1178,1,1199,weight,11135,2019-10-23_11h07.41.252,SurveyExpMetaMem,3.2.3,Win32,60
,,,,,,,,,,,,,,,,,,,,3,1.975999832,2,1.205999851,1,0,1200,1145,1,1199,officer,11135,2019-10-23_11h07.41.252,SurveyExpMetaMem,3.2.3,Win32,60
,,,,,,,,,,,,,,,,,,,,1,2.357000113,7,2.322999954,1,0,1200,723,1,1199,cinnamon,11135,2019-10-23_11h07.41.252,SurveyExpMetaMem,3.2.3,Win32,60
,,,,,,,,,,,,,,,,,,,,8,1.518999815,2,1.210999966,1,0,1200,936,1,1199,assault,11135,2019-10-23_11h07.41.252,SurveyExpMetaMem,3.2.3,Win32,60
,,,,,,,,,,,,,,,,,,,,9,1.325999975,1,0.876999855,1,0,1200,1092,1,1199,rattlesnake,11135,2019-10-23_11h07.41.252,SurveyExpMetaMem,3.2.3,Win32,60
,,,,,,,,,,,,,,,,,,,,3,3.735999823,7,0.863999844,1,0,1200,31,1,1199,brownie,11135,2019-10-23_11h07.41.252,SurveyExpMetaMem,3.2.3,Win32,60
,,,,,,,,,,,,,,,,,,,,4,2.388999939,5,2.08100009,1,0,1200,122,1,1199,prince,11135,2019-10-23_11h07.41.252,SurveyExpMetaMem,3.2.3,Win32,60
,,,,,,,,,,,,,,,,,,,,7,1.411999941,8,1.773999929,1,0,1200,148,1,1199,victory,11135,2019-10-23_11h07.41.252,SurveyExpMetaMem,3.2.3,Win32,60
,,,,,,,,,,,,,,,,,,,,8,1.204999924,2,1.037999868,1,0,1200,1124,1,1199,seize,11135,2019-10-23_11h07.41.252,SurveyExpMetaMem,3.2.3,Win32,60
,,,,,,,,,,,,,,,,,,,,2,12.03500009,6,1.610999823,1,0,1200,652,1,1199,tend,11135,2019-10-23_11h07.41.252,SurveyExpMetaMem,3.2.3,Win32,60
,,,,,,,,,,,,,,,,,,,,7,1.306999922,3,0.969000101,1,0,1200,1056,1,1199,crime,11135,2019-10-23_11h07.41.252,SurveyExpMetaMem,3.2.3,Win32,60
,,,,,,,,,,,,,,,,,,,,6,17.52299976,4,0.842999935,1,0,1200,358,1,1199,waste,11135,2019-10-23_11h07.41.252,SurveyExpMetaMem,3.2.3,Win32,60
,,,,,,,,,,,,,,,,,,,,2,2.026000023,7,1.286999941,1,0,1200,783,1,1199,sprinkle,11135,2019-10-23_11h07.41.252,SurveyExpMetaMem,3.2.3,Win32,60
,,,,,,,,,,,,,,,,,,,,8,1.380999804,2,3.001999855,1,0,1200,990,1,1199,enraged,11135,2019-10-23_11h07.41.252,SurveyExpMetaMem,3.2.3,Win32,60
,,,,,,,,,,,,,,,,,,,,5,3.037999868,5,1.139999866,1,0,1200,523,1,1199,witch,11135,2019-10-23_11h07.41.252,SurveyExpMetaMem,3.2.3,Win32,60
,,,,,,,,,,,,,,,,,,,,2,1.904999971,8,1.355999947,1,0,1200,258,1,1199,children,11135,2019-10-23_11h07.41.252,SurveyExpMetaMem,3.2.3,Win32,60
,,,,,,,,,,,,,,,,,,,,1,3.371999979,6,1.424000025,1,0,1200,89,1,1199,cruiseship,11135,2019-10-23_11h07.41.252,SurveyExpMetaMem,3.2.3,Win32,60
,,,,,,,,,,,,,,,,,,,,7,1.25999999,3,8.236999989,1,0,1200,390,1,1199,impair,11135,2019-10-23_11h07.41.252,SurveyExpMetaMem,3.2.3,Win32,60
,,,,,,,,,,,,,,,,,,,,7,1.77699995,2,1.190999985,1,0,1200,1061,1,1199,difficult,11135,2019-10-23_11h07.41.252,SurveyExpMetaMem,3.2.3,Win32,60
,,,,,,,,,,,,,,,,,,,,8,2.993999958,8,1.7099998,1,0,1200,124,1,1199,honeymoon,11135,2019-10-23_11h07.41.252,SurveyExpMetaMem,3.2.3,Win32,60
,,,,,,,,,,,,,,,,,,,,2,2.64199996,6,2.011999846,1,0,1200,153,1,1199,teach,11135,2019-10-23_11h07.41.252,SurveyExpMetaMem,3.2.3,Win32,60
,,,,,,,,,,,,,,,,,,,,7,1.866999865,1,1.538999796,1,0,1200,370,1,1199,rodent,11135,2019-10-23_11h07.41.252,SurveyExpMetaMem,3.2.3,Win32,60
,,,,,,,,,,,,,,,,,,,,8,27.66400003,3,1.537999868,1,0,1200,1133,1,1199,slip,11135,2019-10-23_11h07.41.252,SurveyExpMetaMem,3.2.3,Win32,60
,,,,,,,,,,,,,,,,,,,,4,2.319999933,2,1.573999882,1,0,1200,472,1,1199,bald,11135,2019-10-23_11h07.41.252,SurveyExpMetaMem,3.2.3,Win32,60
,,,,,,,,,,,,,,,,,,,,7,2.967999935,2,1.003999949,1,0,1200,318,1,1199,disappointment,11135,2019-10-23_11h07.41.252,SurveyExpMetaMem,3.2.3,Win32,60
,,,,,,,,,,,,,,,,,,,,6,1.924000025,3,1.10199976,1,0,1200,500,1,1199,nosey,11135,2019-10-23_11h07.41.252,SurveyExpMetaMem,3.2.3,Win32,60
,,,,,,,,,,,,,,,,,,,,7,2.274999857,8,1.322000027,1,0,1200,187,1,1199,excite,11135,2019-10-23_11h07.41.252,SurveyExpMetaMem,3.2.3,Win32,60
,,,,,,,,,,,,,,,,,,,,9,2.191999912,2,1.136999846,1,0,1200,984,1,1199,despairing,11135,2019-10-23_11h07.41.252,SurveyExpMetaMem,3.2.3,Win32,60
,,,,,,,,,,,,,,,,,,,,7,2.342999935,8,1.090999842,1,0,1200,182,1,1199,genius,11135,2019-10-23_11h07.41.252,SurveyExpMetaMem,3.2.3,Win32,60
,,,,,,,,,,,,,,,,,,,,4,2.95299983,4,1.664000034,1,0,1200,416,1,1199,boring,11135,2019-10-23_11h07.41.252,SurveyExpMetaMem,3.2.3,Win32,60
,,,,,,,,,,,,,,,,,,,,2,1.634999752,7,1.256999969,1,0,1200,692,1,1199,medicine,11135,2019-10-23_11h07.41.252,SurveyExpMetaMem,3.2.3,Win32,60
,,,,,,,,,,,,,,,,,,,,4,17.25600004,7,0.982000113,1,0,1200,94,1,1199,engaged,11135,2019-10-23_11h07.41.252,SurveyExpMetaMem,3.2.3,Win32,60
,,,,,,,,,,,,,,,,,,,,2,1.809999943,7,0.937999725,1,0,1200,166,1,1199,unite,11135,2019-10-23_11h07.41.252,SurveyExpMetaMem,3.2.3,Win32,60
,,,,,,,,,,,,,,,,,,,,6,2.470999956,3,0.97300005,1,0,1200,451,1,1199,lame,11135,2019-10-23_11h07.41.252,SurveyExpMetaMem,3.2.3,Win32,60
,,,,,,,,,,,,,,,,,,,,8,1.575999737,2,0.990999937,1,0,1200,413,1,1199,deficient,11135,2019-10-23_11h07.41.252,SurveyExpMetaMem,3.2.3,Win32,60
,,,,,,,,,,,,,,,,,,,,8,1.756999969,3,0.906999826,1,0,1200,325,1,1199,disability,11135,2019-10-23_11h07.41.252,SurveyExpMetaMem,3.2.3,Win32,60
,,,,,,,,,,,,,,,,,,,,7,1.48699975,1,1.203999996,1,0,1200,330,1,1199,sunburn,11135,2019-10-23_11h07.41.252,SurveyExpMetaMem,3.2.3,Win32,60
,,,,,,,,,,,,,,,,,,,,9,2.070999861,2,1.803999901,1,0,1200,963,1,1199,dreadful,11135,2019-10-23_11h07.41.252,SurveyExpMetaMem,3.2.3,Win32,60
,,,,,,,,,,,,,,,,,,,,8,2.234999895,8,1.203999758,1,0,1200,232,1,1199,prosper,11135,2019-10-23_11h07.41.252,SurveyExpMetaMem,3.2.3,Win32,60
,,,,,,,,,,,,,,,,,,,,8,1.252999783,2,1.496000051,1,0,1200,928,1,1199,cruel,11135,2019-10-23_11h07.41.252,SurveyExpMetaMem,3.2.3,Win32,60
,,,,,,,,,,,,,,,,,,,,9,1.238999844,1,0.821999788,1,0,1200,916,1,1199,starvation,11135,2019-10-23_11h07.41.252,SurveyExpMetaMem,3.2.3,Win32,60
,,,,,,,,,,,,,,,,,,,,7,2.754999876,8,0.539000034,1,0,1200,126,1,1199,rich,11135,2019-10-23_11h07.41.252,SurveyExpMetaMem,3.2.3,Win32,60
,,,,,,,,,,,,,,,,,,,,2,2.159999847,5,0.931999922,1,0,1200,680,1,1199,candle,11135,2019-10-23_11h07.41.252,SurveyExpMetaMem,3.2.3,Win32,60
,,,,,,,,,,,,,,,,,,,,2,4.155999899,6,1.972000122,1,0,1200,636,1,1199,refine,11135,2019-10-23_11h07.41.252,SurveyExpMetaMem,3.2.3,Win32,60
,,,,,,,,,,,,,,,,,,,,7,1.517999887,5,2.687000036,1,0,1200,201,1,1199,gorilla,11135,2019-10-23_11h07.41.252,SurveyExpMetaMem,3.2.3,Win32,60
,,,,,,,,,,,,,,,,,,,,7,1.476000071,6,0.888999939,1,0,1200,277,1,1199,cupcake,11135,2019-10-23_11h07.41.252,SurveyExpMetaMem,3.2.3,Win32,60
,,,,,,,,,,,,,,,,,,,,2,2.788999796,5,1.460999966,1,0,1200,203,1,1199,seal,11135,2019-10-23_11h07.41.252,SurveyExpMetaMem,3.2.3,Win32,60
,,,,,,,,,,,,,,,,,,,,1,1.751999855,5,2.135999918,1,0,1200,154,1,1199,race,11135,2019-10-23_11h07.41.252,SurveyExpMetaMem,3.2.3,Win32,60
,,,,,,,,,,,,,,,,,,,,1,1.707000017,5,1.053999901,1,0,1200,529,1,1199,small,11135,2019-10-23_11h07.41.252,SurveyExpMetaMem,3.2.3,Win32,60
,,,,,,,,,,,,,,,,,,,,2,2.035000086,6,1.805999994,1,0,1200,76,1,1199,midnight,11135,2019-10-23_11h07.41.252,SurveyExpMetaMem,3.2.3,Win32,60
,,,,,,,,,,,,,,,,,,,,7,1.708999872,2,1.519999743,1,0,1200,1125,1,1199,outrage,11135,2019-10-23_11h07.41.252,SurveyExpMetaMem,3.2.3,Win32,60
,,,,,,,,,,,,,,,,,,,,4,2.457000017,7,0.928999901,1,0,1200,829,1,1199,innocent,11135,2019-10-23_11h07.41.252,SurveyExpMetaMem,3.2.3,Win32,60
,,,,,,,,,,,,,,,,,,,,4,2.606999874,7,0.805999994,1,0,1200,35,1,1199,bright,11135,2019-10-23_11h07.41.252,SurveyExpMetaMem,3.2.3,Win32,60
,,,,,,,,,,,,,,,,,,,,3,9.725999832,4,1.324999809,1,0,1200,539,1,1199,novice,11135,2019-10-23_11h07.41.252,SurveyExpMetaMem,3.2.3,Win32,60
,,,,,,,,,,,,,,,,,,,,7,1.819000006,8,1.022000074,1,0,1200,72,1,1199,attract,11135,2019-10-23_11h07.41.252,SurveyExpMetaMem,3.2.3,Win32,60
,,,,,,,,,,,,,,,,,,,,4,1.768999815,8,0.993999958,1,0,1200,871,1,1199,comfort,11135,2019-10-23_11h07.41.252,SurveyExpMetaMem,3.2.3,Win32,60
,,,,,,,,,,,,,,,,,,,,7,1.905999899,3,1.053999901,1,0,1200,423,1,1199,stain,11135,2019-10-23_11h07.41.252,SurveyExpMetaMem,3.2.3,Win32,60
,,,,,,,,,,,,,,,,,,,,7,1.635999918,2,1.715999842,1,0,1200,986,1,1199,mad,11135,2019-10-23_11h07.41.252,SurveyExpMetaMem,3.2.3,Win32,60
,,,,,,,,,,,,,,,,,,,,9,1.517999887,2,1.304999828,1,0,1200,992,1,1199,addict,11135,2019-10-23_11h07.41.252,SurveyExpMetaMem,3.2.3,Win32,60
,,,,,,,,,,,,,,,,,,,,3,2.976000071,5,0.954999924,1,0,1200,653,1,1199,detail,11135,2019-10-23_11h07.41.252,SurveyExpMetaMem,3.2.3,Win32,60
,,,,,,,,,,,,,,,,,,,,7,1.785999775,2,0.691999912,1,0,1200,1156,1,1199,weapon,11135,2019-10-23_11h07.41.252,SurveyExpMetaMem,3.2.3,Win32,60
,,,,,,,,,,,,,,,,,,,,2,1.943999767,5,1.039000034,1,0,1200,658,1,1199,method,11135,2019-10-23_11h07.41.252,SurveyExpMetaMem,3.2.3,Win32,60
,,,,,,,,,,,,,,,,,,,,2,2.90899992,6,1.255999804,1,0,1200,623,1,1199,suburban,11135,2019-10-23_11h07.41.252,SurveyExpMetaMem,3.2.3,Win32,60
,,,,,,,,,,,,,,,,,,,,3,2.01699996,7,1.156999826,1,0,1200,869,1,1199,assure,11135,2019-10-23_11h07.41.252,SurveyExpMetaMem,3.2.3,Win32,60
,,,,,,,,,,,,,,,,,,,,7,2.217999935,4,1.627999783,1,0,1200,1161,1,1199,shock,11135,2019-10-23_11h07.41.252,SurveyExpMetaMem,3.2.3,Win32,60
,,,,,,,,,,,,,,,,,,,,1,8.399999857,4,1.653999805,1,0,1200,534,1,1199,rules,11135,2019-10-23_11h07.41.252,SurveyExpMetaMem,3.2.3,Win32,60
,,,,,,,,,,,,,,,,,,,,1,1.628000021,5,0.686999798,1,0,1200,600,1,1199,parlor,11135,2019-10-23_11h07.41.252,SurveyExpMetaMem,3.2.3,Win32,60
,,,,,,,,,,,,,,,,,,,,8,1.894999981,3,1.510999918,1,0,1200,323,1,1199,ungrateful,11135,2019-10-23_11h07.41.252,SurveyExpMetaMem,3.2.3,Win32,60
,,,,,,,,,,,,,,,,,,,,8,5.769999981,8,11.2349999,1,0,1200,216,1,1199,vigorous,11135,2019-10-23_11h07.41.252,SurveyExpMetaMem,3.2.3,Win32,60
,,,,,,,,,,,,,,,,,,,,8,1.849999905,2,0.555000067,1,0,1200,1084,1,1199,uneasy,11135,2019-10-23_11h07.41.252,SurveyExpMetaMem,3.2.3,Win32,60
,,,,,,,,,,,,,,,,,,,,2,1.795000076,7,1.674000025,1,0,1200,59,1,1199,sports,11135,2019-10-23_11h07.41.252,SurveyExpMetaMem,3.2.3,Win32,60
,,,,,,,,,,,,,,,,,,,,1,1.204999924,5,0.989999771,1,0,1200,749,1,1199,glasses,11135,2019-10-23_11h07.41.252,SurveyExpMetaMem,3.2.3,Win32,60
,,,,,,,,,,,,,,,,,,,,3,2.536999941,8,0.804999828,1,0,1200,858,1,1199,donate,11135,2019-10-23_11h07.41.252,SurveyExpMetaMem,3.2.3,Win32,60
,,,,,,,,,,,,,,,,,,,,7,1.969000101,3,1.010999918,1,0,1200,525,1,1199,stagnant,11135,2019-10-23_11h07.41.252,SurveyExpMetaMem,3.2.3,Win32,60
,,,,,,,,,,,,,,,,,,,,3,2.559000015,6,2.66899991,1,0,1200,631,1,1199,delicate,11135,2019-10-23_11h07.41.252,SurveyExpMetaMem,3.2.3,Win32,60
,,,,,,,,,,,,,,,,,,,,7,1.92599988,2,1.671000004,1,0,1200,480,1,1199,hinder,11135,2019-10-23_11h07.41.252,SurveyExpMetaMem,3.2.3,Win32,60
,,,,,,,,,,,,,,,,,,,,8,1.623999834,4,1.207000017,1,0,1200,103,1,1199,conquest,11135,2019-10-23_11h07.41.252,SurveyExpMetaMem,3.2.3,Win32,60
,,,,,,,,,,,,,,,,,,,,1,1.201999903,5,0.537999868,1,0,1200,815,1,1199,apple,11135,2019-10-23_11h07.41.252,SurveyExpMetaMem,3.2.3,Win32,60
,,,,,,,,,,,,,,,,,,,,1,1.124000072,5,0.554000139,1,0,1200,849,1,1199,blue,11135,2019-10-23_11h07.41.252,SurveyExpMetaMem,3.2.3,Win32,60
,,,,,,,,,,,,,,,,,,,,2,2.619999886,6,1.902999878,1,0,1200,768,1,1199,trait,11135,2019-10-23_11h07.41.252,SurveyExpMetaMem,3.2.3,Win32,60
,,,,,,,,,,,,,,,,,,,,7,3.369999886,3,1.321999788,1,0,1200,1001,1,1199,rude,11135,2019-10-23_11h07.41.252,SurveyExpMetaMem,3.2.3,Win32,60
,,,,,,,,,,,,,,,,,,,,1,1.540999889,5,0.508999825,1,0,1200,696,1,1199,rink,11135,2019-10-23_11h07.41.252,SurveyExpMetaMem,3.2.3,Win32,60
,,,,,,,,,,,,,,,,,,,,7,11.42199993,2,1.320999861,1,0,1200,1003,1,1199,jealousy,11135,2019-10-23_11h07.41.252,SurveyExpMetaMem,3.2.3,Win32,60
,,,,,,,,,,,,,,,,,,,,8,47.87100005,2,1.505999804,1,0,1200,1059,1,1199,harsh,11135,2019-10-23_11h07.41.252,SurveyExpMetaMem,3.2.3,Win32,60
,,,,,,,,,,,,,,,,,,,,2,1.570999861,6,1.688999891,1,0,1200,809,1,1199,boy,11135,2019-10-23_11h07.41.252,SurveyExpMetaMem,3.2.3,Win32,60
,,,,,,,,,,,,,,,,,,,,7,2.575999975,8,0.746999979,1,0,1200,25,1,1199,charisma,11135,2019-10-23_11h07.41.252,SurveyExpMetaMem,3.2.3,Win32,60
,,,,,,,,,,,,,,,,,,,,8,1.517999887,2,0.855000019,1,0,1200,1041,1,1199,sin,11135,2019-10-23_11h07.41.252,SurveyExpMetaMem,3.2.3,Win32,60
,,,,,,,,,,,,,,,,,,,,8,12.9829998,8,1.571999788,1,0,1200,242,1,1199,triumph,11135,2019-10-23_11h07.41.252,SurveyExpMetaMem,3.2.3,Win32,60
,,,,,,,,,,,,,,,,,,,,7,1.370999813,2,0.753999949,1,0,1200,1077,1,1199,unsure,11135,2019-10-23_11h07.41.252,SurveyExpMetaMem,3.2.3,Win32,60
,,,,,,,,,,,,,,,,,,,,7,1.253000021,1,1.22300005,1,0,1200,993,1,1199,remorse,11135,2019-10-23_11h07.41.252,SurveyExpMetaMem,3.2.3,Win32,60
,,,,,,,,,,,,,,,,,,,,8,1.322000027,1,2.847999811,1,0,1200,1031,1,1199,fear,11135,2019-10-23_11h07.41.252,SurveyExpMetaMem,3.2.3,Win32,60
,,,,,,,,,,,,,,,,,,,,9,2.359999895,2,1.045999765,1,0,1200,1182,1,1199,pierce,11135,2019-10-23_11h07.41.252,SurveyExpMetaMem,3.2.3,Win32,60
,,,,,,,,,,,,,,,,,,,,2,1.673000097,4,2.423999786,1,0,1200,538,1,1199,crumbs,11135,2019-10-23_11h07.41.252,SurveyExpMetaMem,3.2.3,Win32,60
,,,,,,,,,,,,,,,,,,,,6,2.401000023,7,0.204999924,1,0,1200,299,1,1199,champion,11135,2019-10-23_11h07.41.252,SurveyExpMetaMem,3.2.3,Win32,60
,,,,,,,,,,,,,,,,,,,,3,2.137999773,7,0.704999924,1,0,1200,177,1,1199,frosting,11135,2019-10-23_11h07.41.252,SurveyExpMetaMem,3.2.3,Win32,60
,,,,,,,,,,,,,,,,,,,,1,1.529999971,6,1.358999729,1,0,1200,44,1,1199,diploma,11135,2019-10-23_11h07.41.252,SurveyExpMetaMem,3.2.3,Win32,60
,,,,,,,,,,,,,,,,,,,,2,2.085999966,5,1.240999937,1,0,1200,527,1,1199,passive,11135,2019-10-23_11h07.41.252,SurveyExpMetaMem,3.2.3,Win32,60
,,,,,,,,,,,,,,,,,,,,1,1.818000078,5,0.523999929,1,0,1200,813,1,1199,walking,11135,2019-10-23_11h07.41.252,SurveyExpMetaMem,3.2.3,Win32,60
,,,,,,,,,,,,,,,,,,,,1,0.977999926,5,2.161999941,1,0,1200,620,1,1199,spray,11135,2019-10-23_11h07.41.252,SurveyExpMetaMem,3.2.3,Win32,60
,,,,,,,,,,,,,,,,,,,,4,2.422999859,3,1.263999939,1,0,1200,380,1,1199,expire,11135,2019-10-23_11h07.41.252,SurveyExpMetaMem,3.2.3,Win32,60
,,,,,,,,,,,,,,,,,,,,8,1.73699975,7,0.69900012,1,0,1200,296,1,1199,awesome,11135,2019-10-23_11h07.41.252,SurveyExpMetaMem,3.2.3,Win32,60
,,,,,,,,,,,,,,,,,,,,7,2.019999981,6,1.388999939,1,0,1200,271,1,1199,applaud,11135,2019-10-23_11h07.41.252,SurveyExpMetaMem,3.2.3,Win32,60
,,,,,,,,,,,,,,,,,,,,4,2.069000006,3,0.672999859,1,0,1200,524,1,1199,sigh,11135,2019-10-23_11h07.41.252,SurveyExpMetaMem,3.2.3,Win32,60
,,,,,,,,,,,,,,,,,,,,8,1.755999804,2,0.674000025,1,0,1200,913,1,1199,ulcer,11135,2019-10-23_11h07.41.252,SurveyExpMetaMem,3.2.3,Win32,60
,,,,,,,,,,,,,,,,,,,,1,2.0849998,5,1.214999914,1,0,1200,206,1,1199,comet,11135,2019-10-23_11h07.41.252,SurveyExpMetaMem,3.2.3,Win32,60
,,,,,,,,,,,,,,,,,,,,3,2.585999966,4,1.737999916,1,0,1200,1160,1,1199,enlist,11135,2019-10-23_11h07.41.252,SurveyExpMetaMem,3.2.3,Win32,60
,,,,,,,,,,,,,,,,,,,,1,1.822999716,5,0.645999908,1,0,1200,64,1,1199,brain,11135,2019-10-23_11h07.41.252,SurveyExpMetaMem,3.2.3,Win32,60
,,,,,,,,,,,,,,,,,,,,1,0.984999895,5,0.539000034,1,0,1200,804,1,1199,peach,11135,2019-10-23_11h07.41.252,SurveyExpMetaMem,3.2.3,Win32,60
,,,,,,,,,,,,,,,,,,,,6,150.4729998,7,1.994999886,1,0,1200,877,1,1199,bless,11135,2019-10-23_11h07.41.252,SurveyExpMetaMem,3.2.3,Win32,60
,,,,,,,,,,,,,,,,,,,,6,5.883999825,3,0.842999935,1,0,1200,393,1,1199,droop,11135,2019-10-23_11h07.41.252,SurveyExpMetaMem,3.2.3,Win32,60
,,,,,,,,,,,,,,,,,,,,6,1.901000023,8,1.825000048,1,0,1200,83,1,1199,appreciative,11135,2019-10-23_11h07.41.252,SurveyExpMetaMem,3.2.3,Win32,60
,,,,,,,,,,,,,,,,,,,,3,1.503000021,5,1.562999725,1,0,1200,156,1,1199,gym,11135,2019-10-23_11h07.41.252,SurveyExpMetaMem,3.2.3,Win32,60
,,,,,,,,,,,,,,,,,,,,8,2.028999805,2,0.772999763,1,0,1200,1062,1,1199,shoplifter,11135,2019-10-23_11h07.41.252,SurveyExpMetaMem,3.2.3,Win32,60
,,,,,,,,,,,,,,,,,,,,2,1.507999897,6,1.31099987,1,0,1200,734,1,1199,piano,11135,2019-10-23_11h07.41.252,SurveyExpMetaMem,3.2.3,Win32,60
,,,,,,,,,,,,,,,,,,,,2,18.57800007,5,1.772000074,1,0,1200,757,1,1199,sentiment,11135,2019-10-23_11h07.41.252,SurveyExpMetaMem,3.2.3,Win32,60
,,,,,,,,,,,,,,,,,,,,6,2.592000008,8,0.957000017,1,0,1200,218,1,1199,charming,11135,2019-10-23_11h07.41.252,SurveyExpMetaMem,3.2.3,Win32,60
,,,,,,,,,,,,,,,,,,,,4,2.201999903,8,2.770999908,1,0,1200,731,1,1199,decency,11135,2019-10-23_11h07.41.252,SurveyExpMetaMem,3.2.3,Win32,60
,,,,,,,,,,,,,,,,,,,,8,1.437999725,2,1.076999903,1,0,1200,1112,1,1199,pressure,11135,2019-10-23_11h07.41.252,SurveyExpMetaMem,3.2.3,Win32,60
,,,,,,,,,,,,,,,,,,,,9,1.387999773,1,0.904000044,1,0,1200,910,1,1199,abusive,11135,2019-10-23_11h07.41.252,SurveyExpMetaMem,3.2.3,Win32,60
,,,,,,,,,,,,,,,,,,,,7,2.085999966,3,0.863999844,1,0,1200,1108,1,1199,spider,11135,2019-10-23_11h07.41.252,SurveyExpMetaMem,3.2.3,Win32,60
,,,,,,,,,,,,,,,,,,,,8,1.65199995,6,1.159999847,1,0,1200,269,1,1199,extravagant,11135,2019-10-23_11h07.41.252,SurveyExpMetaMem,3.2.3,Win32,60
,,,,,,,,,,,,,,,,,,,,7,2.657999992,3,0.893999815,1,0,1200,556,1,1199,allege,11135,2019-10-23_11h07.41.252,SurveyExpMetaMem,3.2.3,Win32,60
,,,,,,,,,,,,,,,,,,,,7,1.45299983,6,1.96600008,1,0,1200,57,1,1199,important,11135,2019-10-23_11h07.41.252,SurveyExpMetaMem,3.2.3,Win32,60
,,,,,,,,,,,,,,,,,,,,2,2.330999851,5,0.871999979,1,0,1200,479,1,1199,period,11135,2019-10-23_11h07.41.252,SurveyExpMetaMem,3.2.3,Win32,60
,,,,,,,,,,,,,,,,,,,,7,1.957999945,2,0.738000154,1,0,1200,1064,1,1199,sinful,11135,2019-10-23_11h07.41.252,SurveyExpMetaMem,3.2.3,Win32,60
,,,,,,,,,,,,,,,,,,,,8,1.605999947,3,0.871000051,1,0,1200,431,1,1199,itch,11135,2019-10-23_11h07.41.252,SurveyExpMetaMem,3.2.3,Win32,60
,,,,,,,,,,,,,,,,,,,,8,15.87299991,2,1.075999975,1,0,1200,1069,1,1199,defeat,11135,2019-10-23_11h07.41.252,SurveyExpMetaMem,3.2.3,Win32,60
,,,,,,,,,,,,,,,,,,,,7,8.20299983,8,0.74000001,1,0,1200,887,1,1199,elegant,11135,2019-10-23_11h07.41.252,SurveyExpMetaMem,3.2.3,Win32,60
,,,,,,,,,,,,,,,,,,,,4,1.967999935,4,2.707000017,1,0,1200,514,1,1199,defer,11135,2019-10-23_11h07.41.252,SurveyExpMetaMem,3.2.3,Win32,60
,,,,,,,,,,,,,,,,,,,,1,1.552000046,5,1.822999954,1,0,1200,763,1,1199,vegetables,11135,2019-10-23_11h07.41.252,SurveyExpMetaMem,3.2.3,Win32,60
,,,,,,,,,,,,,,,,,,,,6,9.069000006,8,0.654000044,1,0,1200,248,1,1199,win,11135,2019-10-23_11h07.41.252,SurveyExpMetaMem,3.2.3,Win32,60
,,,,,,,,,,,,,,,,,,,,8,2.34499979,2,2.237999916,1,0,1200,950,1,1199,murder,11135,2019-10-23_11h07.41.252,SurveyExpMetaMem,3.2.3,Win32,60
,,,,,,,,,,,,,,,,,,,,5,1.870999813,3,2.092000008,1,0,1200,361,1,1199,glum,11135,2019-10-23_11h07.41.252,SurveyExpMetaMem,3.2.3,Win32,60
,,,,,,,,,,,,,,,,,,,,1,3.318000078,5,0.930000067,1,0,1200,661,1,1199,cow,11135,2019-10-23_11h07.41.252,SurveyExpMetaMem,3.2.3,Win32,60
,,,,,,,,,,,,,,,,,,,,8,1.934999943,2,1.110999823,1,0,1200,497,1,1199,pungent,11135,2019-10-23_11h07.41.252,SurveyExpMetaMem,3.2.3,Win32,60
,,,,,,,,,,,,,,,,,,,,2,71.08099985,7,2.241999865,1,0,1200,210,1,1199,elephant,11135,2019-10-23_11h07.41.252,SurveyExpMetaMem,3.2.3,Win32,60
,,,,,,,,,,,,,,,,,,,,3,16.00399995,5,1.536999941,1,0,1200,721,1,1199,contemporary,11135,2019-10-23_11h07.41.252,SurveyExpMetaMem,3.2.3,Win32,60
,,,,,,,,,,,,,,,,,,,,1,2.17599988,5,0.944999933,1,0,1200,603,1,1199,mane,11135,2019-10-23_11h07.41.252,SurveyExpMetaMem,3.2.3,Win32,60
,,,,,,,,,,,,,,,,,,,,6,1.878999949,7,1.264999866,1,0,1200,844,1,1199,soul,11135,2019-10-23_11h07.41.252,SurveyExpMetaMem,3.2.3,Win32,60
,,,,,,,,,,,,,,,,,,,,9,1.773999929,2,1.513999939,1,0,1200,1130,1,1199,slut,11135,2019-10-23_11h07.41.252,SurveyExpMetaMem,3.2.3,Win32,60
,,,,,,,,,,,,,,,,,,,,7,1.721999884,3,0.990999937,1,0,1200,494,1,1199,butcher,11135,2019-10-23_11h07.41.252,SurveyExpMetaMem,3.2.3,Win32,60
,,,,,,,,,,,,,,,,,,,,7,3.467000008,8,0.913999796,1,0,1200,848,1,1199,graceful,11135,2019-10-23_11h07.41.252,SurveyExpMetaMem,3.2.3,Win32,60
,,,,,,,,,,,,,,,,,,,,8,1.454999924,2,1.207000017,1,0,1200,394,1,1199,dump,11135,2019-10-23_11h07.41.252,SurveyExpMetaMem,3.2.3,Win32,60
,,,,,,,,,,,,,,,,,,,,6,1.764999866,7,1.052999973,1,0,1200,893,1,1199,nature,11135,2019-10-23_11h07.41.252,SurveyExpMetaMem,3.2.3,Win32,60
,,,,,,,,,,,,,,,,,,,,7,2.022000074,1,1.405999899,1,0,1200,300,1,1199,unhappy,11135,2019-10-23_11h07.41.252,SurveyExpMetaMem,3.2.3,Win32,60
,,,,,,,,,,,,,,,,,,,,9,20.68499994,1,0.806999922,1,0,1200,905,1,1199,suffocate,11135,2019-10-23_11h07.41.252,SurveyExpMetaMem,3.2.3,Win32,60
,,,,,,,,,,,,,,,,,,,,8,1.875999928,9,0.421000004,1,0,1200,298,1,1199,success,11135,2019-10-23_11h07.41.252,SurveyExpMetaMem,3.2.3,Win32,60
,,,,,,,,,,,,,,,,,,,,7,1.729000092,7,0.787999868,1,0,1200,109,1,1199,new,11135,2019-10-23_11h07.41.252,SurveyExpMetaMem,3.2.3,Win32,60
,,,,,,,,,,,,,,,,,,,,3,2.328000069,6,1.178999901,1,0,1200,12,1,1199,mountain,11135,2019-10-23_11h07.41.252,SurveyExpMetaMem,3.2.3,Win32,60
,,,,,,,,,,,,,,,,,,,,1,1.366999865,5,0.745999813,1,0,1200,764,1,1199,coin,11135,2019-10-23_11h07.41.252,SurveyExpMetaMem,3.2.3,Win32,60
,,,,,,,,,,,,,,,,,,,,1,19.34800005,7,1.371999979,1,0,1200,789,1,1199,green,11135,2019-10-23_11h07.41.252,SurveyExpMetaMem,3.2.3,Win32,60
,,,,,,,,,,,,,,,,,,,,2,2.407999754,6,1.781000137,1,0,1200,780,1,1199,grass,11135,2019-10-23_11h07.41.252,SurveyExpMetaMem,3.2.3,Win32,60
,,,,,,,,,,,,,,,,,,,,5,2.268000126,6,1.036999702,1,0,1200,796,1,1199,rose,11135,2019-10-23_11h07.41.252,SurveyExpMetaMem,3.2.3,Win32,60
,,,,,,,,,,,,,,,,,,,,6,3.652999878,5,1.242999792,1,0,1200,719,1,1199,western,11135,2019-10-23_11h07.41.252,SurveyExpMetaMem,3.2.3,Win32,60
,,,,,,,,,,,,,,,,,,,,7,1.480000019,3,5.190000057,1,0,1200,1119,1,1199,confusion,11135,2019-10-23_11h07.41.252,SurveyExpMetaMem,3.2.3,Win32,60
,,,,,,,,,,,,,,,,,,,,3,1.59100008,6,0.879999876,1,0,1200,788,1,1199,cook,11135,2019-10-23_11h07.41.252,SurveyExpMetaMem,3.2.3,Win32,60
,,,,,,,,,,,,,,,,,,,,2,11.33500004,7,0.979000092,1,0,1200,640,1,1199,cabin,11135,2019-10-23_11h07.41.252,SurveyExpMetaMem,3.2.3,Win32,60
,,,,,,,,,,,,,,,,,,,,2,1.806999922,6,0.886999846,1,0,1200,266,1,1199,juice,11135,2019-10-23_11h07.41.252,SurveyExpMetaMem,3.2.3,Win32,60
,,,,,,,,,,,,,,,,,,,,6,2.003000021,8,0.988999844,1,0,1200,191,1,1199,compassion,11135,2019-10-23_11h07.41.252,SurveyExpMetaMem,3.2.3,Win32,60
,,,,,,,,,,,,,,,,,,,,7,3.111000061,3,0.842999935,1,0,1200,1158,1,1199,dentist,11135,2019-10-23_11h07.41.252,SurveyExpMetaMem,3.2.3,Win32,60
,,,,,,,,,,,,,,,,,,,,7,4.366999865,3,0.889999866,1,0,1200,1043,1,1199,scold,11135,2019-10-23_11h07.41.252,SurveyExpMetaMem,3.2.3,Win32,60
,,,,,,,,,,,,,,,,,,,,6,1.618999958,1,0.904999971,1,0,1200,385,1,1199,tiresome,11135,2019-10-23_11h07.41.252,SurveyExpMetaMem,3.2.3,Win32,60
,,,,,,,,,,,,,,,,,,,,1,1.625,5,0.610000134,1,0,1200,624,1,1199,tower,11135,2019-10-23_11h07.41.252,SurveyExpMetaMem,3.2.3,Win32,60
,,,,,,,,,,,,,,,,,,,,3,1.789999962,6,0.820999861,1,0,1200,845,1,1199,honey,11135,2019-10-23_11h07.41.252,SurveyExpMetaMem,3.2.3,Win32,60
,,,,,,,,,,,,,,,,,,,,1,2.572999954,7,1.402999878,1,0,1200,261,1,1199,windsurfers,11135,2019-10-23_11h07.41.252,SurveyExpMetaMem,3.2.3,Win32,60
,,,,,,,,,,,,,,,,,,,,9,2.517999887,9,2.529000044,1,0,1200,584,1,1199,anus,11135,2019-10-23_11h07.41.252,SurveyExpMetaMem,3.2.3,Win32,60
,,,,,,,,,,,,,,,,,,,,4,248.8279998,8,1.124000072,1,0,1200,160,1,1199,reunion,11135,2019-10-23_11h07.41.252,SurveyExpMetaMem,3.2.3,Win32,60
,,,,,,,,,,,,,,,,,,,,7,2.071999788,8,0.622999907,1,0,1200,294,1,1199,confident,11135,2019-10-23_11h07.41.252,SurveyExpMetaMem,3.2.3,Win32,60
,,,,,,,,,,,,,,,,,,,,8,22.09599996,2,0.848999977,1,0,1200,947,1,1199,shame,11135,2019-10-23_11h07.41.252,SurveyExpMetaMem,3.2.3,Win32,60
,,,,,,,,,,,,,,,,,,,,2,2.036000013,7,0.838999748,1,0,1200,808,1,1199,violinist,11135,2019-10-23_11h07.41.252,SurveyExpMetaMem,3.2.3,Win32,60
,,,,,,,,,,,,,,,,,,,,1,2.041999817,5,1.137999773,1,0,1200,756,1,1199,plant,11135,2019-10-23_11h07.41.252,SurveyExpMetaMem,3.2.3,Win32,60
,,,,,,,,,,,,,,,,,,,,1,0.974999905,5,0.42599988,1,0,1200,594,1,1199,moss,11135,2019-10-23_11h07.41.252,SurveyExpMetaMem,3.2.3,Win32,60
,,,,,,,,,,,,,,,,,,,,7,1.828999996,3,0.720000029,1,0,1200,315,1,1199,zit,11135,2019-10-23_11h07.41.252,SurveyExpMetaMem,3.2.3,Win32,60
,,,,,,,,,,,,,,,,,,,,8,1.347000122,2,0.823999882,1,0,1200,332,1,1199,sewage,11135,2019-10-23_11h07.41.252,SurveyExpMetaMem,3.2.3,Win32,60
,,,,,,,,,,,,,,,,,,,,3,57.60800004,8,1.114999771,1,0,1200,810,1,1199,polite,11135,2019-10-23_11h07.41.252,SurveyExpMetaMem,3.2.3,Win32,60
,,,,,,,,,,,,,,,,,,,,7,1.750999928,8,0.671000004,1,0,1200,77,1,1199,adore,11135,2019-10-23_11h07.41.252,SurveyExpMetaMem,3.2.3,Win32,60
,,,,,,,,,,,,,,,,,,,,8,1.786000013,9,0.254999876,1,0,1200,48,1,1199,excellence,11135,2019-10-23_11h07.41.252,SurveyExpMetaMem,3.2.3,Win32,60
,,,,,,,,,,,,,,,,,,,,9,1.956999779,9,0.755000114,1,0,1200,295,1,1199,passion,11135,2019-10-23_11h07.41.252,SurveyExpMetaMem,3.2.3,Win32,60
,,,,,,,,,,,,,,,,,,,,2,1.710000038,5,0.947000027,1,0,1200,663,1,1199,trout,11135,2019-10-23_11h07.41.252,SurveyExpMetaMem,3.2.3,Win32,60
,,,,,,,,,,,,,,,,,,,,2,2.013000011,6,1.057999849,1,0,1200,775,1,1199,pancakes,11135,2019-10-23_11h07.41.252,SurveyExpMetaMem,3.2.3,Win32,60
,,,,,,,,,,,,,,,,,,,,2,6.231999874,7,1.087999821,1,0,1200,824,1,1199,favor,11135,2019-10-23_11h07.41.252,SurveyExpMetaMem,3.2.3,Win32,60
,,,,,,,,,,,,,,,,,,,,1,1.419999838,6,0.421999931,1,0,1200,618,1,1199,ceiling,11135,2019-10-23_11h07.41.252,SurveyExpMetaMem,3.2.3,Win32,60
,,,,,,,,,,,,,,,,,,,,2,1.169999838,5,0.871999979,1,0,1200,649,1,1199,donkey,11135,2019-10-23_11h07.41.252,SurveyExpMetaMem,3.2.3,Win32,60
,,,,,,,,,,,,,,,,,,,,1,0.987999916,5,0.407999754,1,0,1200,879,1,1199,bird,11135,2019-10-23_11h07.41.252,SurveyExpMetaMem,3.2.3,Win32,60
,,,,,,,,,,,,,,,,,,,,3,2.218999863,6,0.595999956,1,0,1200,762,1,1199,orchestra,11135,2019-10-23_11h07.41.252,SurveyExpMetaMem,3.2.3,Win32,60
,,,,,,,,,,,,,,,,,,,,6,1.776000023,3,0.829999924,1,0,1200,515,1,1199,blues,11135,2019-10-23_11h07.41.252,SurveyExpMetaMem,3.2.3,Win32,60
,,,,,,,,,,,,,,,,,,,,7,1.352999926,2,0.7099998,1,0,1200,964,1,1199,grieve,11135,2019-10-23_11h07.41.252,SurveyExpMetaMem,3.2.3,Win32,60
,,,,,,,,,,,,,,,,,,,,1,1.212999821,5,0.420999765,1,0,1200,1189,1,1199,lava,11135,2019-10-23_11h07.41.252,SurveyExpMetaMem,3.2.3,Win32,60
,,,,,,,,,,,,,,,,,,,,7,2.014999866,8,0.371999979,1,0,1200,857,1,1199,thankful,11135,2019-10-23_11h07.41.252,SurveyExpMetaMem,3.2.3,Win32,60
,,,,,,,,,,,,,,,,,,,,1,1.170999765,5,0.355999947,1,0,1200,245,1,1199,beach,11135,2019-10-23_11h07.41.252,SurveyExpMetaMem,3.2.3,Win32,60
,,,,,,,,,,,,,,,,,,,,7,4.336999893,8,12.68400002,1,0,1200,1171,1,1199,chaos,11135,2019-10-23_11h07.41.252,SurveyExpMetaMem,3.2.3,Win32,60
,,,,,,,,,,,,,,,,,,,,8,4.221999884,2,0.779999971,1,0,1200,456,1,1199,piss,11135,2019-10-23_11h07.41.252,SurveyExpMetaMem,3.2.3,Win32,60
,,,,,,,,,,,,,,,,,,,,7,1.559000015,2,0.572999954,1,0,1200,328,1,1199,disgrace,11135,2019-10-23_11h07.41.252,SurveyExpMetaMem,3.2.3,Win32,60
,,,,,,,,,,,,,,,,,,,,2,1.220999956,6,1.924000025,1,0,1200,836,1,1199,lounge,11135,2019-10-23_11h07.41.252,SurveyExpMetaMem,3.2.3,Win32,60
,,,,,,,,,,,,,,,,,,,,7,1.558000088,8,1.332000017,1,0,1200,567,1,1199,folly,11135,2019-10-23_11h07.41.252,SurveyExpMetaMem,3.2.3,Win32,60
,,,,,,,,,,,,,,,,,,,,7,1.5849998,8,0.110999823,1,0,1200,226,1,1199,prize,11135,2019-10-23_11h07.41.252,SurveyExpMetaMem,3.2.3,Win32,60
,,,,,,,,,,,,,,,,,,,,8,1.309999943,2,0.388000011,1,0,1200,345,1,1199,unfortunate,11135,2019-10-23_11h07.41.252,SurveyExpMetaMem,3.2.3,Win32,60
,,,,,,,,,,,,,,,,,,,,7,1.836999893,3,0.587999821,1,0,1200,1076,1,1199,embarrassed,11135,2019-10-23_11h07.41.252,SurveyExpMetaMem,3.2.3,Win32,60
,,,,,,,,,,,,,,,,,,,,6,1.545000076,9,1.146999836,1,0,1200,867,1,1199,relaxed,11135,2019-10-23_11h07.41.252,SurveyExpMetaMem,3.2.3,Win32,60
,,,,,,,,,,,,,,,,,,,,9,1.236000061,1,1.271999836,1,0,1200,468,1,1199,noose,11135,2019-10-23_11h07.41.252,SurveyExpMetaMem,3.2.3,Win32,60
,,,,,,,,,,,,,,,,,,,,6,2.802999973,8,0.332000017,1,0,1200,185,1,1199,flirt,11135,2019-10-23_11h07.41.252,SurveyExpMetaMem,3.2.3,Win32,60
,,,,,,,,,,,,,,,,,,,,2,11.48199987,6,0.656000137,1,0,1200,733,1,1199,poetry,11135,2019-10-23_11h07.41.252,SurveyExpMetaMem,3.2.3,Win32,60
,,,,,,,,,,,,,,,,,,,,1,2.522000074,6,0.894999981,1,0,1200,517,1,1199,habit,11135,2019-10-23_11h07.41.252,SurveyExpMetaMem,3.2.3,Win32,60
,,,,,,,,,,,,,,,,,,,,4,2.836999893,3,1.076999903,1,0,1200,488,1,1199,rusty,11135,2019-10-23_11h07.41.252,SurveyExpMetaMem,3.2.3,Win32,60
,,,,,,,,,,,,,,,,,,,,5,2.735999823,5,0.173999786,1,0,1200,1075,1,1199,apprehension,11135,2019-10-23_11h07.41.252,SurveyExpMetaMem,3.2.3,Win32,60
,,,,,,,,,,,,,,,,,,,,1,1.868999958,5,0.562000036,1,0,1200,672,1,1199,ketchup,11135,2019-10-23_11h07.41.252,SurveyExpMetaMem,3.2.3,Win32,60
,,,,,,,,,,,,,,,,,,,,7,2.167999744,7,11.91899991,1,0,1200,1044,1,1199,lost,11135,2019-10-23_11h07.41.252,SurveyExpMetaMem,3.2.3,Win32,60
,,,,,,,,,,,,,,,,,,,,8,2.540999889,8,1.055999994,1,0,1200,244,1,1199,sexy,11135,2019-10-23_11h07.41.252,SurveyExpMetaMem,3.2.3,Win32,60
,,,,,,,,,,,,,,,,,,,,7,1.094000101,1,0.838999987,1,0,1200,484,1,1199,leave,11135,2019-10-23_11h07.41.252,SurveyExpMetaMem,3.2.3,Win32,60
,,,,,,,,,,,,,,,,,,,,4,3.510999918,3,1.055000067,1,0,1200,651,1,1199,bathroom,11135,2019-10-23_11h07.41.252,SurveyExpMetaMem,3.2.3,Win32,60
,,,,,,,,,,,,,,,,,,,,7,1.417999983,3,0.832000017,1,0,1200,1101,1,1199,scary,11135,2019-10-23_11h07.41.252,SurveyExpMetaMem,3.2.3,Win32,60
,,,,,,,,,,,,,,,,,,,,6,2.039999962,5,0.843999863,1,0,1200,568,1,1199,therapy,11135,2019-10-23_11h07.41.252,SurveyExpMetaMem,3.2.3,Win32,60
,,,,,,,,,,,,,,,,,,,,7,2.336999893,4,5.902999878,1,0,1200,1104,1,1199,avalanche,11135,2019-10-23_11h07.41.252,SurveyExpMetaMem,3.2.3,Win32,60
,,,,,,,,,,,,,,,,,,,,8,1.717999935,2,0.713999987,1,0,1200,953,1,1199,victim,11135,2019-10-23_11h07.41.252,SurveyExpMetaMem,3.2.3,Win32,60
,,,,,,,,,,,,,,,,,,,,4,1.628000021,6,0.70600009,1,0,1200,769,1,1199,relate,11135,2019-10-23_11h07.41.252,SurveyExpMetaMem,3.2.3,Win32,60
,,,,,,,,,,,,,,,,,,,,8,1.622999907,3,0.853999853,1,0,1200,932,1,1199,bankrupt,11135,2019-10-23_11h07.41.252,SurveyExpMetaMem,3.2.3,Win32,60
,,,,,,,,,,,,,,,,,,,,8,1.213999987,2,0.631000042,1,0,1200,313,1,1199,rotten,11135,2019-10-23_11h07.41.252,SurveyExpMetaMem,3.2.3,Win32,60
,,,,,,,,,,,,,,,,,,,,7,1.210000038,3,0.90899992,1,0,1200,401,1,1199,feeble,11135,2019-10-23_11h07.41.252,SurveyExpMetaMem,3.2.3,Win32,60
,,,,,,,,,,,,,,,,,,,,7,3.420000076,1,4.726000071,1,0,1200,376,1,1199,incompetent,11135,2019-10-23_11h07.41.252,SurveyExpMetaMem,3.2.3,Win32,60
,,,,,,,,,,,,,,,,,,,,8,1.63499999,2,0.470000029,1,0,1200,996,1,1199,sting,11135,2019-10-23_11h07.41.252,SurveyExpMetaMem,3.2.3,Win32,60
,,,,,,,,,,,,,,,,,,,,7,1.35800004,8,0.453999996,1,0,1200,288,1,1199,tasty,11135,2019-10-23_11h07.41.252,SurveyExpMetaMem,3.2.3,Win32,60
,,,,,,,,,,,,,,,,,,,,4,19.94899988,2,0.871000051,1,0,1200,438,1,1199,dull,11135,2019-10-23_11h07.41.252,SurveyExpMetaMem,3.2.3,Win32,60
,,,,,,,,,,,,,,,,,,,,6,1.765000105,7,0.128999949,1,0,1200,823,1,1199,nourish,11135,2019-10-23_11h07.41.252,SurveyExpMetaMem,3.2.3,Win32,60
,,,,,,,,,,,,,,,,,,,,5,1.572999716,3,1.059999943,1,0,1200,429,1,1199,cough,11135,2019-10-23_11h07.41.252,SurveyExpMetaMem,3.2.3,Win32,60
,,,,,,,,,,,,,,,,,,,,8,1.345999956,7,2.11199975,1,0,1200,1129,1,1199,spanking,11135,2019-10-23_11h07.41.252,SurveyExpMetaMem,3.2.3,Win32,60
,,,,,,,,,,,,,,,,,,,,7,7.451999903,8,0.378999949,1,0,1200,240,1,1199,giggles,11135,2019-10-23_11h07.41.252,SurveyExpMetaMem,3.2.3,Win32,60
,,,,,,,,,,,,,,,,,,,,8,1.459000111,3,0.671000004,1,0,1200,458,1,1199,refuse,11135,2019-10-23_11h07.41.252,SurveyExpMetaMem,3.2.3,Win32,60
,,,,,,,,,,,,,,,,,,,,2,1.711999893,3,1.859999895,1,0,1200,104,1,1199,freeway,11135,2019-10-23_11h07.41.252,SurveyExpMetaMem,3.2.3,Win32,60
,,,,,,,,,,,,,,,,,,,,7,1.912999868,8,0.954999924,1,0,1200,42,1,1199,accomplish,11135,2019-10-23_11h07.41.252,SurveyExpMetaMem,3.2.3,Win32,60
,,,,,,,,,,,,,,,,,,,,8,2.333999872,2,0.796000004,1,0,1200,474,1,1199,weary,11135,2019-10-23_11h07.41.252,SurveyExpMetaMem,3.2.3,Win32,60
,,,,,,,,,,,,,,,,,,,,7,2.197999954,5,3.404000044,1,0,1200,428,1,1199,end,11135,2019-10-23_11h07.41.252,SurveyExpMetaMem,3.2.3,Win32,60
,,,,,,,,,,,,,,,,,,,,3,4.587999821,5,0.792999983,1,0,1200,572,1,1199,cast,11135,2019-10-23_11h07.41.252,SurveyExpMetaMem,3.2.3,Win32,60
,,,,,,,,,,,,,,,,,,,,8,1.40199995,1,0.725999832,1,0,1200,991,1,1199,harass,11135,2019-10-23_11h07.41.252,SurveyExpMetaMem,3.2.3,Win32,60
,,,,,,,,,,,,,,,,,,,,1,1.538999796,6,1.041999817,1,0,1200,681,1,1199,fig,11135,2019-10-23_11h07.41.252,SurveyExpMetaMem,3.2.3,Win32,60
,,,,,,,,,,,,,,,,,,,,8,1.505999804,2,1.109999895,1,0,1200,955,1,1199,drown,11135,2019-10-23_11h07.41.252,SurveyExpMetaMem,3.2.3,Win32,60
,,,,,,,,,,,,,,,,,,,,7,9.417999983,3,0.791999817,1,0,1200,1148,1,1199,suspicious,11135,2019-10-23_11h07.41.252,SurveyExpMetaMem,3.2.3,Win32,60
,,,,,,,,,,,,,,,,,,,,2,1.687999725,8,39.4289999,1,0,1200,128,1,1199,supper,11135,2019-10-23_11h07.41.252,SurveyExpMetaMem,3.2.3,Win32,60
,,,,,,,,,,,,,,,,,,,,8,1.29399991,9,0.714999914,1,0,1200,222,1,1199,waterskiing,11135,2019-10-23_11h07.41.252,SurveyExpMetaMem,3.2.3,Win32,60
,,,,,,,,,,,,,,,,,,,,7,1.779999733,8,0.220000029,1,0,1200,189,1,1199,thoughtful,11135,2019-10-23_11h07.41.252,SurveyExpMetaMem,3.2.3,Win32,60
,,,,,,,,,,,,,,,,,,,,6,2.269999981,7,0.454999924,1,0,1200,894,1,1199,sunset,11135,2019-10-23_11h07.41.252,SurveyExpMetaMem,3.2.3,Win32,60
,,,,,,,,,,,,,,,,,,,,8,1.186999798,3,0.546999931,1,0,1200,1177,1,1199,pang,11135,2019-10-23_11h07.41.252,SurveyExpMetaMem,3.2.3,Win32,60
,,,,,,,,,,,,,,,,,,,,3,1.602999926,7,0.929000139,1,0,1200,767,1,1199,civil,11135,2019-10-23_11h07.41.252,SurveyExpMetaMem,3.2.3,Win32,60
,,,,,,,,,,,,,,,,,,,,8,1.352999926,4,0.593999863,1,0,1200,383,1,1199,messy,11135,2019-10-23_11h07.41.252,SurveyExpMetaMem,3.2.3,Win32,60
,,,,,,,,,,,,,,,,,,,,7,1.655999899,2,0.993999958,1,0,1200,424,1,1199,fault,11135,2019-10-23_11h07.41.252,SurveyExpMetaMem,3.2.3,Win32,60
,,,,,,,,,,,,,,,,,,,,7,1.687999964,5,1.302000046,1,0,1200,1198,1,1199,lightning,11135,2019-10-23_11h07.41.252,SurveyExpMetaMem,3.2.3,Win32,60
,,,,,,,,,,,,,,,,,,,,3,1.565000057,7,0.898000002,1,0,1200,114,1,1199,raise,11135,2019-10-23_11h07.41.252,SurveyExpMetaMem,3.2.3,Win32,60
,,,,,,,,,,,,,,,,,,,,2,1.467999935,6,1.960000038,1,0,1200,838,1,1199,nestle,11135,2019-10-23_11h07.41.252,SurveyExpMetaMem,3.2.3,Win32,60
,,,,,,,,,,,,,,,,,,,,8,1.304999828,3,0.608999968,1,0,1200,1111,1,1199,bruise,11135,2019-10-23_11h07.41.252,SurveyExpMetaMem,3.2.3,Win32,60
,,,,,,,,,,,,,,,,,,,,2,1.555999994,5,1.031999826,1,0,1200,63,1,1199,clothes,11135,2019-10-23_11h07.41.252,SurveyExpMetaMem,3.2.3,Win32,60
,,,,,,,,,,,,,,,,,,,,8,1.904000044,1,1.438999891,1,0,1200,985,1,1199,pollution,11135,2019-10-23_11h07.41.252,SurveyExpMetaMem,3.2.3,Win32,60
,,,,,,,,,,,,,,,,,,,,3,23.977,3,1.453999996,1,0,1200,440,1,1199,forgot,11135,2019-10-23_11h07.41.252,SurveyExpMetaMem,3.2.3,Win32,60
,,,,,,,,,,,,,,,,,,,,6,1.917000055,9,0.621999979,1,0,1200,149,1,1199,loved,11135,2019-10-23_11h07.41.252,SurveyExpMetaMem,3.2.3,Win32,60
,,,,,,,,,,,,,,,,,,,,8,1.49399972,2,0.639999866,1,0,1200,1157,1,1199,slayer,11135,2019-10-23_11h07.41.252,SurveyExpMetaMem,3.2.3,Win32,60
,,,,,,,,,,,,,,,,,,,,7,1.628999949,4,0.448999882,1,0,1200,1174,1,1199,beast,11135,2019-10-23_11h07.41.252,SurveyExpMetaMem,3.2.3,Win32,60
,,,,,,,,,,,,,,,,,,,,8,1.326999903,2,0.853999853,1,0,1200,487,1,1199,junk,11135,2019-10-23_11h07.41.252,SurveyExpMetaMem,3.2.3,Win32,60
,,,,,,,,,,,,,,,,,,,,4,2.569999933,8,0.792000055,1,0,1200,98,1,1199,affection,11135,2019-10-23_11h07.41.252,SurveyExpMetaMem,3.2.3,Win32,60
,,,,,,,,,,,,,,,,,,,,1,1.460999966,5,1.171000004,1,0,1200,682,1,1199,camel,11135,2019-10-23_11h07.41.252,SurveyExpMetaMem,3.2.3,Win32,60
,,,,,,,,,,,,,,,,,,,,3,5.302000046,7,0.454999924,1,0,1200,840,1,1199,cuisine,11135,2019-10-23_11h07.41.252,SurveyExpMetaMem,3.2.3,Win32,60
,,,,,,,,,,,,,,,,,,,,7,2.06099987,2,0.664999962,1,0,1200,541,1,1199,apathy,11135,2019-10-23_11h07.41.252,SurveyExpMetaMem,3.2.3,Win32,60
,,,,,,,,,,,,,,,,,,,,9,1.375999928,3,0.888000011,1,0,1200,1012,1,1199,gunshot,11135,2019-10-23_11h07.41.252,SurveyExpMetaMem,3.2.3,Win32,60
,,,,,,,,,,,,,,,,,,,,6,2.652999878,9,1.190000057,1,0,1200,239,1,1199,compassionate,11135,2019-10-23_11h07.41.252,SurveyExpMetaMem,3.2.3,Win32,60
,,,,,,,,,,,,,,,,,,,,8,2.634999752,8,0.125999928,1,0,1200,622,1,1199,revere,11135,2019-10-23_11h07.41.252,SurveyExpMetaMem,3.2.3,Win32,60
,,,,,,,,,,,,,,,,,,,,1,1.286000013,5,0.404000044,1,0,1200,725,1,1199,checkerboard,11135,2019-10-23_11h07.41.252,SurveyExpMetaMem,3.2.3,Win32,60
,,,,,,,,,,,,,,,,,,,,2,2.220000029,6,0.720999956,1,0,1200,854,1,1199,river,11135,2019-10-23_11h07.41.252,SurveyExpMetaMem,3.2.3,Win32,60
,,,,,,,,,,,,,,,,,,,,1,1.355999947,5,0.77699995,1,0,1200,553,1,1199,corner,11135,2019-10-23_11h07.41.252,SurveyExpMetaMem,3.2.3,Win32,60
,,,,,,,,,,,,,,,,,,,,3,3.018999815,7,2.062999964,1,0,1200,23,1,1199,earn,11135,2019-10-23_11h07.41.252,SurveyExpMetaMem,3.2.3,Win32,60
,,,,,,,,,,,,,,,,,,,,7,2.585000038,4,0.838000059,1,0,1200,1053,1,1199,surgery,11135,2019-10-23_11h07.41.252,SurveyExpMetaMem,3.2.3,Win32,60
,,,,,,,,,,,,,,,,,,,,2,4.500999928,7,0.605000019,1,0,1200,855,1,1199,girl,11135,2019-10-23_11h07.41.252,SurveyExpMetaMem,3.2.3,Win32,60
,,,,,,,,,,,,,,,,,,,,3,5.266999722,2,1.252999783,1,0,1200,506,1,1199,lower,11135,2019-10-23_11h07.41.252,SurveyExpMetaMem,3.2.3,Win32,60
,,,,,,,,,,,,,,,,,,,,1,1.541999817,5,0.440000057,1,0,1200,761,1,1199,corn,11135,2019-10-23_11h07.41.252,SurveyExpMetaMem,3.2.3,Win32,60
,,,,,,,,,,,,,,,,,,,,2,1.643999815,7,0.476000071,1,0,1200,22,1,1199,doughnut,11135,2019-10-23_11h07.41.252,SurveyExpMetaMem,3.2.3,Win32,60
,,,,,,,,,,,,,,,,,,,,7,1.984999895,3,0.556999922,1,0,1200,1136,1,1199,appall,11135,2019-10-23_11h07.41.252,SurveyExpMetaMem,3.2.3,Win32,60
,,,,,,,,,,,,,,,,,,,,7,7.316999912,3,0.69299984,1,0,1200,1074,1,1199,detain,11135,2019-10-23_11h07.41.252,SurveyExpMetaMem,3.2.3,Win32,60
,,,,,,,,,,,,,,,,,,,,2,1.756999731,7,1.207999945,1,0,1200,21,1,1199,game,11135,2019-10-23_11h07.41.252,SurveyExpMetaMem,3.2.3,Win32,60
,,,,,,,,,,,,,,,,,,,,7,1.335999966,2,0.694999933,1,0,1200,389,1,1199,gloomy,11135,2019-10-23_11h07.41.252,SurveyExpMetaMem,3.2.3,Win32,60
,,,,,,,,,,,,,,,,,,,,4,2.036000013,8,0.803999901,1,0,1200,170,1,1199,entertainment,11135,2019-10-23_11h07.41.252,SurveyExpMetaMem,3.2.3,Win32,60
,,,,,,,,,,,,,,,,,,,,5,2.287999868,5,0.786999941,1,0,1200,585,1,1199,tatter,11135,2019-10-23_11h07.41.252,SurveyExpMetaMem,3.2.3,Win32,60
,,,,,,,,,,,,,,,,,,,,5,5.25999999,5,0.170000076,1,0,1200,121,1,1199,self,11135,2019-10-23_11h07.41.252,SurveyExpMetaMem,3.2.3,Win32,60
,,,,,,,,,,,,,,,,,,,,8,1.868000031,3,0.556999922,1,0,1200,550,1,1199,fart,11135,2019-10-23_11h07.41.252,SurveyExpMetaMem,3.2.3,Win32,60
,,,,,,,,,,,,,,,,,,,,8,1.144999743,2,0.772999763,1,0,1200,927,1,1199,jail,11135,2019-10-23_11h07.41.252,SurveyExpMetaMem,3.2.3,Win32,60
,,,,,,,,,,,,,,,,,,,,7,1.405999899,3,0.812000036,1,0,1200,426,1,1199,con,11135,2019-10-23_11h07.41.252,SurveyExpMetaMem,3.2.3,Win32,60
,,,,,,,,,,,,,,,,,,,,8,1.84499979,2,1.303999901,1,0,1200,1169,1,1199,enforcement,11135,2019-10-23_11h07.41.252,SurveyExpMetaMem,3.2.3,Win32,60
,,,,,,,,,,,,,,,,,,,,7,1.63499999,2,0.852999926,1,0,1200,341,1,1199,stinky,11135,2019-10-23_11h07.41.252,SurveyExpMetaMem,3.2.3,Win32,60
,,,,,,,,,,,,,,,,,,,,9,1.024999857,1,0.603999853,1,0,1200,972,1,1199,homicide,11135,2019-10-23_11h07.41.252,SurveyExpMetaMem,3.2.3,Win32,60
,,,,,,,,,,,,,,,,,,,,8,1.042000055,3,1.06099987,1,0,1200,1067,1,1199,wicked,11135,2019-10-23_11h07.41.252,SurveyExpMetaMem,3.2.3,Win32,60
,,,,,,,,,,,,,,,,,,,,1,1.233999968,5,0.372999907,1,0,1200,111,1,1199,band,11135,2019-10-23_11h07.41.252,SurveyExpMetaMem,3.2.3,Win32,60
,,,,,,,,,,,,,,,,,,,,3,2.987999916,7,0.453999996,1,0,1200,765,1,1199,candid,11135,2019-10-23_11h07.41.252,SurveyExpMetaMem,3.2.3,Win32,60
,,,,,,,,,,,,,,,,,,,,4,24.46899986,8,0.724999905,1,0,1200,14,1,1199,attain,11135,2019-10-23_11h07.41.252,SurveyExpMetaMem,3.2.3,Win32,60
,,,,,,,,,,,,,,,,,,,,2,1.667999983,6,0.927000046,1,0,1200,51,1,1199,body,11135,2019-10-23_11h07.41.252,SurveyExpMetaMem,3.2.3,Win32,60
,,,,,,,,,,,,,,,,,,,,3,1.553999901,7,0.707999945,1,0,1200,803,1,1199,tidy,11135,2019-10-23_11h07.41.252,SurveyExpMetaMem,3.2.3,Win32,60
,,,,,,,,,,,,,,,,,,,,6,2.690999985,4,0.792000055,1,0,1200,477,1,1199,separate,11135,2019-10-23_11h07.41.252,SurveyExpMetaMem,3.2.3,Win32,60
,,,,,,,,,,,,,,,,,,,,2,2.02699995,6,1.319999933,1,0,1200,784,1,1199,logical,11135,2019-10-23_11h07.41.252,SurveyExpMetaMem,3.2.3,Win32,60
,,,,,,,,,,,,,,,,,,,,6,2.322000027,3,0.838000059,1,0,1200,435,1,1199,grovel,11135,2019-10-23_11h07.41.252,SurveyExpMetaMem,3.2.3,Win32,60
,,,,,,,,,,,,,,,,,,,,2,2.292000055,6,4.339999914,1,0,1200,7,1,1199,duet,11135,2019-10-23_11h07.41.252,SurveyExpMetaMem,3.2.3,Win32,60
,,,,,,,,,,,,,,,,,,,,7,33.7579999,3,0.948999882,1,0,1200,483,1,1199,condescension,11135,2019-10-23_11h07.41.252,SurveyExpMetaMem,3.2.3,Win32,60
,,,,,,,,,,,,,,,,,,,,7,2.186999798,8,0.237999916,1,0,1200,11,1,1199,astonished,11135,2019-10-23_11h07.41.252,SurveyExpMetaMem,3.2.3,Win32,60
,,,,,,,,,,,,,,,,,,,,2,10.5389998,6,0.762000084,1,0,1200,172,1,1199,potential,11135,2019-10-23_11h07.41.252,SurveyExpMetaMem,3.2.3,Win32,60
,,,,,,,,,,,,,,,,,,,,6,1.770999908,6,0.628999949,1,0,1200,234,1,1199,redeem,11135,2019-10-23_11h07.41.252,SurveyExpMetaMem,3.2.3,Win32,60
,,,,,,,,,,,,,,,,,,,,7,1.48699975,2,0.662999868,1,0,1200,1045,1,1199,scalding,11135,2019-10-23_11h07.41.252,SurveyExpMetaMem,3.2.3,Win32,60
,,,,,,,,,,,,,,,,,,,,8,1.937999964,6,1.639999866,1,0,1200,144,1,1199,aroused,11135,2019-10-23_11h07.41.252,SurveyExpMetaMem,3.2.3,Win32,60
,,,,,,,,,,,,,,,,,,,,8,1.535000086,9,0.671999931,1,0,1200,865,1,1199,bliss,11135,2019-10-23_11h07.41.252,SurveyExpMetaMem,3.2.3,Win32,60
,,,,,,,,,,,,,,,,,,,,8,1.634999752,3,0.605999947,1,0,1200,1141,1,1199,shark,11135,2019-10-23_11h07.41.252,SurveyExpMetaMem,3.2.3,Win32,60
,,,,,,,,,,,,,,,,,,,,1,1.342999935,5,0.404000044,1,0,1200,841,1,1199,bathtub,11135,2019-10-23_11h07.41.252,SurveyExpMetaMem,3.2.3,Win32,60
,,,,,,,,,,,,,,,,,,,,6,1.870000124,7,0.472999811,1,0,1200,62,1,1199,interested,11135,2019-10-23_11h07.41.252,SurveyExpMetaMem,3.2.3,Win32,60
,,,,,,,,,,,,,,,,,,,,7,1.40899992,3,0.621999741,1,0,1200,952,1,1199,troubled,11135,2019-10-23_11h07.41.252,SurveyExpMetaMem,3.2.3,Win32,60
,,,,,,,,,,,,,,,,,,,,8,1.069999933,2,0.628999949,1,0,1200,1036,1,1199,anxiety,11135,2019-10-23_11h07.41.252,SurveyExpMetaMem,3.2.3,Win32,60
,,,,,,,,,,,,,,,,,,,,1,2.221999884,5,0.095999956,1,0,1200,853,1,1199,breeze,11135,2019-10-23_11h07.41.252,SurveyExpMetaMem,3.2.3,Win32,60
,,,,,,,,,,,,,,,,,,,,1,1.295000076,5,0.071999788,1,0,1200,645,1,1199,telescope,11135,2019-10-23_11h07.41.252,SurveyExpMetaMem,3.2.3,Win32,60
,,,,,,,,,,,,,,,,,,,,7,3.434999943,3,0.088999748,1,0,1200,670,1,1199,urinate,11135,2019-10-23_11h07.41.252,SurveyExpMetaMem,3.2.3,Win32,60
,,,,,,,,,,,,,,,,,,,,6,2.645999908,7,0.176999807,1,0,1200,286,1,1199,superstar,11135,2019-10-23_11h07.41.252,SurveyExpMetaMem,3.2.3,Win32,60
,,,,,,,,,,,,,,,,,,,,6,2.294999838,6,0.14199996,1,0,1200,219,1,1199,know,11135,2019-10-23_11h07.41.252,SurveyExpMetaMem,3.2.3,Win32,60
,,,,,,,,,,,,,,,,,,,,7,1.520999908,2,0.09800005,1,0,1200,933,1,1199,afraid,11135,2019-10-23_11h07.41.252,SurveyExpMetaMem,3.2.3,Win32,60
,,,,,,,,,,,,,,,,,,,,8,1.625,1,0.515999794,1,0,1200,367,1,1199,pathetic,11135,2019-10-23_11h07.41.252,SurveyExpMetaMem,3.2.3,Win32,60
,,,,,,,,,,,,,,,,,,,,7,2.075999975,1,0.228999853,1,0,1200,485,1,1199,pinch,11135,2019-10-23_11h07.41.252,SurveyExpMetaMem,3.2.3,Win32,60
,,,,,,,,,,,,,,,,,,,,7,1.494999886,2,0.117000103,1,0,1200,1086,1,1199,irritate,11135,2019-10-23_11h07.41.252,SurveyExpMetaMem,3.2.3,Win32,60
,,,,,,,,,,,,,,,,,,,,8,2.001999855,2,0.116999865,1,0,1200,1184,1,1199,reckless,11135,2019-10-23_11h07.41.252,SurveyExpMetaMem,3.2.3,Win32,60
,,,,,,,,,,,,,,,,,,,,3,3.217999935,5,0.072999954,1,0,1200,627,1,1199,introductory,11135,2019-10-23_11h07.41.252,SurveyExpMetaMem,3.2.3,Win32,60
,,,,,,,,,,,,,,,,,,,,2,2.626999855,5,0.098999977,1,0,1200,50,1,1199,bolt,11135,2019-10-23_11h07.41.252,SurveyExpMetaMem,3.2.3,Win32,60
,,,,,,,,,,,,,,,,,,,,1,1.259000063,5,0.084000111,1,0,1200,834,1,1199,crown,11135,2019-10-23_11h07.41.252,SurveyExpMetaMem,3.2.3,Win32,60
,,,,,,,,,,,,,,,,,,,,2,1.751999855,6,0.037999868,1,0,1200,676,1,1199,straighten,11135,2019-10-23_11h07.41.252,SurveyExpMetaMem,3.2.3,Win32,60
,,,,,,,,,,,,,,,,,,,,7,2.470999956,2,0.121000051,1,0,1200,934,1,1199,sob,11135,2019-10-23_11h07.41.252,SurveyExpMetaMem,3.2.3,Win32,60
,,,,,,,,,,,,,,,,,,,,8,1.85199976,2,0.787999868,1,0,1200,433,1,1199,uninteresting,11135,2019-10-23_11h07.41.252,SurveyExpMetaMem,3.2.3,Win32,60
,,,,,,,,,,,,,,,,,,,,8,1.335999966,1,0.687999964,1,0,1200,945,1,1199,demon,11135,2019-10-23_11h07.41.252,SurveyExpMetaMem,3.2.3,Win32,60
,,,,,,,,,,,,,,,,,,,,4,2.714999914,8,0.720999956,1,0,1200,86,1,1199,talent,11135,2019-10-23_11h07.41.252,SurveyExpMetaMem,3.2.3,Win32,60
,,,,,,,,,,,,,,,,,,,,4,2.868999958,7,0.861000061,1,0,1200,28,1,1199,energy,11135,2019-10-23_11h07.41.252,SurveyExpMetaMem,3.2.3,Win32,60
,,,,,,,,,,,,,,,,,,,,6,3.105999947,7,1.221999884,1,0,1200,878,1,1199,sleep,11135,2019-10-23_11h07.41.252,SurveyExpMetaMem,3.2.3,Win32,60
,,,,,,,,,,,,,,,,,,,,3,1.963000059,8,0.541000128,1,0,1200,703,1,1199,book,11135,2019-10-23_11h07.41.252,SurveyExpMetaMem,3.2.3,Win32,60
,,,,,,,,,,,,,,,,,,,,2,19.49099994,6,1.036999702,1,0,1200,212,1,1199,belief,11135,2019-10-23_11h07.41.252,SurveyExpMetaMem,3.2.3,Win32,60
,,,,,,,,,,,,,,,,,,,,8,1.501999855,2,0.673000097,1,0,1200,914,1,1199,fail,11135,2019-10-23_11h07.41.252,SurveyExpMetaMem,3.2.3,Win32,60
,,,,,,,,,,,,,,,,,,,,8,2.53399992,1,1.021999836,1,0,1200,921,1,1199,humiliation,11135,2019-10-23_11h07.41.252,SurveyExpMetaMem,3.2.3,Win32,60
,,,,,,,,,,,,,,,,,,,,7,1.204999924,1,1.440999746,1,0,1200,939,1,1199,vomit,11135,2019-10-23_11h07.41.252,SurveyExpMetaMem,3.2.3,Win32,60
,,,,,,,,,,,,,,,,,,,,2,1.602999926,5,1.678999901,1,0,1200,713,1,1199,mobile,11135,2019-10-23_11h07.41.252,SurveyExpMetaMem,3.2.3,Win32,60
,,,,,,,,,,,,,,,,,,,,7,2.754999876,2,0.247999907,1,0,1200,414,1,1199,pity,11135,2019-10-23_11h07.41.252,SurveyExpMetaMem,3.2.3,Win32,60
,,,,,,,,,,,,,,,,,,,,2,4.349999905,6,1.879999876,1,0,1200,892,1,1199,untroubled,11135,2019-10-23_11h07.41.252,SurveyExpMetaMem,3.2.3,Win32,60
,,,,,,,,,,,,,,,,,,,,2,4.458999872,7,1.554999828,1,0,1200,9,1,1199,try,11135,2019-10-23_11h07.41.252,SurveyExpMetaMem,3.2.3,Win32,60
,,,,,,,,,,,,,,,,,,,,3,6.79399991,8,13.22200012,1,0,1200,29,1,1199,life,11135,2019-10-23_11h07.41.252,SurveyExpMetaMem,3.2.3,Win32,60
,,,,,,,,,,,,,,,,,,,,2,4.254999876,9,0.427999973,1,0,1200,53,1,1199,lotion,11135,2019-10-23_11h07.41.252,SurveyExpMetaMem,3.2.3,Win32,60
,,,,,,,,,,,,,,,,,,,,7,12.50199986,3,0.538000107,1,0,1200,511,1,1199,slouch,11135,2019-10-23_11h07.41.252,SurveyExpMetaMem,3.2.3,Win32,60
,,,,,,,,,,,,,,,,,,,,1,1.578999996,5,0.758999825,1,0,1200,616,1,1199,coat,11135,2019-10-23_11h07.41.252,SurveyExpMetaMem,3.2.3,Win32,60
,,,,,,,,,,,,,,,,,,,,1,2.09499979,5,4.497999907,1,0,1200,736,1,1199,hawk,11135,2019-10-23_11h07.41.252,SurveyExpMetaMem,3.2.3,Win32,60
,,,,,,,,,,,,,,,,,,,,7,1.342000008,2,11.85299993,1,0,1200,970,1,1199,worry,11135,2019-10-23_11h07.41.252,SurveyExpMetaMem,3.2.3,Win32,60
,,,,,,,,,,,,,,,,,,,,7,1.466999769,3,1.243999958,1,0,1200,566,1,1199,obscure,11135,2019-10-23_11h07.41.252,SurveyExpMetaMem,3.2.3,Win32,60
,,,,,,,,,,,,,,,,,,,,7,1.451999903,3,0.788999796,1,0,1200,988,1,1199,deserter,11135,2019-10-23_11h07.41.252,SurveyExpMetaMem,3.2.3,Win32,60
,,,,,,,,,,,,,,,,,,,,9,2.308000088,2,2.088000059,1,0,1200,502,1,1199,crap,11135,2019-10-23_11h07.41.252,SurveyExpMetaMem,3.2.3,Win32,60
,,,,,,,,,,,,,,,,,,,,3,1.978999853,5,0.943000078,1,0,1200,38,1,1199,cheeseburger,11135,2019-10-23_11h07.41.252,SurveyExpMetaMem,3.2.3,Win32,60
,,,,,,,,,,,,,,,,,,,,3,3.443999767,4,2.02699995,1,0,1200,1115,1,1199,invade,11135,2019-10-23_11h07.41.252,SurveyExpMetaMem,3.2.3,Win32,60
,,,,,,,,,,,,,,,,,,,,3,1.8349998,8,1.648000002,1,0,1200,578,1,1199,govern,11135,2019-10-23_11h07.41.252,SurveyExpMetaMem,3.2.3,Win32,60
,,,,,,,,,,,,,,,,,,,,3,10.10899997,5,0.924000025,1,0,1200,742,1,1199,window,11135,2019-10-23_11h07.41.252,SurveyExpMetaMem,3.2.3,Win32,60
,,,,,,,,,,,,,,,,,,,,4,1.388000011,5,0.279000044,1,0,1200,163,1,1199,gem,11135,2019-10-23_11h07.41.252,SurveyExpMetaMem,3.2.3,Win32,60
,,,,,,,,,,,,,,,,,,,,7,1.463999987,3,0.404999971,1,0,1200,307,1,1199,sick,11135,2019-10-23_11h07.41.252,SurveyExpMetaMem,3.2.3,Win32,60
,,,,,,,,,,,,,,,,,,,,3,1.236000061,8,0.694999933,1,0,1200,711,1,1199,sympathetic,11135,2019-10-23_11h07.41.252,SurveyExpMetaMem,3.2.3,Win32,60
,,,,,,,,,,,,,,,,,,,,7,1.526000023,2,0.455999851,1,0,1200,591,1,1199,bereavement,11135,2019-10-23_11h07.41.252,SurveyExpMetaMem,3.2.3,Win32,60
,,,,,,,,,,,,,,,,,,,,1,1.463999987,7,1.123999834,1,0,1200,143,1,1199,weekend,11135,2019-10-23_11h07.41.252,SurveyExpMetaMem,3.2.3,Win32,60
,,,,,,,,,,,,,,,,,,,,2,1.157999992,3,1.193999767,1,0,1200,552,1,1199,shadow,11135,2019-10-23_11h07.41.252,SurveyExpMetaMem,3.2.3,Win32,60
,,,,,,,,,,,,,,,,,,,,7,1.29399991,2,0.638000011,1,0,1200,343,1,1199,fever,11135,2019-10-23_11h07.41.252,SurveyExpMetaMem,3.2.3,Win32,60
,,,,,,,,,,,,,,,,,,,,8,1.076999903,2,0.507999897,1,0,1200,1110,1,1199,bastard,11135,2019-10-23_11h07.41.252,SurveyExpMetaMem,3.2.3,Win32,60
,,,,,,,,,,,,,,,,,,,,8,1.342999935,1,0.569999933,1,0,1200,444,1,1199,mold,11135,2019-10-23_11h07.41.252,SurveyExpMetaMem,3.2.3,Win32,60
,,,,,,,,,,,,,,,,,,,,6,2.102999926,3,0.523000002,1,0,1200,1032,1,1199,exam,11135,2019-10-23_11h07.41.252,SurveyExpMetaMem,3.2.3,Win32,60
,,,,,,,,,,,,,,,,,,,,4,1.528999805,7,0.924999952,1,0,1200,712,1,1199,harvest,11135,2019-10-23_11h07.41.252,SurveyExpMetaMem,3.2.3,Win32,60
,,,,,,,,,,,,,,,,,,,,6,1.804999828,8,0.429999828,1,0,1200,36,1,1199,puppy,11135,2019-10-23_11h07.41.252,SurveyExpMetaMem,3.2.3,Win32,60
,,,,,,,,,,,,,,,,,,,,3,6.267999887,4,1.786999941,1,0,1200,1191,1,1199,evade,11135,2019-10-23_11h07.41.252,SurveyExpMetaMem,3.2.3,Win32,60
,,,,,,,,,,,,,,,,,,,,3,1.987999916,7,2.681999922,1,0,1200,202,1,1199,mercy,11135,2019-10-23_11h07.41.252,SurveyExpMetaMem,3.2.3,Win32,60
,,,,,,,,,,,,,,,,,,,,1,1.417000055,5,1.021999836,1,0,1200,660,1,1199,rock,11135,2019-10-23_11h07.41.252,SurveyExpMetaMem,3.2.3,Win32,60
,,,,,,,,,,,,,,,,,,,,1,0.888999939,5,0.410000086,1,0,1200,615,1,1199,lad,11135,2019-10-23_11h07.41.252,SurveyExpMetaMem,3.2.3,Win32,60
,,,,,,,,,,,,,,,,,,,,6,1.697999954,4,0.378999949,1,0,1200,381,1,1199,sloppy,11135,2019-10-23_11h07.41.252,SurveyExpMetaMem,3.2.3,Win32,60
,,,,,,,,,,,,,,,,,,,,3,1.20299983,3,1.971999884,1,0,1200,1180,1,1199,heat,11135,2019-10-23_11h07.41.252,SurveyExpMetaMem,3.2.3,Win32,60
,,,,,,,,,,,,,,,,,,,,7,1.639999866,2,0.505999804,1,0,1200,377,1,1199,complain,11135,2019-10-23_11h07.41.252,SurveyExpMetaMem,3.2.3,Win32,60
,,,,,,,,,,,,,,,,,,,,7,1.41899991,3,0.388999939,1,0,1200,445,1,1199,bleak,11135,2019-10-23_11h07.41.252,SurveyExpMetaMem,3.2.3,Win32,60
,,,,,,,,,,,,,,,,,,,,7,2.15199995,3,3.23699975,1,0,1200,508,1,1199,haphazard,11135,2019-10-23_11h07.41.252,SurveyExpMetaMem,3.2.3,Win32,60
,,,,,,,,,,,,,,,,,,,,3,30.64899993,2,0.378000021,1,0,1200,563,1,1199,stupor,11135,2019-10-23_11h07.41.252,SurveyExpMetaMem,3.2.3,Win32,60
,,,,,,,,,,,,,,,,,,,,6,2.105000019,7,0.424999952,1,0,1200,55,1,1199,rare,11135,2019-10-23_11h07.41.252,SurveyExpMetaMem,3.2.3,Win32,60
,,,,,,,,,,,,,,,,,,,,7,1.564999819,3,0.414000034,1,0,1200,368,1,1199,dreary,11135,2019-10-23_11h07.41.252,SurveyExpMetaMem,3.2.3,Win32,60
,,,,,,,,,,,,,,,,,,,,8,2.5849998,6,1.109999895,1,0,1200,1040,1,1199,communism,11135,2019-10-23_11h07.41.252,SurveyExpMetaMem,3.2.3,Win32,60
,,,,,,,,,,,,,,,,,,,,7,1.457999945,7,1.572999954,1,0,1200,268,1,1199,tickle,11135,2019-10-23_11h07.41.252,SurveyExpMetaMem,3.2.3,Win32,60
,,,,,,,,,,,,,,,,,,,,1,1.555999994,5,0.703999996,1,0,1200,575,1,1199,paragraph,11135,2019-10-23_11h07.41.252,SurveyExpMetaMem,3.2.3,Win32,60
,,,,,,,,,,,,,,,,,,,,6,2.894999981,3,0.557999849,1,0,1200,396,1,1199,unpopular,11135,2019-10-23_11h07.41.252,SurveyExpMetaMem,3.2.3,Win32,60
,,,,,,,,,,,,,,,,,,,,1,1.118000031,5,0.591999769,1,0,1200,251,1,1199,meteor,11135,2019-10-23_11h07.41.252,SurveyExpMetaMem,3.2.3,Win32,60
,,,,,,,,,,,,,,,,,,,,1,1.118999958,5,0.476999998,1,0,1200,256,1,1199,galaxy,11135,2019-10-23_11h07.41.252,SurveyExpMetaMem,3.2.3,Win32,60
,,,,,,,,,,,,,,,,,,,,6,1.437000036,2,0.423999786,1,0,1200,486,1,1199,fool,11135,2019-10-23_11h07.41.252,SurveyExpMetaMem,3.2.3,Win32,60
,,,,,,,,,,,,,,,,,,,,4,13.69900012,8,1.792999744,1,0,1200,715,1,1199,sheltered,11135,2019-10-23_11h07.41.252,SurveyExpMetaMem,3.2.3,Win32,60
,,,,,,,,,,,,,,,,,,,,2,1.526000023,6,1.153999805,1,0,1200,555,1,1199,school,11135,2019-10-23_11h07.41.252,SurveyExpMetaMem,3.2.3,Win32,60
,,,,,,,,,,,,,,,,,,,,1,5.138999939,5,0.779999733,1,0,1200,554,1,1199,label,11135,2019-10-23_11h07.41.252,SurveyExpMetaMem,3.2.3,Win32,60
,,,,,,,,,,,,,,,,,,,,2,4.549999952,6,0.90899992,1,0,1200,744,1,1199,village,11135,2019-10-23_11h07.41.252,SurveyExpMetaMem,3.2.3,Win32,60
,,,,,,,,,,,,,,,,,,,,7,3.788000107,2,1.490999937,1,0,1200,590,1,1199,stool,11135,2019-10-23_11h07.41.252,SurveyExpMetaMem,3.2.3,Win32,60
,,,,,,,,,,,,,,,,,,,,7,24.57599998,2,0.476999998,1,0,1200,402,1,1199,dismissive,11135,2019-10-23_11h07.41.252,SurveyExpMetaMem,3.2.3,Win32,60
,,,,,,,,,,,,,,,,,,,,4,2.144999981,7,0.676000118,1,0,1200,832,1,1199,candy,11135,2019-10-23_11h07.41.252,SurveyExpMetaMem,3.2.3,Win32,60
,,,,,,,,,,,,,,,,,,,,7,1.592999935,4,0.555999994,1,0,1200,441,1,1199,prohibit,11135,2019-10-23_11h07.41.252,SurveyExpMetaMem,3.2.3,Win32,60
,,,,,,,,,,,,,,,,,,,,1,1.421000004,5,0.497999907,1,0,1200,693,1,1199,key,11135,2019-10-23_11h07.41.252,SurveyExpMetaMem,3.2.3,Win32,60
,,,,,,,,,,,,,,,,,,,,2,1.551999807,5,0.842000008,1,0,1200,860,1,1199,silk,11135,2019-10-23_11h07.41.252,SurveyExpMetaMem,3.2.3,Win32,60
,,,,,,,,,,,,,,,,,,,,8,1.414999962,3,0.806999922,1,0,1200,983,1,1199,demonic,11135,2019-10-23_11h07.41.252,SurveyExpMetaMem,3.2.3,Win32,60
,,,,,,,,,,,,,,,,,,,,1,1.176000118,5,0.530999899,1,0,1200,766,1,1199,flag,11135,2019-10-23_11h07.41.252,SurveyExpMetaMem,3.2.3,Win32,60
,,,,,,,,,,,,,,,,,,,,7,2.289999962,4,0.898999929,1,0,1200,1170,1,1199,police,11135,2019-10-23_11h07.41.252,SurveyExpMetaMem,3.2.3,Win32,60
,,,,,,,,,,,,,,,,,,,,1,1.068000078,4,2.070999861,1,0,1200,562,1,1199,average,11135,2019-10-23_11h07.41.252,SurveyExpMetaMem,3.2.3,Win32,60
,,,,,,,,,,,,,,,,,,,,7,43.21300006,6,1.325000048,1,0,1200,118,1,1199,conquer,11135,2019-10-23_11h07.41.252,SurveyExpMetaMem,3.2.3,Win32,60
,,,,,,,,,,,,,,,,,,,,3,1.572000027,5,0.86199975,1,0,1200,215,1,1199,salary,11135,2019-10-23_11h07.41.252,SurveyExpMetaMem,3.2.3,Win32,60
,,,,,,,,,,,,,,,,,,,,2,1.671999931,6,1.249000072,1,0,1200,695,1,1199,teacher,11135,2019-10-23_11h07.41.252,SurveyExpMetaMem,3.2.3,Win32,60
,,,,,,,,,,,,,,,,,,,,7,1.486999989,3,1.095999956,1,0,1200,1052,1,1199,angry,11135,2019-10-23_11h07.41.252,SurveyExpMetaMem,3.2.3,Win32,60
,,,,,,,,,,,,,,,,,,,,1,2.303999901,5,0.753999949,1,0,1200,18,1,1199,mail,11135,2019-10-23_11h07.41.252,SurveyExpMetaMem,3.2.3,Win32,60
,,,,,,,,,,,,,,,,,,,,2,1.352999926,6,1.073999882,1,0,1200,751,1,1199,listen,11135,2019-10-23_11h07.41.252,SurveyExpMetaMem,3.2.3,Win32,60
,,,,,,,,,,,,,,,,,,,,7,1.41899991,3,0.523999929,1,0,1200,481,1,1199,melancholy,11135,2019-10-23_11h07.41.252,SurveyExpMetaMem,3.2.3,Win32,60
,,,,,,,,,,,,,,,,,,,,8,3.323999882,2,0.774999857,1,0,1200,1058,1,1199,bloody,11135,2019-10-23_11h07.41.252,SurveyExpMetaMem,3.2.3,Win32,60
,,,,,,,,,,,,,,,,,,,,8,1.383999825,1,0.971999884,1,0,1200,976,1,1199,tumor,11135,2019-10-23_11h07.41.252,SurveyExpMetaMem,3.2.3,Win32,60
,,,,,,,,,,,,,,,,,,,,6,1.602999926,3,0.546000004,1,0,1200,597,1,1199,drool,11135,2019-10-23_11h07.41.252,SurveyExpMetaMem,3.2.3,Win32,60
,,,,,,,,,,,,,,,,,,,,8,1.838000059,2,0.69299984,1,0,1200,1131,1,1199,envious,11135,2019-10-23_11h07.41.252,SurveyExpMetaMem,3.2.3,Win32,60
,,,,,,,,,,,,,,,,,,,,8,8.65199995,8,0.837999821,1,0,1200,827,1,1199,saint,11135,2019-10-23_11h07.41.252,SurveyExpMetaMem,3.2.3,Win32,60
,,,,,,,,,,,,,,,,,,,,7,1.369999886,8,0.341999769,1,0,1200,1039,1,1199,stalk,11135,2019-10-23_11h07.41.252,SurveyExpMetaMem,3.2.3,Win32,60
,,,,,,,,,,,,,,,,,,,,8,8.851000071,2,0.572999954,1,0,1200,920,1,1199,hurt,11135,2019-10-23_11h07.41.252,SurveyExpMetaMem,3.2.3,Win32,60
,,,,,,,,,,,,,,,,,,,,2,1.285999775,4,0.740999937,1,0,1200,495,1,1199,dust,11135,2019-10-23_11h07.41.252,SurveyExpMetaMem,3.2.3,Win32,60
,,,,,,,,,,,,,,,,,,,,3,1.387000084,6,0.773999929,1,0,1200,842,1,1199,breathe,11135,2019-10-23_11h07.41.252,SurveyExpMetaMem,3.2.3,Win32,60
,,,,,,,,,,,,,,,,,,,,6,2.323999882,2,0.589999914,1,0,1200,329,1,1199,worse,11135,2019-10-23_11h07.41.252,SurveyExpMetaMem,3.2.3,Win32,60
,,,,,,,,,,,,,,,,,,,,7,2.268999815,3,0.603999853,1,0,1200,1137,1,1199,knife,11135,2019-10-23_11h07.41.252,SurveyExpMetaMem,3.2.3,Win32,60
,,,,,,,,,,,,,,,,,,,,6,1.355999947,2,1.129999876,1,0,1200,1072,1,1199,bothered,11135,2019-10-23_11h07.41.252,SurveyExpMetaMem,3.2.3,Win32,60
,,,,,,,,,,,,,,,,,,,,4,3.079999924,8,0.726000071,1,0,1200,92,1,1199,justice,11135,2019-10-23_11h07.41.252,SurveyExpMetaMem,3.2.3,Win32,60
,,,,,,,,,,,,,,,,,,,,7,1.335999966,2,0.404999971,1,0,1200,1033,1,1199,horror,11135,2019-10-23_11h07.41.252,SurveyExpMetaMem,3.2.3,Win32,60
,,,,,,,,,,,,,,,,,,,,1,1.837999821,5,0.854000092,1,0,1200,701,1,1199,telephone,11135,2019-10-23_11h07.41.252,SurveyExpMetaMem,3.2.3,Win32,60
,,,,,,,,,,,,,,,,,,,,1,0.919999838,5,0.904000044,1,0,1200,791,1,1199,shoes,11135,2019-10-23_11h07.41.252,SurveyExpMetaMem,3.2.3,Win32,60
,,,,,,,,,,,,,,,,,,,,8,1.24399972,9,0.704999924,1,0,1200,49,1,1199,ecstatic,11135,2019-10-23_11h07.41.252,SurveyExpMetaMem,3.2.3,Win32,60
,,,,,,,,,,,,,,,,,,,,8,7.41899991,3,0.895999908,1,0,1200,1193,1,1199,damn,11135,2019-10-23_11h07.41.252,SurveyExpMetaMem,3.2.3,Win32,60
,,,,,,,,,,,,,,,,,,,,6,1.578999996,2,0.392999887,1,0,1200,1146,1,1199,bug,11135,2019-10-23_11h07.41.252,SurveyExpMetaMem,3.2.3,Win32,60
,,,,,,,,,,,,,,,,,,,,6,1.902999878,9,0.414999723,1,0,1200,197,1,1199,happy,11135,2019-10-23_11h07.41.252,SurveyExpMetaMem,3.2.3,Win32,60
,,,,,,,,,,,,,,,,,,,,7,2.485999823,2,0.510999918,1,0,1200,356,1,1199,mucous,11135,2019-10-23_11h07.41.252,SurveyExpMetaMem,3.2.3,Win32,60
,,,,,,,,,,,,,,,,,,,,9,1.477999926,4,2.313999891,1,0,1200,1186,1,1199,goddamn,11135,2019-10-23_11h07.41.252,SurveyExpMetaMem,3.2.3,Win32,60
,,,,,,,,,,,,,,,,,,,,1,1.05099988,5,0.45600009,1,0,1200,747,1,1199,furniture,11135,2019-10-23_11h07.41.252,SurveyExpMetaMem,3.2.3,Win32,60
,,,,,,,,,,,,,,,,,,,,1,0.96999979,5,0.465999842,1,0,1200,596,1,1199,factory,11135,2019-10-23_11h07.41.252,SurveyExpMetaMem,3.2.3,Win32,60
,,,,,,,,,,,,,,,,,,,,3,34.61800003,8,0.592999935,1,0,1200,186,1,1199,holiday,11135,2019-10-23_11h07.41.252,SurveyExpMetaMem,3.2.3,Win32,60
,,,,,,,,,,,,,,,,,,,,1,3.524999857,7,0.703000069,1,0,1200,549,1,1199,beet,11135,2019-10-23_11h07.41.252,SurveyExpMetaMem,3.2.3,Win32,60
,,,,,,,,,,,,,,,,,,,,2,1.652999878,4,1.19299984,1,0,1200,561,1,1199,plain,11135,2019-10-23_11h07.41.252,SurveyExpMetaMem,3.2.3,Win32,60
,,,,,,,,,,,,,,,,,,,,3,1.392999887,7,1.27699995,1,0,1200,856,1,1199,leisurely,11135,2019-10-23_11h07.41.252,SurveyExpMetaMem,3.2.3,Win32,60
,,,,,,,,,,,,,,,,,,,,1,0.92599988,5,0.299000025,1,0,1200,770,1,1199,buffalo,11135,2019-10-23_11h07.41.252,SurveyExpMetaMem,3.2.3,Win32,60
,,,,,,,,,,,,,,,,,,,,5,1.9599998,3,1.374999762,1,0,1200,430,1,1199,cancel,11135,2019-10-23_11h07.41.252,SurveyExpMetaMem,3.2.3,Win32,60
,,,,,,,,,,,,,,,,,,,,7,2.940999746,8,0.328999996,1,0,1200,26,1,1199,inspired,11135,2019-10-23_11h07.41.252,SurveyExpMetaMem,3.2.3,Win32,60
,,,,,,,,,,,,,,,,,,,,4,1.803999901,8,0.573999882,1,0,1200,176,1,1199,champ,11135,2019-10-23_11h07.41.252,SurveyExpMetaMem,3.2.3,Win32,60
,,,,,,,,,,,,,,,,,,,,4,2.236999989,8,1.524999857,1,0,1200,896,1,1199,cuddle,11135,2019-10-23_11h07.41.252,SurveyExpMetaMem,3.2.3,Win32,60
,,,,,,,,,,,,,,,,,,,,1,1.421000004,5,0.644999743,1,0,1200,633,1,1199,cattle,11135,2019-10-23_11h07.41.252,SurveyExpMetaMem,3.2.3,Win32,60
,,,,,,,,,,,,,,,,,,,,7,3.8349998,3,0.976999998,1,0,1200,573,1,1199,cease,11135,2019-10-23_11h07.41.252,SurveyExpMetaMem,3.2.3,Win32,60
,,,,,,,,,,,,,,,,,,,,7,2.301999807,3,0.947999954,1,0,1200,545,1,1199,tar,11135,2019-10-23_11h07.41.252,SurveyExpMetaMem,3.2.3,Win32,60
,,,,,,,,,,,,,,,,,,,,2,1.220000029,7,1.859999895,1,0,1200,639,1,1199,outlet,11135,2019-10-23_11h07.41.252,SurveyExpMetaMem,3.2.3,Win32,60
,,,,,,,,,,,,,,,,,,,,7,2.619999886,3,0.930999756,1,0,1200,373,1,1199,ignorance,11135,2019-10-23_11h07.41.252,SurveyExpMetaMem,3.2.3,Win32,60
,,,,,,,,,,,,,,,,,,,,2,1.727999926,5,1.739000082,1,0,1200,726,1,1199,crackers,11135,2019-10-23_11h07.41.252,SurveyExpMetaMem,3.2.3,Win32,60
,,,,,,,,,,,,,,,,,,,,3,14.83599997,8,0.788999796,1,0,1200,881,1,1199,protected,11135,2019-10-23_11h07.41.252,SurveyExpMetaMem,3.2.3,Win32,60
,,,,,,,,,,,,,,,,,,,,7,1.420000076,2,1.020999908,1,0,1200,1035,1,1199,expel,11135,2019-10-23_11h07.41.252,SurveyExpMetaMem,3.2.3,Win32,60
,,,,,,,,,,,,,,,,,,,,7,4.768999815,3,0.655999899,1,0,1200,581,1,1199,dork,11135,2019-10-23_11h07.41.252,SurveyExpMetaMem,3.2.3,Win32,60
,,,,,,,,,,,,,,,,,,,,4,1.467999935,2,1.604999781,1,0,1200,1187,1,1199,drill,11135,2019-10-23_11h07.41.252,SurveyExpMetaMem,3.2.3,Win32,60
,,,,,,,,,,,,,,,,,,,,3,1.190999985,6,0.838000059,1,0,1200,787,1,1199,dawn,11135,2019-10-23_11h07.41.252,SurveyExpMetaMem,3.2.3,Win32,60
,,,,,,,,,,,,,,,,,,,,4,1.736000061,3,0.697999954,1,0,1200,1162,1,1199,baffle,11135,2019-10-23_11h07.41.252,SurveyExpMetaMem,3.2.3,Win32,60
,,,,,,,,,,,,,,,,,,,,8,1.638999939,2,0.638000011,1,0,1200,1037,1,1199,scared,11135,2019-10-23_11h07.41.252,SurveyExpMetaMem,3.2.3,Win32,60
,,,,,,,,,,,,,,,,,,,,6,1.619999886,8,0.539999723,1,0,1200,120,1,1199,imaginative,11135,2019-10-23_11h07.41.252,SurveyExpMetaMem,3.2.3,Win32,60
,,,,,,,,,,,,,,,,,,,,7,18.83099985,8,0.164000034,1,0,1200,193,1,1199,party,11135,2019-10-23_11h07.41.252,SurveyExpMetaMem,3.2.3,Win32,60
,,,,,,,,,,,,,,,,,,,,8,1.152999878,9,1.104999781,1,0,1200,264,1,1199,thong,11135,2019-10-23_11h07.41.252,SurveyExpMetaMem,3.2.3,Win32,60
,,,,,,,,,,,,,,,,,,,,7,6.769000053,4,0.970999956,1,0,1200,422,1,1199,doubtful,11135,2019-10-23_11h07.41.252,SurveyExpMetaMem,3.2.3,Win32,60
,,,,,,,,,,,,,,,,,,,,6,1.438999891,8,0.836999893,1,0,1200,147,1,1199,cure,11135,2019-10-23_11h07.41.252,SurveyExpMetaMem,3.2.3,Win32,60
,,,,,,,,,,,,,,,,,,,,8,1.16899991,3,0.586999893,1,0,1200,1000,1,1199,threat,11135,2019-10-23_11h07.41.252,SurveyExpMetaMem,3.2.3,Win32,60
,,,,,,,,,,,,,,,,,,,,1,1.239999771,5,0.487999916,1,0,1200,714,1,1199,courtyard,11135,2019-10-23_11h07.41.252,SurveyExpMetaMem,3.2.3,Win32,60
,,,,,,,,,,,,,,,,,,,,7,6.901000023,4,1.326999903,1,0,1200,1199,1,1199,expensive,11135,2019-10-23_11h07.41.252,SurveyExpMetaMem,3.2.3,Win32,60
,,,,,,,,,,,,,,,,,,,,6,1.642999887,5,0.157999992,1,0,1200,560,1,1199,spurn,11135,2019-10-23_11h07.41.252,SurveyExpMetaMem,3.2.3,Win32,60
,,,,,,,,,,,,,,,,,,,,2,1.480999708,7,1.309000015,1,0,1200,161,1,1199,limousine,11135,2019-10-23_11h07.41.252,SurveyExpMetaMem,3.2.3,Win32,60
,,,,,,,,,,,,,,,,,,,,6,1.470999956,3,0.573999882,1,0,1200,454,1,1199,damp,11135,2019-10-23_11h07.41.252,SurveyExpMetaMem,3.2.3,Win32,60
,,,,,,,,,,,,,,,,,,,,8,1.296999931,2,0.805000067,1,0,1200,979,1,1199,harassment,11135,2019-10-23_11h07.41.252,SurveyExpMetaMem,3.2.3,Win32,60
,,,,,,,,,,,,,,,,,,,,9,1.40199995,2,1.125999928,1,0,1200,912,1,1199,rabies,11135,2019-10-23_11h07.41.252,SurveyExpMetaMem,3.2.3,Win32,60
,,,,,,,,,,,,,,,,,,,,6,1.919999838,3,0.972999811,1,0,1200,587,1,1199,dissolve,11135,2019-10-23_11h07.41.252,SurveyExpMetaMem,3.2.3,Win32,60
,,,,,,,,,,,,,,,,,,,,7,1.338999987,3,0.663999796,1,0,1200,371,1,1199,weakness,11135,2019-10-23_11h07.41.252,SurveyExpMetaMem,3.2.3,Win32,60
,,,,,,,,,,,,,,,,,,,,2,1.419999838,5,0.805000067,1,0,1200,677,1,1199,handwriting,11135,2019-10-23_11h07.41.252,SurveyExpMetaMem,3.2.3,Win32,60
,,,,,,,,,,,,,,,,,,,,4,2.128000021,8,0.604999781,1,0,1200,793,1,1199,virtue,11135,2019-10-23_11h07.41.252,SurveyExpMetaMem,3.2.3,Win32,60
,,,,,,,,,,,,,,,,,,,,8,1.29399991,2,0.822000027,1,0,1200,1048,1,1199,paranoid,11135,2019-10-23_11h07.41.252,SurveyExpMetaMem,3.2.3,Win32,60
,,,,,,,,,,,,,,,,,,,,7,1.244999886,2,1.653999805,1,0,1200,471,1,1199,chump,11135,2019-10-23_11h07.41.252,SurveyExpMetaMem,3.2.3,Win32,60
,,,,,,,,,,,,,,,,,,,,7,1.376999855,3,1.555999994,1,0,1200,1027,1,1199,criticism,11135,2019-10-23_11h07.41.252,SurveyExpMetaMem,3.2.3,Win32,60
,,,,,,,,,,,,,,,,,,,,4,1.921000004,7,0.718999863,1,0,1200,846,1,1199,able,11135,2019-10-23_11h07.41.252,SurveyExpMetaMem,3.2.3,Win32,60
,,,,,,,,,,,,,,,,,,,,2,1.444000006,5,0.82799983,1,0,1200,228,1,1199,suite,11135,2019-10-23_11h07.41.252,SurveyExpMetaMem,3.2.3,Win32,60
,,,,,,,,,,,,,,,,,,,,1,9.03399992,5,0.582999945,1,0,1200,601,1,1199,roof,11135,2019-10-23_11h07.41.252,SurveyExpMetaMem,3.2.3,Win32,60
,,,,,,,,,,,,,,,,,,,,2,1.055000067,8,0.879999876,1,0,1200,812,1,1199,harp,11135,2019-10-23_11h07.41.252,SurveyExpMetaMem,3.2.3,Win32,60
,,,,,,,,,,,,,,,,,,,,7,1.387000084,8,0.336999893,1,0,1200,275,1,1199,brilliant,11135,2019-10-23_11h07.41.252,SurveyExpMetaMem,3.2.3,Win32,60
,,,,,,,,,,,,,,,,,,,,6,29.76600003,3,0.423000097,1,0,1200,1013,1,1199,guilty,11135,2019-10-23_11h07.41.252,SurveyExpMetaMem,3.2.3,Win32,60
,,,,,,,,,,,,,,,,,,,,3,1.395999908,5,0.704999924,1,0,1200,709,1,1199,ancestor,11135,2019-10-23_11h07.41.252,SurveyExpMetaMem,3.2.3,Win32,60
,,,,,,,,,,,,,,,,,,,,4,1.446999788,3,0.801999807,1,0,1200,1173,1,1199,lurk,11135,2019-10-23_11h07.41.252,SurveyExpMetaMem,3.2.3,Win32,60
,,,,,,,,,,,,,,,,,,,,7,1.539999962,3,0.524999857,1,0,1200,919,1,1199,loss,11135,2019-10-23_11h07.41.252,SurveyExpMetaMem,3.2.3,Win32,60
,,,,,,,,,,,,,,,,,,,,1,1.156999826,5,0.523999929,1,0,1200,626,1,1199,pan,11135,2019-10-23_11h07.41.252,SurveyExpMetaMem,3.2.3,Win32,60
,,,,,,,,,,,,,,,,,,,,6,1.144999981,7,0.707000017,1,0,1200,876,1,1199,politeness,11135,2019-10-23_11h07.41.252,SurveyExpMetaMem,3.2.3,Win32,60
,,,,,,,,,,,,,,,,,,,,7,1.129999876,8,0.453999996,1,0,1200,135,1,1199,applause,11135,2019-10-23_11h07.41.252,SurveyExpMetaMem,3.2.3,Win32,60
,,,,,,,,,,,,,,,,,,,,7,1.740999937,3,0.522999763,1,0,1200,374,1,1199,sluggish,11135,2019-10-23_11h07.41.252,SurveyExpMetaMem,3.2.3,Win32,60
,,,,,,,,,,,,,,,,,,,,5,2.639999866,7,0.587999821,1,0,1200,837,1,1199,responsible,11135,2019-10-23_11h07.41.252,SurveyExpMetaMem,3.2.3,Win32,60
,,,,,,,,,,,,,,,,,,,,2,1.275999784,6,1.171000004,1,0,1200,817,1,1199,countryside,11135,2019-10-23_11h07.41.252,SurveyExpMetaMem,3.2.3,Win32,60
,,,,,,,,,,,,,,,,,,,,6,1.845999956,7,0.488999844,1,0,1200,188,1,1199,profit,11135,2019-10-23_11h07.41.252,SurveyExpMetaMem,3.2.3,Win32,60
,,,,,,,,,,,,,,,,,,,,7,1.203000069,3,0.463000059,1,0,1200,1010,1,1199,arson,11135,2019-10-23_11h07.41.252,SurveyExpMetaMem,3.2.3,Win32,60
,,,,,,,,,,,,,,,,,,,,2,1.820999861,4,1.513999939,1,0,1200,263,1,1199,answer,11135,2019-10-23_11h07.41.252,SurveyExpMetaMem,3.2.3,Win32,60
,,,,,,,,,,,,,,,,,,,,3,10.73699999,4,1.412999868,1,0,1200,1167,1,1199,bribe,11135,2019-10-23_11h07.41.252,SurveyExpMetaMem,3.2.3,Win32,60
,,,,,,,,,,,,,,,,,,,,7,1.626999855,8,0.254999876,1,0,1200,60,1,1199,bikini,11135,2019-10-23_11h07.41.252,SurveyExpMetaMem,3.2.3,Win32,60
,,,,,,,,,,,,,,,,,,,,3,2.354999781,5,0.697999954,1,0,1200,629,1,1199,barn,11135,2019-10-23_11h07.41.252,SurveyExpMetaMem,3.2.3,Win32,60
,,,,,,,,,,,,,,,,,,,,6,1.286000013,3,0.621999979,1,0,1200,574,1,1199,distracted,11135,2019-10-23_11h07.41.252,SurveyExpMetaMem,3.2.3,Win32,60
,,,,,,,,,,,,,,,,,,,,7,1.878999949,3,0.611999989,1,0,1200,974,1,1199,roach,11135,2019-10-23_11h07.41.252,SurveyExpMetaMem,3.2.3,Win32,60
,,,,,,,,,,,,,,,,,,,,1,1.199999809,5,0.622999907,1,0,1200,642,1,1199,newspaper,11135,2019-10-23_11h07.41.252,SurveyExpMetaMem,3.2.3,Win32,60
,,,,,,,,,,,,,,,,,,,,1,1.246999979,6,0.832999945,1,0,1200,65,1,1199,restaurant,11135,2019-10-23_11h07.41.252,SurveyExpMetaMem,3.2.3,Win32,60
,,,,,,,,,,,,,,,,,,,,7,1.690000057,4,0.888000011,1,0,1200,470,1,1199,cynical,11135,2019-10-23_11h07.41.252,SurveyExpMetaMem,3.2.3,Win32,60
,,,,,,,,,,,,,,,,,,,,2,1.204999924,6,0.704999924,1,0,1200,644,1,1199,farm,11135,2019-10-23_11h07.41.252,SurveyExpMetaMem,3.2.3,Win32,60
,,,,,,,,,,,,,,,,,,,,1,1.230999708,5,0.572000027,1,0,1200,706,1,1199,cat,11135,2019-10-23_11h07.41.252,SurveyExpMetaMem,3.2.3,Win32,60
,,,,,,,,,,,,,,,,,,,,4,1.770999908,7,0.664000034,1,0,1200,158,1,1199,engage,11135,2019-10-23_11h07.41.252,SurveyExpMetaMem,3.2.3,Win32,60
,,,,,,,,,,,,,,,,,,,,8,1.52699995,3,0.673999786,1,0,1200,344,1,1199,pessimistic,11135,2019-10-23_11h07.41.252,SurveyExpMetaMem,3.2.3,Win32,60
,,,,,,,,,,,,,,,,,,,,6,2.804999828,6,1.445999861,1,0,1200,61,1,1199,zoom,11135,2019-10-23_11h07.41.252,SurveyExpMetaMem,3.2.3,Win32,60
,,,,,,,,,,,,,,,,,,,,7,1.342000008,3,0.725999832,1,0,1200,415,1,1199,grime,11135,2019-10-23_11h07.41.252,SurveyExpMetaMem,3.2.3,Win32,60
,,,,,,,,,,,,,,,,,,,,6,1.552999973,2,0.713999987,1,0,1200,1083,1,1199,delayed,11135,2019-10-23_11h07.41.252,SurveyExpMetaMem,3.2.3,Win32,60
,,,,,,,,,,,,,,,,,,,,6,13.33999991,9,0.98300004,1,0,1200,884,1,1199,grateful,11135,2019-10-23_11h07.41.252,SurveyExpMetaMem,3.2.3,Win32,60
,,,,,,,,,,,,,,,,,,,,8,1.118999958,9,0.207000017,1,0,1200,127,1,1199,glamorous,11135,2019-10-23_11h07.41.252,SurveyExpMetaMem,3.2.3,Win32,60
,,,,,,,,,,,,,,,,,,,,9,1.759999752,1,0.711999893,1,0,1200,926,1,1199,dead,11135,2019-10-23_11h07.41.252,SurveyExpMetaMem,3.2.3,Win32,60
,,,,,,,,,,,,,,,,,,,,8,2.194999933,2,0.587999821,1,0,1200,1022,1,1199,creepy,11135,2019-10-23_11h07.41.252,SurveyExpMetaMem,3.2.3,Win32,60
,,,,,,,,,,,,,,,,,,,,8,1.792999983,2,1.187000036,1,0,1200,320,1,1199,deformed,11135,2019-10-23_11h07.41.252,SurveyExpMetaMem,3.2.3,Win32,60
,,,,,,,,,,,,,,,,,,,,7,2.674999952,6,0.897000074,1,0,1200,46,1,1199,god,11135,2019-10-23_11h07.41.252,SurveyExpMetaMem,3.2.3,Win32,60
,,,,,,,,,,,,,,,,,,,,8,1.643999815,7,1.058000088,1,0,1200,141,1,1199,surprise,11135,2019-10-23_11h07.41.252,SurveyExpMetaMem,3.2.3,Win32,60
,,,,,,,,,,,,,,,,,,,,6,1.45299983,7,0.687999964,1,0,1200,875,1,1199,fluffy,11135,2019-10-23_11h07.41.252,SurveyExpMetaMem,3.2.3,Win32,60
,,,,,,,,,,,,,,,,,,,,7,1.123999834,1,0.586999893,1,0,1200,967,1,1199,horrible,11135,2019-10-23_11h07.41.252,SurveyExpMetaMem,3.2.3,Win32,60
,,,,,,,,,,,,,,,,,,,,8,4.103999853,2,0.796999931,1,0,1200,1018,1,1199,distress,11135,2019-10-23_11h07.41.252,SurveyExpMetaMem,3.2.3,Win32,60
,,,,,,,,,,,,,,,,,,,,2,1.519000053,7,0.996999979,1,0,1200,740,1,1199,groceries,11135,2019-10-23_11h07.41.252,SurveyExpMetaMem,3.2.3,Win32,60
,,,,,,,,,,,,,,,,,,,,3,1.417999983,8,0.761999846,1,0,1200,820,1,1199,oxygen,11135,2019-10-23_11h07.41.252,SurveyExpMetaMem,3.2.3,Win32,60
,,,,,,,,,,,,,,,,,,,,8,1.027999878,3,0.826999903,1,0,1200,1140,1,1199,blood,11135,2019-10-23_11h07.41.252,SurveyExpMetaMem,3.2.3,Win32,60
,,,,,,,,,,,,,,,,,,,,5,5.789999962,5,0.122999907,1,0,1200,564,1,1199,wane,11135,2019-10-23_11h07.41.252,SurveyExpMetaMem,3.2.3,Win32,60
,,,,,,,,,,,,,,,,,,,,6,2.261000156,7,0.248999834,1,0,1200,231,1,1199,cherish,11135,2019-10-23_11h07.41.252,SurveyExpMetaMem,3.2.3,Win32,60
,,,,,,,,,,,,,,,,,,,,2,1.750999928,6,0.961999893,1,0,1200,610,1,1199,miniature,11135,2019-10-23_11h07.41.252,SurveyExpMetaMem,3.2.3,Win32,60
,,,,,,,,,,,,,,,,,,,,1,1.187999725,5,0.521999836,1,0,1200,738,1,1199,horse,11135,2019-10-23_11h07.41.252,SurveyExpMetaMem,3.2.3,Win32,60
,,,,,,,,,,,,,,,,,,,,7,1.919999838,9,0.31099987,1,0,1200,297,1,1199,pleasure,11135,2019-10-23_11h07.41.252,SurveyExpMetaMem,3.2.3,Win32,60
,,,,,,,,,,,,,,,,,,,,8,1.486000061,3,0.43900013,1,0,1200,1106,1,1199,pushy,11135,2019-10-23_11h07.41.252,SurveyExpMetaMem,3.2.3,Win32,60
,,,,,,,,,,,,,,,,,,,,2,1.66899991,7,0.762999773,1,0,1200,888,1,1199,refreshment,11135,2019-10-23_11h07.41.252,SurveyExpMetaMem,3.2.3,Win32,60
,,,,,,,,,,,,,,,,,,,,1,1.753999949,6,0.803999901,1,0,1200,75,1,1199,actor,11135,2019-10-23_11h07.41.252,SurveyExpMetaMem,3.2.3,Win32,60
,,,,,,,,,,,,,,,,,,,,2,1.670999765,4,4.279999971,1,0,1200,1093,1,1199,hive,11135,2019-10-23_11h07.41.252,SurveyExpMetaMem,3.2.3,Win32,60
,,,,,,,,,,,,,,,,,,,,1,1.234999895,5,0.605000019,1,0,1200,646,1,1199,wear,11135,2019-10-23_11h07.41.252,SurveyExpMetaMem,3.2.3,Win32,60
,,,,,,,,,,,,,,,,,,,,2,1.394000053,4,1.089999914,1,0,1200,280,1,1199,cookout,11135,2019-10-23_11h07.41.252,SurveyExpMetaMem,3.2.3,Win32,60
,,,,,,,,,,,,,,,,,,,,2,2.319000006,6,0.821000099,1,0,1200,750,1,1199,porpoise,11135,2019-10-23_11h07.41.252,SurveyExpMetaMem,3.2.3,Win32,60
,,,,,,,,,,,,,,,,,,,,5,2.306999922,5,0.243999958,1,0,1200,145,1,1199,me,11135,2019-10-23_11h07.41.252,SurveyExpMetaMem,3.2.3,Win32,60
,,,,,,,,,,,,,,,,,,,,3,178.1670001,7,0.597999811,1,0,1200,605,1,1199,year,11135,2019-10-23_11h07.41.252,SurveyExpMetaMem,3.2.3,Win32,60
,,,,,,,,,,,,,,,,,,,,1,1.161000013,5,0.39199996,1,0,1200,704,1,1199,flute,11135,2019-10-23_11h07.41.252,SurveyExpMetaMem,3.2.3,Win32,60
,,,,,,,,,,,,,,,,,,,,7,8.066999912,6,0.875999928,1,0,1200,583,1,1199,obey,11135,2019-10-23_11h07.41.252,SurveyExpMetaMem,3.2.3,Win32,60
,,,,,,,,,,,,,,,,,,,,8,1.878000021,2,0.496999979,1,0,1200,902,1,1199,rejected,11135,2019-10-23_11h07.41.252,SurveyExpMetaMem,3.2.3,Win32,60
,,,,,,,,,,,,,,,,,,,,8,1.728999853,9,0.272999763,1,0,1200,82,1,1199,stunning,11135,2019-10-23_11h07.41.252,SurveyExpMetaMem,3.2.3,Win32,60
,,,,,,,,,,,,,,,,,,,,4,1.629999876,7,0.519999981,1,0,1200,685,1,1199,makeup,11135,2019-10-23_11h07.41.252,SurveyExpMetaMem,3.2.3,Win32,60
,,,,,,,,,,,,,,,,,,,,2,1.374000072,5,0.360999823,1,0,1200,557,1,1199,class,11135,2019-10-23_11h07.41.252,SurveyExpMetaMem,3.2.3,Win32,60
,,,,,,,,,,,,,,,,,,,,4,1.704999924,7,0.616999865,1,0,1200,85,1,1199,like,11135,2019-10-23_11h07.41.252,SurveyExpMetaMem,3.2.3,Win32,60
,,,,,,,,,,,,,,,,,,,,8,25.38499975,2,0.553999901,1,0,1200,981,1,1199,rage,11135,2019-10-23_11h07.41.252,SurveyExpMetaMem,3.2.3,Win32,60
,,,,,,,,,,,,,,,,,,,,4,1.600999832,8,0.796000004,1,0,1200,833,1,1199,nice,11135,2019-10-23_11h07.41.252,SurveyExpMetaMem,3.2.3,Win32,60
,,,,,,,,,,,,,,,,,,,,8,1.579999924,2,1.010999918,1,0,1200,462,1,1199,shallow,11135,2019-10-23_11h07.41.252,SurveyExpMetaMem,3.2.3,Win32,60
,,,,,,,,,,,,,,,,,,,,7,1.257999897,1,0.589999914,1,0,1200,509,1,1199,ash,11135,2019-10-23_11h07.41.252,SurveyExpMetaMem,3.2.3,Win32,60
,,,,,,,,,,,,,,,,,,,,8,2.43900013,1,0.646999836,1,0,1200,975,1,1199,insecure,11135,2019-10-23_11h07.41.252,SurveyExpMetaMem,3.2.3,Win32,60
,,,,,,,,,,,,,,,,,,,,9,1.302999973,1,0.436999798,1,0,1200,1,1,1199,fuck,11135,2019-10-23_11h07.41.252,SurveyExpMetaMem,3.2.3,Win32,60
,,,,,,,,,,,,,,,,,,,,7,5.578999996,4,0.562999964,1,0,1200,532,1,1199,recede,11135,2019-10-23_11h07.41.252,SurveyExpMetaMem,3.2.3,Win32,60
,,,,,,,,,,,,,,,,,,,,7,2.90899992,3,0.592000008,1,0,1200,980,1,1199,liar,11135,2019-10-23_11h07.41.252,SurveyExpMetaMem,3.2.3,Win32,60
,,,,,,,,,,,,,,,,,,,,8,1.006999969,2,0.652999878,1,0,1200,412,1,1199,mucus,11135,2019-10-23_11h07.41.252,SurveyExpMetaMem,3.2.3,Win32,60
,,,,,,,,,,,,,,,,,,,,6,2.133999825,8,0.342000008,1,0,1200,209,1,1199,husband,11135,2019-10-23_11h07.41.252,SurveyExpMetaMem,3.2.3,Win32,60
,,,,,,,,,,,,,,,,,,,,7,1.359999895,8,0.238999844,1,0,1200,792,1,1199,moral,11135,2019-10-23_11h07.41.252,SurveyExpMetaMem,3.2.3,Win32,60
,,,,,,,,,,,,,,,,,,,,4,1.451999903,7,0.644999981,1,0,1200,227,1,1199,musician,11135,2019-10-23_11h07.41.252,SurveyExpMetaMem,3.2.3,Win32,60
,,,,,,,,,,,,,,,,,,,,7,1.447000027,4,0.51699996,1,0,1200,388,1,1199,mildew,11135,2019-10-23_11h07.41.252,SurveyExpMetaMem,3.2.3,Win32,60
,,,,,,,,,,,,,,,,,,,,3,37.7329998,6,2.003999949,1,0,1200,168,1,1199,mate,11135,2019-10-23_11h07.41.252,SurveyExpMetaMem,3.2.3,Win32,60
,,,,,,,,,,,,,,,,,,,,2,2.386999846,5,0.510999918,1,0,1200,257,1,1199,cockpit,11135,2019-10-23_11h07.41.252,SurveyExpMetaMem,3.2.3,Win32,60
,,,,,,,,,,,,,,,,,,,,2,1.588999987,5,0.772999763,1,0,1200,165,1,1199,sizzle,11135,2019-10-23_11h07.41.252,SurveyExpMetaMem,3.2.3,Win32,60
,,,,,,,,,,,,,,,,,,,,6,1.402999878,3,0.337999821,1,0,1200,365,1,1199,discouraged,11135,2019-10-23_11h07.41.252,SurveyExpMetaMem,3.2.3,Win32,60
,,,,,,,,,,,,,,,,,,,,3,3.06099987,6,1.145999908,1,0,1200,56,1,1199,spice,11135,2019-10-23_11h07.41.252,SurveyExpMetaMem,3.2.3,Win32,60
,,,,,,,,,,,,,,,,,,,,1,1.171000004,5,0.479000092,1,0,1200,819,1,1199,sheep,11135,2019-10-23_11h07.41.252,SurveyExpMetaMem,3.2.3,Win32,60
,,,,,,,,,,,,,,,,,,,,1,0.904999733,6,0.740999937,1,0,1200,874,1,1199,butterfly,11135,2019-10-23_11h07.41.252,SurveyExpMetaMem,3.2.3,Win32,60
,,,,,,,,,,,,,,,,,,,,7,1.607999802,4,1.006000042,1,0,1200,922,1,1199,nightmare,11135,2019-10-23_11h07.41.252,SurveyExpMetaMem,3.2.3,Win32,60
,,,,,,,,,,,,,,,,,,,,2,1.44299984,6,2.006000042,1,0,1200,10,1,1199,cheerleader,11135,2019-10-23_11h07.41.252,SurveyExpMetaMem,3.2.3,Win32,60
,,,,,,,,,,,,,,,,,,,,7,4.440000057,3,0.811999798,1,0,1200,1147,1,1199,demand,11135,2019-10-23_11h07.41.252,SurveyExpMetaMem,3.2.3,Win32,60
,,,,,,,,,,,,,,,,,,,,4,1.636999846,8,0.572999954,1,0,1200,278,1,1199,king,11135,2019-10-23_11h07.41.252,SurveyExpMetaMem,3.2.3,Win32,60
,,,,,,,,,,,,,,,,,,,,8,2.024999857,3,0.562999964,1,0,1200,348,1,1199,impotent,11135,2019-10-23_11h07.41.252,SurveyExpMetaMem,3.2.3,Win32,60
,,,,,,,,,,,,,,,,,,,,4,24.27800012,8,0.729999781,1,0,1200,835,1,1199,helpful,11135,2019-10-23_11h07.41.252,SurveyExpMetaMem,3.2.3,Win32,60
,,,,,,,,,,,,,,,,,,,,7,2.967999935,1,1.359999895,1,0,1200,406,1,1199,tired,11135,2019-10-23_11h07.41.252,SurveyExpMetaMem,3.2.3,Win32,60
,,,,,,,,,,,,,,,,,,,,8,1.517999887,2,0.526000023,1,0,1200,338,1,1199,obesity,11135,2019-10-23_11h07.41.252,SurveyExpMetaMem,3.2.3,Win32,60
,,,,,,,,,,,,,,,,,,,,7,1.136999846,2,0.532999992,1,0,1200,1082,1,1199,hazard,11135,2019-10-23_11h07.41.252,SurveyExpMetaMem,3.2.3,Win32,60
,,,,,,,,,,,,,,,,,,,,2,1.291999817,6,0.937999964,1,0,1200,665,1,1199,read,11135,2019-10-23_11h07.41.252,SurveyExpMetaMem,3.2.3,Win32,60
,,,,,,,,,,,,,,,,,,,,7,2.587999821,9,0.223999977,1,0,1200,199,1,1199,laughter,11135,2019-10-23_11h07.41.252,SurveyExpMetaMem,3.2.3,Win32,60
,,,,,,,,,,,,,,,,,,,,7,1.605999947,3,0.704999924,1,0,1200,1154,1,1199,politics,11135,2019-10-23_11h07.41.252,SurveyExpMetaMem,3.2.3,Win32,60
,,,,,,,,,,,,,,,,,,,,8,2.203999996,9,0.770999908,1,0,1200,68,1,1199,perfect,11135,2019-10-23_11h07.41.252,SurveyExpMetaMem,3.2.3,Win32,60
,,,,,,,,,,,,,,,,,,,,2,1.753000021,5,0.45600009,1,0,1200,814,1,1199,dress,11135,2019-10-23_11h07.41.252,SurveyExpMetaMem,3.2.3,Win32,60
,,,,,,,,,,,,,,,,,,,,1,3.705999851,5,0.089999914,1,0,1200,499,1,1199,stop,11135,2019-10-23_11h07.41.252,SurveyExpMetaMem,3.2.3,Win32,60
,,,,,,,,,,,,,,,,,,,,7,4.773999929,2,0.647999763,1,0,1200,924,1,1199,terrible,11135,2019-10-23_11h07.41.252,SurveyExpMetaMem,3.2.3,Win32,60
,,,,,,,,,,,,,,,,,,,,2,1.407000065,5,1.557999849,1,0,1200,73,1,1199,rhythm,11135,2019-10-23_11h07.41.252,SurveyExpMetaMem,3.2.3,Win32,60
,,,,,,,,,,,,,,,,,,,,1,5.85800004,5,1.541999817,1,0,1200,418,1,1199,cheapskate,11135,2019-10-23_11h07.41.252,SurveyExpMetaMem,3.2.3,Win32,60
,,,,,,,,,,,,,,,,,,,,1,1.069999933,5,0.174000025,1,0,1200,659,1,1199,hair,11135,2019-10-23_11h07.41.252,SurveyExpMetaMem,3.2.3,Win32,60
,,,,,,,,,,,,,,,,,,,,1,0.903000116,6,0.130999804,1,0,1200,825,1,1199,swan,11135,2019-10-23_11h07.41.252,SurveyExpMetaMem,3.2.3,Win32,60
,,,,,,,,,,,,,,,,,,,,6,1.957999945,3,0.188999891,1,0,1200,259,1,1199,thin,11135,2019-10-23_11h07.41.252,SurveyExpMetaMem,3.2.3,Win32,60
,,,,,,,,,,,,,,,,,,,,1,1.212999821,5,0.188999891,1,0,1200,608,1,1199,carrot,11135,2019-10-23_11h07.41.252,SurveyExpMetaMem,3.2.3,Win32,60
,,,,,,,,,,,,,,,,,,,,7,1.230999947,3,0.253999949,1,0,1200,1080,1,1199,broken,11135,2019-10-23_11h07.41.252,SurveyExpMetaMem,3.2.3,Win32,60
,,,,,,,,,,,,,,,,,,,,6,1.762999773,2,0.290999889,1,0,1200,519,1,1199,listless,11135,2019-10-23_11h07.41.252,SurveyExpMetaMem,3.2.3,Win32,60
,,,,,,,,,,,,,,,,,,,,9,1.154000044,2,0.381999969,1,0,1200,1073,1,1199,bitch,11135,2019-10-23_11h07.41.252,SurveyExpMetaMem,3.2.3,Win32,60
,,,,,,,,,,,,,,,,,,,,8,2.575000048,3,0.444999933,1,0,1200,931,1,1199,overweight,11135,2019-10-23_11h07.41.252,SurveyExpMetaMem,3.2.3,Win32,60
,,,,,,,,,,,,,,,,,,,,6,1.336999893,7,0.221999884,1,0,1200,1194,1,1199,obsession,11135,2019-10-23_11h07.41.252,SurveyExpMetaMem,3.2.3,Win32,60
,,,,,,,,,,,,,,,,,,,,6,2.402999878,6,0.092999935,1,0,1200,225,1,1199,strong,11135,2019-10-23_11h07.41.252,SurveyExpMetaMem,3.2.3,Win32,60
