mouse_4.x,mouse_4.y,mouse_4.leftButton,mouse_4.midButton,mouse_4.rightButton,mouse.x,mouse.y,mouse.leftButton,mouse.midButton,mouse.rightButton,mouse_2.x,mouse_2.y,mouse_2.leftButton,mouse_2.midButton,mouse_2.rightButton,mouse_3.x,mouse_3.y,mouse_3.leftButton,mouse_3.midButton,mouse_3.rightButton,A_key_resp.keys,A_key_resp.rt,key_resp.keys,key_resp.rt,trials.thisRepN,trials.thisTrialN,trials.thisN,trials.thisIndex,trials.ran,trials.order,word,ParticipantID,date,expName,psychopyVersion,OS,frameRate
0.094444444,-0.162037037,1,0,0,0.094444444,-0.162037037,1,0,0,0.094444444,-0.162037037,1,0,0,0.094444444,-0.162037037,1,0,0,5,4.903000116,5,2.823999882,1,0,1200,719,1,1199,western,11115,2019-10-28_09h09.31.416,SurveyExpMetaMem,3.2.3,Win32,60
,,,,,,,,,,,,,,,,,,,,7,4.43200016,2,2.493000031,1,0,1200,1069,1,1199,defeat,11115,2019-10-28_09h09.31.416,SurveyExpMetaMem,3.2.3,Win32,60
,,,,,,,,,,,,,,,,,,,,5,3.052999973,3,1.14199996,1,0,1200,587,1,1199,dissolve,11115,2019-10-28_09h09.31.416,SurveyExpMetaMem,3.2.3,Win32,60
,,,,,,,,,,,,,,,,,,,,7,4.486999989,2,2.698999882,1,0,1200,363,1,1199,dumb,11115,2019-10-28_09h09.31.416,SurveyExpMetaMem,3.2.3,Win32,60
,,,,,,,,,,,,,,,,,,,,8,2.984999895,8,1.361999989,1,0,1200,73,1,1199,rhythm,11115,2019-10-28_09h09.31.416,SurveyExpMetaMem,3.2.3,Win32,60
,,,,,,,,,,,,,,,,,,,,6,4.503000021,1,0.88499999,1,0,1200,1013,1,1199,guilty,11115,2019-10-28_09h09.31.416,SurveyExpMetaMem,3.2.3,Win32,60
,,,,,,,,,,,,,,,,,,,,7,3.735999823,8,2.092000008,1,0,1200,185,1,1199,flirt,11115,2019-10-28_09h09.31.416,SurveyExpMetaMem,3.2.3,Win32,60
,,,,,,,,,,,,,,,,,,,,8,4.269000053,8,0.441999912,1,0,1200,276,1,1199,pastry,11115,2019-10-28_09h09.31.416,SurveyExpMetaMem,3.2.3,Win32,60
,,,,,,,,,,,,,,,,,,,,5,2,5,0.545000076,1,0,1200,737,1,1199,lamb,11115,2019-10-28_09h09.31.416,SurveyExpMetaMem,3.2.3,Win32,60
,,,,,,,,,,,,,,,,,,,,3,4.386000156,7,1.234000206,1,0,1200,898,1,1199,kindness,11115,2019-10-28_09h09.31.416,SurveyExpMetaMem,3.2.3,Win32,60
,,,,,,,,,,,,,,,,,,,,6,3.778000116,8,0.638000011,1,0,1200,247,1,1199,graduate,11115,2019-10-28_09h09.31.416,SurveyExpMetaMem,3.2.3,Win32,60
,,,,,,,,,,,,,,,,,,,,6,5.256000042,6,1.789999962,1,0,1200,102,1,1199,motorcycle,11115,2019-10-28_09h09.31.416,SurveyExpMetaMem,3.2.3,Win32,60
,,,,,,,,,,,,,,,,,,,,4,4.488999844,8,2.11500001,1,0,1200,896,1,1199,cuddle,11115,2019-10-28_09h09.31.416,SurveyExpMetaMem,3.2.3,Win32,60
,,,,,,,,,,,,,,,,,,,,5,3.460000038,5,0.723999977,1,0,1200,2,1,1199,zealous,11115,2019-10-28_09h09.31.416,SurveyExpMetaMem,3.2.3,Win32,60
,,,,,,,,,,,,,,,,,,,,5,3.036000013,5,0.506000042,1,0,1200,522,1,1199,cleft,11115,2019-10-28_09h09.31.416,SurveyExpMetaMem,3.2.3,Win32,60
,,,,,,,,,,,,,,,,,,,,6,3.146999836,3,1.190000057,1,0,1200,300,1,1199,unhappy,11115,2019-10-28_09h09.31.416,SurveyExpMetaMem,3.2.3,Win32,60
,,,,,,,,,,,,,,,,,,,,6,4.152000189,3,1.323999882,1,0,1200,325,1,1199,disability,11115,2019-10-28_09h09.31.416,SurveyExpMetaMem,3.2.3,Win32,60
,,,,,,,,,,,,,,,,,,,,4,4.039999962,8,1.987999916,1,0,1200,149,1,1199,loved,11115,2019-10-28_09h09.31.416,SurveyExpMetaMem,3.2.3,Win32,60
,,,,,,,,,,,,,,,,,,,,5,4.026000023,5,0.21600008,1,0,1200,24,1,1199,model,11115,2019-10-28_09h09.31.416,SurveyExpMetaMem,3.2.3,Win32,60
,,,,,,,,,,,,,,,,,,,,4,3.237999916,4,1.228999853,1,0,1200,419,1,1199,immature,11115,2019-10-28_09h09.31.416,SurveyExpMetaMem,3.2.3,Win32,60
,,,,,,,,,,,,,,,,,,,,6,2.004000187,2,1.278000116,1,0,1200,1047,1,1199,psycho,11115,2019-10-28_09h09.31.416,SurveyExpMetaMem,3.2.3,Win32,60
,,,,,,,,,,,,,,,,,,,,5,3.486000061,4,0.803999901,1,0,1200,343,1,1199,fever,11115,2019-10-28_09h09.31.416,SurveyExpMetaMem,3.2.3,Win32,60
,,,,,,,,,,,,,,,,,,,,5,2.573000193,6,1.029000044,1,0,1200,786,1,1199,afternoon,11115,2019-10-28_09h09.31.416,SurveyExpMetaMem,3.2.3,Win32,60
,,,,,,,,,,,,,,,,,,,,5,2.058000088,5,0.225000143,1,0,1200,707,1,1199,adapt,11115,2019-10-28_09h09.31.416,SurveyExpMetaMem,3.2.3,Win32,60
,,,,,,,,,,,,,,,,,,,,7,4.412000179,3,0.67599988,1,0,1200,919,1,1199,loss,11115,2019-10-28_09h09.31.416,SurveyExpMetaMem,3.2.3,Win32,60
,,,,,,,,,,,,,,,,,,,,5,6.825000048,2,2.427999973,1,0,1200,956,1,1199,crushed,11115,2019-10-28_09h09.31.416,SurveyExpMetaMem,3.2.3,Win32,60
,,,,,,,,,,,,,,,,,,,,7,1.93900013,9,0.642000198,1,0,1200,173,1,1199,hope,11115,2019-10-28_09h09.31.416,SurveyExpMetaMem,3.2.3,Win32,60
,,,,,,,,,,,,,,,,,,,,5,2.474999905,2,1.460999966,1,0,1200,1044,1,1199,lost,11115,2019-10-28_09h09.31.416,SurveyExpMetaMem,3.2.3,Win32,60
,,,,,,,,,,,,,,,,,,,,6,4.404999971,3,0.731999874,1,0,1200,945,1,1199,demon,11115,2019-10-28_09h09.31.416,SurveyExpMetaMem,3.2.3,Win32,60
,,,,,,,,,,,,,,,,,,,,5,1.763000011,5,0.205999851,1,0,1200,681,1,1199,fig,11115,2019-10-28_09h09.31.416,SurveyExpMetaMem,3.2.3,Win32,60
,,,,,,,,,,,,,,,,,,,,7,3.723999977,3,0.82400012,1,0,1200,921,1,1199,humiliation,11115,2019-10-28_09h09.31.416,SurveyExpMetaMem,3.2.3,Win32,60
,,,,,,,,,,,,,,,,,,,,6,3.071000099,7,0.671999931,1,0,1200,268,1,1199,tickle,11115,2019-10-28_09h09.31.416,SurveyExpMetaMem,3.2.3,Win32,60
,,,,,,,,,,,,,,,,,,,,5,1.836000204,5,0.523000002,1,0,1200,716,1,1199,blouse,11115,2019-10-28_09h09.31.416,SurveyExpMetaMem,3.2.3,Win32,60
,,,,,,,,,,,,,,,,,,,,5,8.003000021,5,0.565000057,1,0,1200,234,1,1199,redeem,11115,2019-10-28_09h09.31.416,SurveyExpMetaMem,3.2.3,Win32,60
,,,,,,,,,,,,,,,,,,,,6,2.136999846,3,0.845000029,1,0,1200,1065,1,1199,slap,11115,2019-10-28_09h09.31.416,SurveyExpMetaMem,3.2.3,Win32,60
,,,,,,,,,,,,,,,,,,,,5,2.657999992,5,0.166000128,1,0,1200,593,1,1199,errand,11115,2019-10-28_09h09.31.416,SurveyExpMetaMem,3.2.3,Win32,60
,,,,,,,,,,,,,,,,,,,,6,1.723999977,6,0.457000017,1,0,1200,57,1,1199,important,11115,2019-10-28_09h09.31.416,SurveyExpMetaMem,3.2.3,Win32,60
,,,,,,,,,,,,,,,,,,,,6,2.736000061,4,0.29700017,1,0,1200,1185,1,1199,shotgun,11115,2019-10-28_09h09.31.416,SurveyExpMetaMem,3.2.3,Win32,60
,,,,,,,,,,,,,,,,,,,,5,2.210000038,3,0.32400012,1,0,1200,1059,1,1199,harsh,11115,2019-10-28_09h09.31.416,SurveyExpMetaMem,3.2.3,Win32,60
,,,,,,,,,,,,,,,,,,,,5,2.476000071,5,0.509000063,1,0,1200,227,1,1199,musician,11115,2019-10-28_09h09.31.416,SurveyExpMetaMem,3.2.3,Win32,60
,,,,,,,,,,,,,,,,,,,,5,1.304000139,5,0.40899992,1,0,1200,16,1,1199,sing,11115,2019-10-28_09h09.31.416,SurveyExpMetaMem,3.2.3,Win32,60
,,,,,,,,,,,,,,,,,,,,5,3.170000076,5,0.144000053,1,0,1200,437,1,1199,blubber,11115,2019-10-28_09h09.31.416,SurveyExpMetaMem,3.2.3,Win32,60
,,,,,,,,,,,,,,,,,,,,5,1.522000074,5,0.389999866,1,0,1200,641,1,1199,writer,11115,2019-10-28_09h09.31.416,SurveyExpMetaMem,3.2.3,Win32,60
,,,,,,,,,,,,,,,,,,,,7,4.746999979,8,0.457999945,1,0,1200,194,1,1199,celebration,11115,2019-10-28_09h09.31.416,SurveyExpMetaMem,3.2.3,Win32,60
,,,,,,,,,,,,,,,,,,,,7,1.793000221,6,0.496000051,1,0,1200,258,1,1199,children,11115,2019-10-28_09h09.31.416,SurveyExpMetaMem,3.2.3,Win32,60
,,,,,,,,,,,,,,,,,,,,7,3.137000084,7,0.373000145,1,0,1200,287,1,1199,optimistic,11115,2019-10-28_09h09.31.416,SurveyExpMetaMem,3.2.3,Win32,60
,,,,,,,,,,,,,,,,,,,,5,1.697000027,5,0.361999989,1,0,1200,479,1,1199,period,11115,2019-10-28_09h09.31.416,SurveyExpMetaMem,3.2.3,Win32,60
,,,,,,,,,,,,,,,,,,,,4,2.437999964,3,0.825000048,1,0,1200,1039,1,1199,stalk,11115,2019-10-28_09h09.31.416,SurveyExpMetaMem,3.2.3,Win32,60
,,,,,,,,,,,,,,,,,,,,6,2.786000013,2,0.496000051,1,0,1200,1110,1,1199,bastard,11115,2019-10-28_09h09.31.416,SurveyExpMetaMem,3.2.3,Win32,60
,,,,,,,,,,,,,,,,,,,,3,2.397000074,3,0.361000061,1,0,1200,1024,1,1199,burn,11115,2019-10-28_09h09.31.416,SurveyExpMetaMem,3.2.3,Win32,60
,,,,,,,,,,,,,,,,,,,,5,2.843000174,5,0.47300005,1,0,1200,523,1,1199,witch,11115,2019-10-28_09h09.31.416,SurveyExpMetaMem,3.2.3,Win32,60
,,,,,,,,,,,,,,,,,,,,5,3.779000044,5,0.726999998,1,0,1200,664,1,1199,quiet,11115,2019-10-28_09h09.31.416,SurveyExpMetaMem,3.2.3,Win32,60
,,,,,,,,,,,,,,,,,,,,5,2.088999987,5,0.156000137,1,0,1200,820,1,1199,oxygen,11115,2019-10-28_09h09.31.416,SurveyExpMetaMem,3.2.3,Win32,60
,,,,,,,,,,,,,,,,,,,,5,3.544999838,5,0.312999964,1,0,1200,589,1,1199,coarse,11115,2019-10-28_09h09.31.416,SurveyExpMetaMem,3.2.3,Win32,60
,,,,,,,,,,,,,,,,,,,,6,3.325000048,6,0.482000113,1,0,1200,836,1,1199,lounge,11115,2019-10-28_09h09.31.416,SurveyExpMetaMem,3.2.3,Win32,60
,,,,,,,,,,,,,,,,,,,,5,2.637000084,5,0.31400013,1,0,1200,1133,1,1199,slip,11115,2019-10-28_09h09.31.416,SurveyExpMetaMem,3.2.3,Win32,60
,,,,,,,,,,,,,,,,,,,,7,2.428999901,7,0.694000006,1,0,1200,824,1,1199,favor,11115,2019-10-28_09h09.31.416,SurveyExpMetaMem,3.2.3,Win32,60
,,,,,,,,,,,,,,,,,,,,3,2.739000082,8,0.971000195,1,0,1200,811,1,1199,tenderness,11115,2019-10-28_09h09.31.416,SurveyExpMetaMem,3.2.3,Win32,60
,,,,,,,,,,,,,,,,,,,,5,1.977999926,5,0.33100009,1,0,1200,306,1,1199,gloom,11115,2019-10-28_09h09.31.416,SurveyExpMetaMem,3.2.3,Win32,60
,,,,,,,,,,,,,,,,,,,,5,1.45299983,5,0.301000118,1,0,1200,531,1,1199,omit,11115,2019-10-28_09h09.31.416,SurveyExpMetaMem,3.2.3,Win32,60
,,,,,,,,,,,,,,,,,,,,6,4.588000059,6,0.358999968,1,0,1200,65,1,1199,restaurant,11115,2019-10-28_09h09.31.416,SurveyExpMetaMem,3.2.3,Win32,60
,,,,,,,,,,,,,,,,,,,,5,3.608999968,5,0.316999912,1,0,1200,750,1,1199,porpoise,11115,2019-10-28_09h09.31.416,SurveyExpMetaMem,3.2.3,Win32,60
,,,,,,,,,,,,,,,,,,,,3,1.975999832,2,1.013000011,1,0,1200,987,1,1199,disgusted,11115,2019-10-28_09h09.31.416,SurveyExpMetaMem,3.2.3,Win32,60
,,,,,,,,,,,,,,,,,,,,4,4.009000063,2,1.371999979,1,0,1200,1115,1,1199,invade,11115,2019-10-28_09h09.31.416,SurveyExpMetaMem,3.2.3,Win32,60
,,,,,,,,,,,,,,,,,,,,5,2.68599987,4,2.259000063,1,0,1200,159,1,1199,teenager,11115,2019-10-28_09h09.31.416,SurveyExpMetaMem,3.2.3,Win32,60
,,,,,,,,,,,,,,,,,,,,7,3.835999966,7,0.72300005,1,0,1200,817,1,1199,countryside,11115,2019-10-28_09h09.31.416,SurveyExpMetaMem,3.2.3,Win32,60
,,,,,,,,,,,,,,,,,,,,5,2.34100008,5,0.175000191,1,0,1200,214,1,1199,revive,11115,2019-10-28_09h09.31.416,SurveyExpMetaMem,3.2.3,Win32,60
,,,,,,,,,,,,,,,,,,,,6,4.538000107,3,0.757999897,1,0,1200,477,1,1199,separate,11115,2019-10-28_09h09.31.416,SurveyExpMetaMem,3.2.3,Win32,60
,,,,,,,,,,,,,,,,,,,,7,5.093999863,2,2.005000114,1,0,1200,358,1,1199,waste,11115,2019-10-28_09h09.31.416,SurveyExpMetaMem,3.2.3,Win32,60
,,,,,,,,,,,,,,,,,,,,5,1.694000006,4,2.220999956,1,0,1200,1035,1,1199,expel,11115,2019-10-28_09h09.31.416,SurveyExpMetaMem,3.2.3,Win32,60
,,,,,,,,,,,,,,,,,,,,5,5.889000177,5,0.615999937,1,0,1200,912,1,1199,rabies,11115,2019-10-28_09h09.31.416,SurveyExpMetaMem,3.2.3,Win32,60
,,,,,,,,,,,,,,,,,,,,5,2.211999893,5,0.174000025,1,0,1200,746,1,1199,proper,11115,2019-10-28_09h09.31.416,SurveyExpMetaMem,3.2.3,Win32,60
,,,,,,,,,,,,,,,,,,,,5,1.523000002,5,0.195999861,1,0,1200,643,1,1199,library,11115,2019-10-28_09h09.31.416,SurveyExpMetaMem,3.2.3,Win32,60
,,,,,,,,,,,,,,,,,,,,5,1.815000057,5,0.383000135,1,0,1200,608,1,1199,carrot,11115,2019-10-28_09h09.31.416,SurveyExpMetaMem,3.2.3,Win32,60
,,,,,,,,,,,,,,,,,,,,6,3.521999836,4,0.707999945,1,0,1200,1053,1,1199,surgery,11115,2019-10-28_09h09.31.416,SurveyExpMetaMem,3.2.3,Win32,60
,,,,,,,,,,,,,,,,,,,,7,4.812000036,3,1.110000134,1,0,1200,954,1,1199,hostage,11115,2019-10-28_09h09.31.416,SurveyExpMetaMem,3.2.3,Win32,60
,,,,,,,,,,,,,,,,,,,,5,4.371999979,5,0.164999962,1,0,1200,332,1,1199,sewage,11115,2019-10-28_09h09.31.416,SurveyExpMetaMem,3.2.3,Win32,60
,,,,,,,,,,,,,,,,,,,,5,2.825999975,5,0.556999922,1,0,1200,468,1,1199,noose,11115,2019-10-28_09h09.31.416,SurveyExpMetaMem,3.2.3,Win32,60
,,,,,,,,,,,,,,,,,,,,6,2.798000097,6,0.301000118,1,0,1200,226,1,1199,prize,11115,2019-10-28_09h09.31.416,SurveyExpMetaMem,3.2.3,Win32,60
,,,,,,,,,,,,,,,,,,,,3,2.452000141,2,0.328000069,1,0,1200,307,1,1199,sick,11115,2019-10-28_09h09.31.416,SurveyExpMetaMem,3.2.3,Win32,60
,,,,,,,,,,,,,,,,,,,,5,2.181000233,4,0.174000025,1,0,1200,528,1,1199,dirt,11115,2019-10-28_09h09.31.416,SurveyExpMetaMem,3.2.3,Win32,60
,,,,,,,,,,,,,,,,,,,,6,4.872000217,3,0.276000023,1,0,1200,455,1,1199,chubby,11115,2019-10-28_09h09.31.416,SurveyExpMetaMem,3.2.3,Win32,60
,,,,,,,,,,,,,,,,,,,,6,2.388999939,6,0.199999809,1,0,1200,161,1,1199,limousine,11115,2019-10-28_09h09.31.416,SurveyExpMetaMem,3.2.3,Win32,60
,,,,,,,,,,,,,,,,,,,,5,2.855000019,7,0.474999905,1,0,1200,787,1,1199,dawn,11115,2019-10-28_09h09.31.416,SurveyExpMetaMem,3.2.3,Win32,60
,,,,,,,,,,,,,,,,,,,,5,2.792000055,5,0.389999866,1,0,1200,766,1,1199,flag,11115,2019-10-28_09h09.31.416,SurveyExpMetaMem,3.2.3,Win32,60
,,,,,,,,,,,,,,,,,,,,4,3.26699996,3,0.84100008,1,0,1200,328,1,1199,disgrace,11115,2019-10-28_09h09.31.416,SurveyExpMetaMem,3.2.3,Win32,60
,,,,,,,,,,,,,,,,,,,,4,4.771000147,2,0.391000032,1,0,1200,314,1,1199,hopeless,11115,2019-10-28_09h09.31.416,SurveyExpMetaMem,3.2.3,Win32,60
,,,,,,,,,,,,,,,,,,,,4,2.030999899,2,0.242000103,1,0,1200,365,1,1199,discouraged,11115,2019-10-28_09h09.31.416,SurveyExpMetaMem,3.2.3,Win32,60
,,,,,,,,,,,,,,,,,,,,7,2.440999985,7,0.542000055,1,0,1200,832,1,1199,candy,11115,2019-10-28_09h09.31.416,SurveyExpMetaMem,3.2.3,Win32,60
,,,,,,,,,,,,,,,,,,,,5,2.565000057,5,0.281999826,1,0,1200,1157,1,1199,slayer,11115,2019-10-28_09h09.31.416,SurveyExpMetaMem,3.2.3,Win32,60
,,,,,,,,,,,,,,,,,,,,5,1.75999999,5,0.282999992,1,0,1200,654,1,1199,brief,11115,2019-10-28_09h09.31.416,SurveyExpMetaMem,3.2.3,Win32,60
,,,,,,,,,,,,,,,,,,,,7,1.993000031,7,0.267000198,1,0,1200,31,1,1199,brownie,11115,2019-10-28_09h09.31.416,SurveyExpMetaMem,3.2.3,Win32,60
,,,,,,,,,,,,,,,,,,,,6,2.167999983,2,0.640000105,1,0,1200,317,1,1199,cry,11115,2019-10-28_09h09.31.416,SurveyExpMetaMem,3.2.3,Win32,60
,,,,,,,,,,,,,,,,,,,,6,2.322000027,7,0.273999929,1,0,1200,105,1,1199,curious,11115,2019-10-28_09h09.31.416,SurveyExpMetaMem,3.2.3,Win32,60
,,,,,,,,,,,,,,,,,,,,5,2.643999815,5,0.243999958,1,0,1200,747,1,1199,furniture,11115,2019-10-28_09h09.31.416,SurveyExpMetaMem,3.2.3,Win32,60
,,,,,,,,,,,,,,,,,,,,5,3.236000061,5,0.277000189,1,0,1200,751,1,1199,listen,11115,2019-10-28_09h09.31.416,SurveyExpMetaMem,3.2.3,Win32,60
,,,,,,,,,,,,,,,,,,,,5,1.144000053,5,0.242000103,1,0,1200,564,1,1199,wane,11115,2019-10-28_09h09.31.416,SurveyExpMetaMem,3.2.3,Win32,60
,,,,,,,,,,,,,,,,,,,,3,2.039999962,2,0.289999962,1,0,1200,1042,1,1199,brutal,11115,2019-10-28_09h09.31.416,SurveyExpMetaMem,3.2.3,Win32,60
,,,,,,,,,,,,,,,,,,,,6,2.022000074,6,0.194000006,1,0,1200,298,1,1199,success,11115,2019-10-28_09h09.31.416,SurveyExpMetaMem,3.2.3,Win32,60
,,,,,,,,,,,,,,,,,,,,7,1.597000122,7,0.213999987,1,0,1200,146,1,1199,congratulations,11115,2019-10-28_09h09.31.416,SurveyExpMetaMem,3.2.3,Win32,60
,,,,,,,,,,,,,,,,,,,,6,3.094000101,6,0.223999977,1,0,1200,783,1,1199,sprinkle,11115,2019-10-28_09h09.31.416,SurveyExpMetaMem,3.2.3,Win32,60
,,,,,,,,,,,,,,,,,,,,8,1.690999985,8,0.171999931,1,0,1200,248,1,1199,win,11115,2019-10-28_09h09.31.416,SurveyExpMetaMem,3.2.3,Win32,60
,,,,,,,,,,,,,,,,,,,,1,4.210000038,5,1.830000162,1,0,1200,521,1,1199,laundry,11115,2019-10-28_09h09.31.416,SurveyExpMetaMem,3.2.3,Win32,60
,,,,,,,,,,,,,,,,,,,,5,3.303999901,4,3.141000032,1,0,1200,534,1,1199,rules,11115,2019-10-28_09h09.31.416,SurveyExpMetaMem,3.2.3,Win32,60
,,,,,,,,,,,,,,,,,,,,5,3.102999926,5,0.407999992,1,0,1200,590,1,1199,stool,11115,2019-10-28_09h09.31.416,SurveyExpMetaMem,3.2.3,Win32,60
,,,,,,,,,,,,,,,,,,,,5,3.906000137,5,0.207000017,1,0,1200,915,1,1199,abuse,11115,2019-10-28_09h09.31.416,SurveyExpMetaMem,3.2.3,Win32,60
,,,,,,,,,,,,,,,,,,,,6,1.371999979,7,0.256999969,1,0,1200,99,1,1199,funny,11115,2019-10-28_09h09.31.416,SurveyExpMetaMem,3.2.3,Win32,60
,,,,,,,,,,,,,,,,,,,,6,1.562000036,7,0.210000038,1,0,1200,848,1,1199,graceful,11115,2019-10-28_09h09.31.416,SurveyExpMetaMem,3.2.3,Win32,60
,,,,,,,,,,,,,,,,,,,,4,1.938999891,4,0.197000027,1,0,1200,826,1,1199,poem,11115,2019-10-28_09h09.31.416,SurveyExpMetaMem,3.2.3,Win32,60
,,,,,,,,,,,,,,,,,,,,3,4.006999969,7,0.414000034,1,0,1200,891,1,1199,kind,11115,2019-10-28_09h09.31.416,SurveyExpMetaMem,3.2.3,Win32,60
,,,,,,,,,,,,,,,,,,,,6,2.239000082,5,1.02699995,1,0,1200,1102,1,1199,nuclear,11115,2019-10-28_09h09.31.416,SurveyExpMetaMem,3.2.3,Win32,60
,,,,,,,,,,,,,,,,,,,,5,1.94299984,5,0.292999983,1,0,1200,779,1,1199,shampoo,11115,2019-10-28_09h09.31.416,SurveyExpMetaMem,3.2.3,Win32,60
,,,,,,,,,,,,,,,,,,,,5,2.055000067,5,0.277999878,1,0,1200,1094,1,1199,disruptive,11115,2019-10-28_09h09.31.416,SurveyExpMetaMem,3.2.3,Win32,60
,,,,,,,,,,,,,,,,,,,,5,4.121000051,5,0.190999985,1,0,1200,614,1,1199,crossword,11115,2019-10-28_09h09.31.416,SurveyExpMetaMem,3.2.3,Win32,60
,,,,,,,,,,,,,,,,,,,,6,2.375,5,0.866999865,1,0,1200,758,1,1199,camera,11115,2019-10-28_09h09.31.416,SurveyExpMetaMem,3.2.3,Win32,60
,,,,,,,,,,,,,,,,,,,,7,3.109000206,7,0.251000166,1,0,1200,734,1,1199,piano,11115,2019-10-28_09h09.31.416,SurveyExpMetaMem,3.2.3,Win32,60
,,,,,,,,,,,,,,,,,,,,5,2.07400012,5,0.314999819,1,0,1200,610,1,1199,miniature,11115,2019-10-28_09h09.31.416,SurveyExpMetaMem,3.2.3,Win32,60
,,,,,,,,,,,,,,,,,,,,6,2.575999975,1,0.625,1,0,1200,420,1,1199,smoke,11115,2019-10-28_09h09.31.416,SurveyExpMetaMem,3.2.3,Win32,60
,,,,,,,,,,,,,,,,,,,,5,2.146999836,5,0.279999971,1,0,1200,509,1,1199,ash,11115,2019-10-28_09h09.31.416,SurveyExpMetaMem,3.2.3,Win32,60
,,,,,,,,,,,,,,,,,,,,5,2.093000174,5,0.244999886,1,0,1200,1105,1,1199,flee,11115,2019-10-28_09h09.31.416,SurveyExpMetaMem,3.2.3,Win32,60
,,,,,,,,,,,,,,,,,,,,6,2.196000099,6,0.171000004,1,0,1200,169,1,1199,aid,11115,2019-10-28_09h09.31.416,SurveyExpMetaMem,3.2.3,Win32,60
,,,,,,,,,,,,,,,,,,,,6,2.5400002,3,0.506999969,1,0,1200,1086,1,1199,irritate,11115,2019-10-28_09h09.31.416,SurveyExpMetaMem,3.2.3,Win32,60
,,,,,,,,,,,,,,,,,,,,6,2.769000053,7,0.607000113,1,0,1200,893,1,1199,nature,11115,2019-10-28_09h09.31.416,SurveyExpMetaMem,3.2.3,Win32,60
,,,,,,,,,,,,,,,,,,,,6,1.909000158,7,0.165999889,1,0,1200,285,1,1199,gold,11115,2019-10-28_09h09.31.416,SurveyExpMetaMem,3.2.3,Win32,60
,,,,,,,,,,,,,,,,,,,,5,4.531000137,5,0.296000004,1,0,1200,995,1,1199,cult,11115,2019-10-28_09h09.31.416,SurveyExpMetaMem,3.2.3,Win32,60
,,,,,,,,,,,,,,,,,,,,3,2.572999954,3,0.407999992,1,0,1200,963,1,1199,dreadful,11115,2019-10-28_09h09.31.416,SurveyExpMetaMem,3.2.3,Win32,60
,,,,,,,,,,,,,,,,,,,,5,19906.585,5,0.654999971,1,0,1200,785,1,1199,pond,11115,2019-10-28_09h09.31.416,SurveyExpMetaMem,3.2.3,Win32,60
,,,,,,,,,,,,,,,,,,,,7,4.133000135,3,0.667999983,1,0,1200,1090,1,1199,destruction,11115,2019-10-28_09h09.31.416,SurveyExpMetaMem,3.2.3,Win32,60
,,,,,,,,,,,,,,,,,,,,3,2.489000082,2,0.525000095,1,0,1200,411,1,1199,bitter,11115,2019-10-28_09h09.31.416,SurveyExpMetaMem,3.2.3,Win32,60
,,,,,,,,,,,,,,,,,,,,3,3.256000042,9,2.22300005,1,0,1200,192,1,1199,pleased,11115,2019-10-28_09h09.31.416,SurveyExpMetaMem,3.2.3,Win32,60
,,,,,,,,,,,,,,,,,,,,5,3.153000116,5,0.157999992,1,0,1200,815,1,1199,apple,11115,2019-10-28_09h09.31.416,SurveyExpMetaMem,3.2.3,Win32,60
,,,,,,,,,,,,,,,,,,,,7,2.549999952,8,0.375999928,1,0,1200,186,1,1199,holiday,11115,2019-10-28_09h09.31.416,SurveyExpMetaMem,3.2.3,Win32,60
,,,,,,,,,,,,,,,,,,,,8,2.991999865,8,0.507999897,1,0,1200,49,1,1199,ecstatic,11115,2019-10-28_09h09.31.416,SurveyExpMetaMem,3.2.3,Win32,60
,,,,,,,,,,,,,,,,,,,,5,2.375000238,5,0.207999945,1,0,1200,831,1,1199,sofa,11115,2019-10-28_09h09.31.416,SurveyExpMetaMem,3.2.3,Win32,60
,,,,,,,,,,,,,,,,,,,,3,2.773000002,8,1.877000093,1,0,1200,867,1,1199,relaxed,11115,2019-10-28_09h09.31.416,SurveyExpMetaMem,3.2.3,Win32,60
,,,,,,,,,,,,,,,,,,,,5,2.078999996,5,0.211999893,1,0,1200,689,1,1199,land,11115,2019-10-28_09h09.31.416,SurveyExpMetaMem,3.2.3,Win32,60
,,,,,,,,,,,,,,,,,,,,5,1.957000017,5,0.213999987,1,0,1200,752,1,1199,milk,11115,2019-10-28_09h09.31.416,SurveyExpMetaMem,3.2.3,Win32,60
,,,,,,,,,,,,,,,,,,,,5,1.998000145,5,0.22300005,1,0,1200,637,1,1199,flock,11115,2019-10-28_09h09.31.416,SurveyExpMetaMem,3.2.3,Win32,60
,,,,,,,,,,,,,,,,,,,,6,1.904999971,8,0.384000063,1,0,1200,93,1,1199,smiling,11115,2019-10-28_09h09.31.416,SurveyExpMetaMem,3.2.3,Win32,60
,,,,,,,,,,,,,,,,,,,,8,4.220000029,2,0.369000196,1,0,1200,979,1,1199,harassment,11115,2019-10-28_09h09.31.416,SurveyExpMetaMem,3.2.3,Win32,60
,,,,,,,,,,,,,,,,,,,,4,3.605999947,3,0.29399991,1,0,1200,595,1,1199,vacuum,11115,2019-10-28_09h09.31.416,SurveyExpMetaMem,3.2.3,Win32,60
,,,,,,,,,,,,,,,,,,,,6,4.529000044,3,0.457000017,1,0,1200,965,1,1199,traffic,11115,2019-10-28_09h09.31.416,SurveyExpMetaMem,3.2.3,Win32,60
,,,,,,,,,,,,,,,,,,,,5,3.039999962,3,0.58100009,1,0,1200,1006,1,1199,rash,11115,2019-10-28_09h09.31.416,SurveyExpMetaMem,3.2.3,Win32,60
,,,,,,,,,,,,,,,,,,,,5,3.611000061,5,0.197000027,1,0,1200,713,1,1199,mobile,11115,2019-10-28_09h09.31.416,SurveyExpMetaMem,3.2.3,Win32,60
,,,,,,,,,,,,,,,,,,,,5,2.421000004,4,0.369999886,1,0,1200,1022,1,1199,creepy,11115,2019-10-28_09h09.31.416,SurveyExpMetaMem,3.2.3,Win32,60
,,,,,,,,,,,,,,,,,,,,5,3.838999987,4,0.495000124,1,0,1200,797,1,1199,hamburger,11115,2019-10-28_09h09.31.416,SurveyExpMetaMem,3.2.3,Win32,60
,,,,,,,,,,,,,,,,,,,,4,3.7900002,6,0.439999819,1,0,1200,884,1,1199,grateful,11115,2019-10-28_09h09.31.416,SurveyExpMetaMem,3.2.3,Win32,60
,,,,,,,,,,,,,,,,,,,,5,2.054000139,5,0.169000149,1,0,1200,640,1,1199,cabin,11115,2019-10-28_09h09.31.416,SurveyExpMetaMem,3.2.3,Win32,60
,,,,,,,,,,,,,,,,,,,,5,1.707000256,5,0.279999971,1,0,1200,465,1,1199,void,11115,2019-10-28_09h09.31.416,SurveyExpMetaMem,3.2.3,Win32,60
,,,,,,,,,,,,,,,,,,,,4,2.02300024,2,0.578999996,1,0,1200,304,1,1199,depression,11115,2019-10-28_09h09.31.416,SurveyExpMetaMem,3.2.3,Win32,60
,,,,,,,,,,,,,,,,,,,,7,1.894000053,1,0.991000175,1,0,1200,907,1,1199,terrorist,11115,2019-10-28_09h09.31.416,SurveyExpMetaMem,3.2.3,Win32,60
,,,,,,,,,,,,,,,,,,,,5,3.013000011,5,0.368000031,1,0,1200,563,1,1199,stupor,11115,2019-10-28_09h09.31.416,SurveyExpMetaMem,3.2.3,Win32,60
,,,,,,,,,,,,,,,,,,,,5,1.871000051,5,0.214999914,1,0,1200,1092,1,1199,rattlesnake,11115,2019-10-28_09h09.31.416,SurveyExpMetaMem,3.2.3,Win32,60
,,,,,,,,,,,,,,,,,,,,5,1.789000034,7,0.606999874,1,0,1200,176,1,1199,champ,11115,2019-10-28_09h09.31.416,SurveyExpMetaMem,3.2.3,Win32,60
,,,,,,,,,,,,,,,,,,,,5,2.338999987,7,0.601000071,1,0,1200,687,1,1199,skinny,11115,2019-10-28_09h09.31.416,SurveyExpMetaMem,3.2.3,Win32,60
,,,,,,,,,,,,,,,,,,,,6,4.135999918,6,0.378000021,1,0,1200,266,1,1199,juice,11115,2019-10-28_09h09.31.416,SurveyExpMetaMem,3.2.3,Win32,60
,,,,,,,,,,,,,,,,,,,,5,2.195000172,5,0.191000223,1,0,1200,444,1,1199,mold,11115,2019-10-28_09h09.31.416,SurveyExpMetaMem,3.2.3,Win32,60
,,,,,,,,,,,,,,,,,,,,6,2.076000214,6,0.215000153,1,0,1200,95,1,1199,giggle,11115,2019-10-28_09h09.31.416,SurveyExpMetaMem,3.2.3,Win32,60
,,,,,,,,,,,,,,,,,,,,5,2.223999977,5,0.538000107,1,0,1200,1124,1,1199,seize,11115,2019-10-28_09h09.31.416,SurveyExpMetaMem,3.2.3,Win32,60
,,,,,,,,,,,,,,,,,,,,5,2.514000177,3,0.322999954,1,0,1200,505,1,1199,exhaust,11115,2019-10-28_09h09.31.416,SurveyExpMetaMem,3.2.3,Win32,60
,,,,,,,,,,,,,,,,,,,,4,2.655999899,3,0.399999857,1,0,1200,1038,1,1199,pervert,11115,2019-10-28_09h09.31.416,SurveyExpMetaMem,3.2.3,Win32,60
,,,,,,,,,,,,,,,,,,,,6,2.510999918,7,0.490999937,1,0,1200,841,1,1199,bathtub,11115,2019-10-28_09h09.31.416,SurveyExpMetaMem,3.2.3,Win32,60
,,,,,,,,,,,,,,,,,,,,5,2.072999954,5,0.177000046,1,0,1200,375,1,1199,manure,11115,2019-10-28_09h09.31.416,SurveyExpMetaMem,3.2.3,Win32,60
,,,,,,,,,,,,,,,,,,,,5,1.974999905,4,0.273000002,1,0,1200,1111,1,1199,bruise,11115,2019-10-28_09h09.31.416,SurveyExpMetaMem,3.2.3,Win32,60
,,,,,,,,,,,,,,,,,,,,5,2.19900012,5,0.244000196,1,0,1200,557,1,1199,class,11115,2019-10-28_09h09.31.416,SurveyExpMetaMem,3.2.3,Win32,60
,,,,,,,,,,,,,,,,,,,,5,3.220999956,5,0.511000156,1,0,1200,800,1,1199,authentic,11115,2019-10-28_09h09.31.416,SurveyExpMetaMem,3.2.3,Win32,60
,,,,,,,,,,,,,,,,,,,,6,5.575999975,3,0.565000057,1,0,1200,1036,1,1199,anxiety,11115,2019-10-28_09h09.31.416,SurveyExpMetaMem,3.2.3,Win32,60
,,,,,,,,,,,,,,,,,,,,6,1.755000114,8,0.529000044,1,0,1200,775,1,1199,pancakes,11115,2019-10-28_09h09.31.416,SurveyExpMetaMem,3.2.3,Win32,60
,,,,,,,,,,,,,,,,,,,,5,1.529000044,5,0.233999968,1,0,1200,112,1,1199,jaguar,11115,2019-10-28_09h09.31.416,SurveyExpMetaMem,3.2.3,Win32,60
,,,,,,,,,,,,,,,,,,,,5,1.426000118,5,0.256999969,1,0,1200,930,1,1199,poison,11115,2019-10-28_09h09.31.416,SurveyExpMetaMem,3.2.3,Win32,60
,,,,,,,,,,,,,,,,,,,,5,1.402999878,5,0.210000038,1,0,1200,423,1,1199,stain,11115,2019-10-28_09h09.31.416,SurveyExpMetaMem,3.2.3,Win32,60
,,,,,,,,,,,,,,,,,,,,5,2.97300005,4,0.48300004,1,0,1200,504,1,1199,cane,11115,2019-10-28_09h09.31.416,SurveyExpMetaMem,3.2.3,Win32,60
,,,,,,,,,,,,,,,,,,,,6,2.576999903,6,0.495000124,1,0,1200,842,1,1199,breathe,11115,2019-10-28_09h09.31.416,SurveyExpMetaMem,3.2.3,Win32,60
,,,,,,,,,,,,,,,,,,,,6,2.595999956,1,0.207000017,1,0,1200,939,1,1199,vomit,11115,2019-10-28_09h09.31.416,SurveyExpMetaMem,3.2.3,Win32,60
,,,,,,,,,,,,,,,,,,,,5,1.770999908,5,0.174000025,1,0,1200,131,1,1199,treat,11115,2019-10-28_09h09.31.416,SurveyExpMetaMem,3.2.3,Win32,60
,,,,,,,,,,,,,,,,,,,,6,1.762000084,6,0.273999929,1,0,1200,788,1,1199,cook,11115,2019-10-28_09h09.31.416,SurveyExpMetaMem,3.2.3,Win32,60
,,,,,,,,,,,,,,,,,,,,5,1.697000027,4,0.422999859,1,0,1200,478,1,1199,numb,11115,2019-10-28_09h09.31.416,SurveyExpMetaMem,3.2.3,Win32,60
,,,,,,,,,,,,,,,,,,,,4,3.308000088,2,0.378999949,1,0,1200,376,1,1199,incompetent,11115,2019-10-28_09h09.31.416,SurveyExpMetaMem,3.2.3,Win32,60
,,,,,,,,,,,,,,,,,,,,7,4.265999794,1,1.609000206,1,0,1200,931,1,1199,overweight,11115,2019-10-28_09h09.31.416,SurveyExpMetaMem,3.2.3,Win32,60
,,,,,,,,,,,,,,,,,,,,5,1.923000097,5,0.161999941,1,0,1200,821,1,1199,cottage,11115,2019-10-28_09h09.31.416,SurveyExpMetaMem,3.2.3,Win32,60
,,,,,,,,,,,,,,,,,,,,5,7.531000137,5,0.613000154,1,0,1200,488,1,1199,rusty,11115,2019-10-28_09h09.31.416,SurveyExpMetaMem,3.2.3,Win32,60
,,,,,,,,,,,,,,,,,,,,5,1.20600009,5,0.210999966,1,0,1200,806,1,1199,tree,11115,2019-10-28_09h09.31.416,SurveyExpMetaMem,3.2.3,Win32,60
,,,,,,,,,,,,,,,,,,,,5,1.558000088,6,0.190999985,1,0,1200,69,1,1199,special,11115,2019-10-28_09h09.31.416,SurveyExpMetaMem,3.2.3,Win32,60
,,,,,,,,,,,,,,,,,,,,5,1.430999994,5,0.196000099,1,0,1200,606,1,1199,easel,11115,2019-10-28_09h09.31.416,SurveyExpMetaMem,3.2.3,Win32,60
,,,,,,,,,,,,,,,,,,,,5,1.304999828,5,0.307999849,1,0,1200,461,1,1199,ail,11115,2019-10-28_09h09.31.416,SurveyExpMetaMem,3.2.3,Win32,60
,,,,,,,,,,,,,,,,,,,,5,1.128999949,5,0.274000168,1,0,1200,545,1,1199,tar,11115,2019-10-28_09h09.31.416,SurveyExpMetaMem,3.2.3,Win32,60
,,,,,,,,,,,,,,,,,,,,5,2.869999886,4,0.412000179,1,0,1200,1123,1,1199,haunt,11115,2019-10-28_09h09.31.416,SurveyExpMetaMem,3.2.3,Win32,60
,,,,,,,,,,,,,,,,,,,,5,1.690999985,5,0.274000168,1,0,1200,135,1,1199,applause,11115,2019-10-28_09h09.31.416,SurveyExpMetaMem,3.2.3,Win32,60
,,,,,,,,,,,,,,,,,,,,5,1.771999836,5,0.273999929,1,0,1200,1109,1,1199,germ,11115,2019-10-28_09h09.31.416,SurveyExpMetaMem,3.2.3,Win32,60
,,,,,,,,,,,,,,,,,,,,5,1.81099987,7,0.380000114,1,0,1200,760,1,1199,shrimp,11115,2019-10-28_09h09.31.416,SurveyExpMetaMem,3.2.3,Win32,60
,,,,,,,,,,,,,,,,,,,,5,2.279000044,5,0.546999931,1,0,1200,9,1,1199,try,11115,2019-10-28_09h09.31.416,SurveyExpMetaMem,3.2.3,Win32,60
,,,,,,,,,,,,,,,,,,,,3,2.648999929,8,1.082000017,1,0,1200,870,1,1199,safe,11115,2019-10-28_09h09.31.416,SurveyExpMetaMem,3.2.3,Win32,60
,,,,,,,,,,,,,,,,,,,,5,2.389000177,5,0.224000216,1,0,1200,417,1,1199,dummy,11115,2019-10-28_09h09.31.416,SurveyExpMetaMem,3.2.3,Win32,60
,,,,,,,,,,,,,,,,,,,,5,2.080000162,8,1.389999866,1,0,1200,37,1,1199,magnificence,11115,2019-10-28_09h09.31.416,SurveyExpMetaMem,3.2.3,Win32,60
,,,,,,,,,,,,,,,,,,,,5,1.817000151,3,0.507000208,1,0,1200,357,1,1199,whine,11115,2019-10-28_09h09.31.416,SurveyExpMetaMem,3.2.3,Win32,60
,,,,,,,,,,,,,,,,,,,,7,3.122999907,2,0.812999964,1,0,1200,997,1,1199,injury,11115,2019-10-28_09h09.31.416,SurveyExpMetaMem,3.2.3,Win32,60
,,,,,,,,,,,,,,,,,,,,6,2.569000006,1,0.922999859,1,0,1200,1057,1,1199,deceit,11115,2019-10-28_09h09.31.416,SurveyExpMetaMem,3.2.3,Win32,60
,,,,,,,,,,,,,,,,,,,,3,2.640000105,8,0.69299984,1,0,1200,888,1,1199,refreshment,11115,2019-10-28_09h09.31.416,SurveyExpMetaMem,3.2.3,Win32,60
,,,,,,,,,,,,,,,,,,,,5,2.505000114,7,0.476000071,1,0,1200,126,1,1199,rich,11115,2019-10-28_09h09.31.416,SurveyExpMetaMem,3.2.3,Win32,60
,,,,,,,,,,,,,,,,,,,,5,5.605000019,5,0.230000019,1,0,1200,855,1,1199,girl,11115,2019-10-28_09h09.31.416,SurveyExpMetaMem,3.2.3,Win32,60
,,,,,,,,,,,,,,,,,,,,7,2.953000069,1,0.677999973,1,0,1200,901,1,1199,rape,11115,2019-10-28_09h09.31.416,SurveyExpMetaMem,3.2.3,Win32,60
,,,,,,,,,,,,,,,,,,,,5,2.076999903,6,0.313000202,1,0,1200,274,1,1199,song,11115,2019-10-28_09h09.31.416,SurveyExpMetaMem,3.2.3,Win32,60
,,,,,,,,,,,,,,,,,,,,5,2.039000034,7,0.723999977,1,0,1200,96,1,1199,joke,11115,2019-10-28_09h09.31.416,SurveyExpMetaMem,3.2.3,Win32,60
,,,,,,,,,,,,,,,,,,,,5,2.161000013,5,0.25999999,1,0,1200,63,1,1199,clothes,11115,2019-10-28_09h09.31.416,SurveyExpMetaMem,3.2.3,Win32,60
,,,,,,,,,,,,,,,,,,,,5,1.60800004,5,0.329999924,1,0,1200,700,1,1199,frog,11115,2019-10-28_09h09.31.416,SurveyExpMetaMem,3.2.3,Win32,60
,,,,,,,,,,,,,,,,,,,,5,8.809000015,2,1.546000004,1,0,1200,902,1,1199,rejected,11115,2019-10-28_09h09.31.416,SurveyExpMetaMem,3.2.3,Win32,60
,,,,,,,,,,,,,,,,,,,,7,3.845000029,7,0.391000032,1,0,1200,244,1,1199,sexy,11115,2019-10-28_09h09.31.416,SurveyExpMetaMem,3.2.3,Win32,60
,,,,,,,,,,,,,,,,,,,,4,11.47200012,4,0.656000137,1,0,1200,347,1,1199,unpleasant,11115,2019-10-28_09h09.31.416,SurveyExpMetaMem,3.2.3,Win32,60
,,,,,,,,,,,,,,,,,,,,5,2.240999937,5,0.172999859,1,0,1200,604,1,1199,lamp,11115,2019-10-28_09h09.31.416,SurveyExpMetaMem,3.2.3,Win32,60
,,,,,,,,,,,,,,,,,,,,5,2.022000074,5,0.192000151,1,0,1200,368,1,1199,dreary,11115,2019-10-28_09h09.31.416,SurveyExpMetaMem,3.2.3,Win32,60
,,,,,,,,,,,,,,,,,,,,3,3.022000074,7,1.075999975,1,0,1200,835,1,1199,helpful,11115,2019-10-28_09h09.31.416,SurveyExpMetaMem,3.2.3,Win32,60
,,,,,,,,,,,,,,,,,,,,6,3.970000029,2,0.691000223,1,0,1200,992,1,1199,addict,11115,2019-10-28_09h09.31.416,SurveyExpMetaMem,3.2.3,Win32,60
,,,,,,,,,,,,,,,,,,,,5,1.855999947,7,0.518000126,1,0,1200,27,1,1199,gourmet,11115,2019-10-28_09h09.31.416,SurveyExpMetaMem,3.2.3,Win32,60
,,,,,,,,,,,,,,,,,,,,5,1.839999914,5,0.22300005,1,0,1200,612,1,1199,propeller,11115,2019-10-28_09h09.31.416,SurveyExpMetaMem,3.2.3,Win32,60
,,,,,,,,,,,,,,,,,,,,6,5.178000212,4,0.59100008,1,0,1200,837,1,1199,responsible,11115,2019-10-28_09h09.31.416,SurveyExpMetaMem,3.2.3,Win32,60
,,,,,,,,,,,,,,,,,,,,5,2.630000114,5,0.194999933,1,0,1200,816,1,1199,hippotamus,11115,2019-10-28_09h09.31.416,SurveyExpMetaMem,3.2.3,Win32,60
,,,,,,,,,,,,,,,,,,,,5,2.68900013,5,0.190999985,1,0,1200,729,1,1199,velvet,11115,2019-10-28_09h09.31.416,SurveyExpMetaMem,3.2.3,Win32,60
,,,,,,,,,,,,,,,,,,,,5,1.106999874,5,0.213999987,1,0,1200,432,1,1199,resign,11115,2019-10-28_09h09.31.416,SurveyExpMetaMem,3.2.3,Win32,60
,,,,,,,,,,,,,,,,,,,,6,4.558000088,2,0.25999999,1,0,1200,944,1,1199,kill,11115,2019-10-28_09h09.31.416,SurveyExpMetaMem,3.2.3,Win32,60
,,,,,,,,,,,,,,,,,,,,5,1.636999846,5,0.209000111,1,0,1200,554,1,1199,label,11115,2019-10-28_09h09.31.416,SurveyExpMetaMem,3.2.3,Win32,60
,,,,,,,,,,,,,,,,,,,,6,2.049000025,7,0.412999868,1,0,1200,784,1,1199,logical,11115,2019-10-28_09h09.31.416,SurveyExpMetaMem,3.2.3,Win32,60
,,,,,,,,,,,,,,,,,,,,5,5.544999838,3,0.325000048,1,0,1200,449,1,1199,egotistical,11115,2019-10-28_09h09.31.416,SurveyExpMetaMem,3.2.3,Win32,60
,,,,,,,,,,,,,,,,,,,,6,2.747999907,2,0.632999897,1,0,1200,973,1,1199,anger,11115,2019-10-28_09h09.31.416,SurveyExpMetaMem,3.2.3,Win32,60
,,,,,,,,,,,,,,,,,,,,7,4.498000145,6,0.859999895,1,0,1200,184,1,1199,surprised,11115,2019-10-28_09h09.31.416,SurveyExpMetaMem,3.2.3,Win32,60
,,,,,,,,,,,,,,,,,,,,6,2.239000082,2,0.654999971,1,0,1200,980,1,1199,liar,11115,2019-10-28_09h09.31.416,SurveyExpMetaMem,3.2.3,Win32,60
,,,,,,,,,,,,,,,,,,,,6,4.377000093,2,0.194999933,1,0,1200,1063,1,1199,quarrel,11115,2019-10-28_09h09.31.416,SurveyExpMetaMem,3.2.3,Win32,60
,,,,,,,,,,,,,,,,,,,,6,3.194999933,2,0.273000002,1,0,1200,1008,1,1199,gang,11115,2019-10-28_09h09.31.416,SurveyExpMetaMem,3.2.3,Win32,60
,,,,,,,,,,,,,,,,,,,,5,3.388999939,3,0.697999954,1,0,1200,1178,1,1199,weight,11115,2019-10-28_09h09.31.416,SurveyExpMetaMem,3.2.3,Win32,60
,,,,,,,,,,,,,,,,,,,,5,2.047999859,5,0.150000095,1,0,1200,739,1,1199,seagull,11115,2019-10-28_09h09.31.416,SurveyExpMetaMem,3.2.3,Win32,60
,,,,,,,,,,,,,,,,,,,,6,4.472000122,3,0.457999945,1,0,1200,273,1,1199,worthwhile,11115,2019-10-28_09h09.31.416,SurveyExpMetaMem,3.2.3,Win32,60
,,,,,,,,,,,,,,,,,,,,5,4.619000196,5,0.447000027,1,0,1200,553,1,1199,corner,11115,2019-10-28_09h09.31.416,SurveyExpMetaMem,3.2.3,Win32,60
,,,,,,,,,,,,,,,,,,,,6,2.63499999,2,1.97300005,1,0,1200,1125,1,1199,outrage,11115,2019-10-28_09h09.31.416,SurveyExpMetaMem,3.2.3,Win32,60
,,,,,,,,,,,,,,,,,,,,5,1.788000107,5,0.139999866,1,0,1200,568,1,1199,therapy,11115,2019-10-28_09h09.31.416,SurveyExpMetaMem,3.2.3,Win32,60
,,,,,,,,,,,,,,,,,,,,5,3.963000059,5,0.213000059,1,0,1200,483,1,1199,condescension,11115,2019-10-28_09h09.31.416,SurveyExpMetaMem,3.2.3,Win32,60
,,,,,,,,,,,,,,,,,,,,5,1.930999994,5,0.187000036,1,0,1200,501,1,1199,dustpan,11115,2019-10-28_09h09.31.416,SurveyExpMetaMem,3.2.3,Win32,60
,,,,,,,,,,,,,,,,,,,,5,0.929000139,5,0.190000057,1,0,1200,220,1,1199,reef,11115,2019-10-28_09h09.31.416,SurveyExpMetaMem,3.2.3,Win32,60
,,,,,,,,,,,,,,,,,,,,5,2.288000107,5,0.190999985,1,0,1200,520,1,1199,gullible,11115,2019-10-28_09h09.31.416,SurveyExpMetaMem,3.2.3,Win32,60
,,,,,,,,,,,,,,,,,,,,5,5.605999947,6,0.63499999,1,0,1200,745,1,1199,inform,11115,2019-10-28_09h09.31.416,SurveyExpMetaMem,3.2.3,Win32,60
,,,,,,,,,,,,,,,,,,,,5,2.161999941,3,0.190999985,1,0,1200,971,1,1199,crash,11115,2019-10-28_09h09.31.416,SurveyExpMetaMem,3.2.3,Win32,60
,,,,,,,,,,,,,,,,,,,,5,1.848999977,3,0.197000027,1,0,1200,254,1,1199,crush,11115,2019-10-28_09h09.31.416,SurveyExpMetaMem,3.2.3,Win32,60
,,,,,,,,,,,,,,,,,,,,6,2.200000048,7,0.645999908,1,0,1200,23,1,1199,earn,11115,2019-10-28_09h09.31.416,SurveyExpMetaMem,3.2.3,Win32,60
,,,,,,,,,,,,,,,,,,,,5,2.437999964,5,0.23300004,1,0,1200,1176,1,1199,vampire,11115,2019-10-28_09h09.31.416,SurveyExpMetaMem,3.2.3,Win32,60
,,,,,,,,,,,,,,,,,,,,6,3.032999992,3,0.232000113,1,0,1200,1033,1,1199,horror,11115,2019-10-28_09h09.31.416,SurveyExpMetaMem,3.2.3,Win32,60
,,,,,,,,,,,,,,,,,,,,8,2.690000057,2,0.916000128,1,0,1200,914,1,1199,fail,11115,2019-10-28_09h09.31.416,SurveyExpMetaMem,3.2.3,Win32,60
,,,,,,,,,,,,,,,,,,,,5,2.988999844,5,0.163000107,1,0,1200,749,1,1199,glasses,11115,2019-10-28_09h09.31.416,SurveyExpMetaMem,3.2.3,Win32,60
,,,,,,,,,,,,,,,,,,,,5,1.455000162,5,0.160000086,1,0,1200,577,1,1199,retreat,11115,2019-10-28_09h09.31.416,SurveyExpMetaMem,3.2.3,Win32,60
,,,,,,,,,,,,,,,,,,,,6,3.054999828,4,0.184000015,1,0,1200,5,1,1199,drunk,11115,2019-10-28_09h09.31.416,SurveyExpMetaMem,3.2.3,Win32,60
,,,,,,,,,,,,,,,,,,,,5,2.20600009,5,0.172999859,1,0,1200,1188,1,1199,swear,11115,2019-10-28_09h09.31.416,SurveyExpMetaMem,3.2.3,Win32,60
,,,,,,,,,,,,,,,,,,,,5,2.138999939,7,1.176999807,1,0,1200,4,1,1199,night,11115,2019-10-28_09h09.31.416,SurveyExpMetaMem,3.2.3,Win32,60
,,,,,,,,,,,,,,,,,,,,5,1.812000036,4,0.299999952,1,0,1200,359,1,1199,bored,11115,2019-10-28_09h09.31.416,SurveyExpMetaMem,3.2.3,Win32,60
,,,,,,,,,,,,,,,,,,,,6,3.460000038,3,0.723999977,1,0,1200,1026,1,1199,crisis,11115,2019-10-28_09h09.31.416,SurveyExpMetaMem,3.2.3,Win32,60
,,,,,,,,,,,,,,,,,,,,5,1.888000011,6,0.18900013,1,0,1200,846,1,1199,able,11115,2019-10-28_09h09.31.416,SurveyExpMetaMem,3.2.3,Win32,60
,,,,,,,,,,,,,,,,,,,,5,1.572000027,5,0.190999985,1,0,1200,566,1,1199,obscure,11115,2019-10-28_09h09.31.416,SurveyExpMetaMem,3.2.3,Win32,60
,,,,,,,,,,,,,,,,,,,,5,1.457000017,6,0.161999941,1,0,1200,212,1,1199,belief,11115,2019-10-28_09h09.31.416,SurveyExpMetaMem,3.2.3,Win32,60
,,,,,,,,,,,,,,,,,,,,4,2.980000019,7,1.472999811,1,0,1200,839,1,1199,flower,11115,2019-10-28_09h09.31.416,SurveyExpMetaMem,3.2.3,Win32,60
,,,,,,,,,,,,,,,,,,,,5,2.494999886,5,0.598999977,1,0,1200,162,1,1199,royalty,11115,2019-10-28_09h09.31.416,SurveyExpMetaMem,3.2.3,Win32,60
,,,,,,,,,,,,,,,,,,,,5,2.174000025,5,2.040999889,1,0,1200,675,1,1199,golfer,11115,2019-10-28_09h09.31.416,SurveyExpMetaMem,3.2.3,Win32,60
,,,,,,,,,,,,,,,,,,,,6,4.423000097,7,0.624000072,1,0,1200,42,1,1199,accomplish,11115,2019-10-28_09h09.31.416,SurveyExpMetaMem,3.2.3,Win32,60
,,,,,,,,,,,,,,,,,,,,5,1.421000004,5,0.279999971,1,0,1200,511,1,1199,slouch,11115,2019-10-28_09h09.31.416,SurveyExpMetaMem,3.2.3,Win32,60
,,,,,,,,,,,,,,,,,,,,6,1.989000082,3,0.493000031,1,0,1200,1058,1,1199,bloody,11115,2019-10-28_09h09.31.416,SurveyExpMetaMem,3.2.3,Win32,60
,,,,,,,,,,,,,,,,,,,,5,2.133000135,4,1.205000162,1,0,1200,392,1,1199,moody,11115,2019-10-28_09h09.31.416,SurveyExpMetaMem,3.2.3,Win32,60
,,,,,,,,,,,,,,,,,,,,5,3.453999996,2,0.317000151,1,0,1200,542,1,1199,loose,11115,2019-10-28_09h09.31.416,SurveyExpMetaMem,3.2.3,Win32,60
,,,,,,,,,,,,,,,,,,,,4,2.733999968,7,0.377000093,1,0,1200,886,1,1199,sunflower,11115,2019-10-28_09h09.31.416,SurveyExpMetaMem,3.2.3,Win32,60
,,,,,,,,,,,,,,,,,,,,6,2.497999907,2,1.022000074,1,0,1200,1181,1,1199,blade,11115,2019-10-28_09h09.31.416,SurveyExpMetaMem,3.2.3,Win32,60
,,,,,,,,,,,,,,,,,,,,5,1.821000099,5,0.207999945,1,0,1200,666,1,1199,verify,11115,2019-10-28_09h09.31.416,SurveyExpMetaMem,3.2.3,Win32,60
,,,,,,,,,,,,,,,,,,,,5,2.266000032,6,0.588999987,1,0,1200,844,1,1199,soul,11115,2019-10-28_09h09.31.416,SurveyExpMetaMem,3.2.3,Win32,60
,,,,,,,,,,,,,,,,,,,,5,2.058000088,4,0.246000051,1,0,1200,456,1,1199,piss,11115,2019-10-28_09h09.31.416,SurveyExpMetaMem,3.2.3,Win32,60
,,,,,,,,,,,,,,,,,,,,5,1.29700017,5,0.24000001,1,0,1200,780,1,1199,grass,11115,2019-10-28_09h09.31.416,SurveyExpMetaMem,3.2.3,Win32,60
,,,,,,,,,,,,,,,,,,,,7,3.971999884,2,0.296000004,1,0,1200,1148,1,1199,suspicious,11115,2019-10-28_09h09.31.416,SurveyExpMetaMem,3.2.3,Win32,60
,,,,,,,,,,,,,,,,,,,,7,2.745000124,2,0.79399991,1,0,1200,402,1,1199,dismissive,11115,2019-10-28_09h09.31.416,SurveyExpMetaMem,3.2.3,Win32,60
,,,,,,,,,,,,,,,,,,,,6,2.707999945,3,0.427000046,1,0,1200,508,1,1199,haphazard,11115,2019-10-28_09h09.31.416,SurveyExpMetaMem,3.2.3,Win32,60
,,,,,,,,,,,,,,,,,,,,7,1.838000059,3,0.535000086,1,0,1200,924,1,1199,terrible,11115,2019-10-28_09h09.31.416,SurveyExpMetaMem,3.2.3,Win32,60
,,,,,,,,,,,,,,,,,,,,5,2.775000095,7,0.332000017,1,0,1200,270,1,1199,toddler,11115,2019-10-28_09h09.31.416,SurveyExpMetaMem,3.2.3,Win32,60
,,,,,,,,,,,,,,,,,,,,8,2.913000107,3,0.779999971,1,0,1200,1055,1,1199,alarm,11115,2019-10-28_09h09.31.416,SurveyExpMetaMem,3.2.3,Win32,60
,,,,,,,,,,,,,,,,,,,,5,2.187999964,5,0.292000055,1,0,1200,462,1,1199,shallow,11115,2019-10-28_09h09.31.416,SurveyExpMetaMem,3.2.3,Win32,60
,,,,,,,,,,,,,,,,,,,,5,2.56099987,6,0.238999844,1,0,1200,763,1,1199,vegetables,11115,2019-10-28_09h09.31.416,SurveyExpMetaMem,3.2.3,Win32,60
,,,,,,,,,,,,,,,,,,,,5,3.365999937,5,0.247999907,1,0,1200,1015,1,1199,frighten,11115,2019-10-28_09h09.31.416,SurveyExpMetaMem,3.2.3,Win32,60
,,,,,,,,,,,,,,,,,,,,6,2.615000248,4,0.222000122,1,0,1200,635,1,1199,sensitive,11115,2019-10-28_09h09.31.416,SurveyExpMetaMem,3.2.3,Win32,60
,,,,,,,,,,,,,,,,,,,,5,2.346999884,5,0.407000065,1,0,1200,647,1,1199,accord,11115,2019-10-28_09h09.31.416,SurveyExpMetaMem,3.2.3,Win32,60
,,,,,,,,,,,,,,,,,,,,5,2.640000105,5,0.174000025,1,0,1200,626,1,1199,pan,11115,2019-10-28_09h09.31.416,SurveyExpMetaMem,3.2.3,Win32,60
,,,,,,,,,,,,,,,,,,,,5,0.756000042,5,0.180999994,1,0,1200,1114,1,1199,foe,11115,2019-10-28_09h09.31.416,SurveyExpMetaMem,3.2.3,Win32,60
,,,,,,,,,,,,,,,,,,,,5,1.330000162,5,0.230999947,1,0,1200,503,1,1199,sludge,11115,2019-10-28_09h09.31.416,SurveyExpMetaMem,3.2.3,Win32,60
,,,,,,,,,,,,,,,,,,,,5,2.388000011,6,0.157000065,1,0,1200,1000,1,1199,threat,11115,2019-10-28_09h09.31.416,SurveyExpMetaMem,3.2.3,Win32,60
,,,,,,,,,,,,,,,,,,,,5,2.236999989,4,0.173000097,1,0,1200,1161,1,1199,shock,11115,2019-10-28_09h09.31.416,SurveyExpMetaMem,3.2.3,Win32,60
,,,,,,,,,,,,,,,,,,,,6,2.205000162,6,0.222999811,1,0,1200,177,1,1199,frosting,11115,2019-10-28_09h09.31.416,SurveyExpMetaMem,3.2.3,Win32,60
,,,,,,,,,,,,,,,,,,,,3,2.312000036,6,0.74000001,1,0,1200,862,1,1199,ease,11115,2019-10-28_09h09.31.416,SurveyExpMetaMem,3.2.3,Win32,60
,,,,,,,,,,,,,,,,,,,,6,2.226000071,8,0.390000105,1,0,1200,123,1,1199,favorite,11115,2019-10-28_09h09.31.416,SurveyExpMetaMem,3.2.3,Win32,60
,,,,,,,,,,,,,,,,,,,,7,2.31799984,3,0.874000072,1,0,1200,1027,1,1199,criticism,11115,2019-10-28_09h09.31.416,SurveyExpMetaMem,3.2.3,Win32,60
,,,,,,,,,,,,,,,,,,,,5,3.325000048,3,0.572000027,1,0,1200,337,1,1199,stinks,11115,2019-10-28_09h09.31.416,SurveyExpMetaMem,3.2.3,Win32,60
,,,,,,,,,,,,,,,,,,,,4,3.638000011,2,0.756999969,1,0,1200,316,1,1199,sorrow,11115,2019-10-28_09h09.31.416,SurveyExpMetaMem,3.2.3,Win32,60
,,,,,,,,,,,,,,,,,,,,5,3.437999964,6,0.542999983,1,0,1200,803,1,1199,tidy,11115,2019-10-28_09h09.31.416,SurveyExpMetaMem,3.2.3,Win32,60
,,,,,,,,,,,,,,,,,,,,5,3.296999931,7,0.674999952,1,0,1200,847,1,1199,moon,11115,2019-10-28_09h09.31.416,SurveyExpMetaMem,3.2.3,Win32,60
,,,,,,,,,,,,,,,,,,,,5,3.241000175,5,0.215000153,1,0,1200,119,1,1199,stereo,11115,2019-10-28_09h09.31.416,SurveyExpMetaMem,3.2.3,Win32,60
,,,,,,,,,,,,,,,,,,,,5,0.86500001,2,1.276000023,1,0,1200,1005,1,1199,pissed,11115,2019-10-28_09h09.31.416,SurveyExpMetaMem,3.2.3,Win32,60
,,,,,,,,,,,,,,,,,,,,5,2.203000069,5,0.817000151,1,0,1200,680,1,1199,candle,11115,2019-10-28_09h09.31.416,SurveyExpMetaMem,3.2.3,Win32,60
,,,,,,,,,,,,,,,,,,,,6,2.190000057,3,0.868000031,1,0,1200,382,1,1199,vulnerable,11115,2019-10-28_09h09.31.416,SurveyExpMetaMem,3.2.3,Win32,60
,,,,,,,,,,,,,,,,,,,,6,1.953000069,2,0.957000017,1,0,1200,905,1,1199,suffocate,11115,2019-10-28_09h09.31.416,SurveyExpMetaMem,3.2.3,Win32,60
,,,,,,,,,,,,,,,,,,,,5,1.505000114,5,0.221999884,1,0,1200,466,1,1199,gnaw,11115,2019-10-28_09h09.31.416,SurveyExpMetaMem,3.2.3,Win32,60
,,,,,,,,,,,,,,,,,,,,7,1.965000153,2,1.226000071,1,0,1200,923,1,1199,punish,11115,2019-10-28_09h09.31.416,SurveyExpMetaMem,3.2.3,Win32,60
,,,,,,,,,,,,,,,,,,,,7,3.229000092,7,0.22300005,1,0,1200,164,1,1199,marry,11115,2019-10-28_09h09.31.416,SurveyExpMetaMem,3.2.3,Win32,60
,,,,,,,,,,,,,,,,,,,,5,1.795000076,5,0.211000204,1,0,1200,723,1,1199,cinnamon,11115,2019-10-28_09h09.31.416,SurveyExpMetaMem,3.2.3,Win32,60
,,,,,,,,,,,,,,,,,,,,6,2.328000069,3,0.694999933,1,0,1200,1001,1,1199,rude,11115,2019-10-28_09h09.31.416,SurveyExpMetaMem,3.2.3,Win32,60
,,,,,,,,,,,,,,,,,,,,6,2.404999971,7,0.305999994,1,0,1200,202,1,1199,mercy,11115,2019-10-28_09h09.31.416,SurveyExpMetaMem,3.2.3,Win32,60
,,,,,,,,,,,,,,,,,,,,5,1.423000097,5,0.273000002,1,0,1200,592,1,1199,sweep,11115,2019-10-28_09h09.31.416,SurveyExpMetaMem,3.2.3,Win32,60
,,,,,,,,,,,,,,,,,,,,6,3.842000008,4,0.414000034,1,0,1200,398,1,1199,handicapped,11115,2019-10-28_09h09.31.416,SurveyExpMetaMem,3.2.3,Win32,60
,,,,,,,,,,,,,,,,,,,,6,3.254000187,6,0.190000057,1,0,1200,843,1,1199,garden,11115,2019-10-28_09h09.31.416,SurveyExpMetaMem,3.2.3,Win32,60
,,,,,,,,,,,,,,,,,,,,5,1.887000084,5,0.23300004,1,0,1200,812,1,1199,harp,11115,2019-10-28_09h09.31.416,SurveyExpMetaMem,3.2.3,Win32,60
,,,,,,,,,,,,,,,,,,,,5,1.022000074,5,0.257999897,1,0,1200,582,1,1199,cling,11115,2019-10-28_09h09.31.416,SurveyExpMetaMem,3.2.3,Win32,60
,,,,,,,,,,,,,,,,,,,,6,3.006000042,6,0.197000027,1,0,1200,892,1,1199,untroubled,11115,2019-10-28_09h09.31.416,SurveyExpMetaMem,3.2.3,Win32,60
,,,,,,,,,,,,,,,,,,,,4,3.600000143,6,0.373000145,1,0,1200,825,1,1199,swan,11115,2019-10-28_09h09.31.416,SurveyExpMetaMem,3.2.3,Win32,60
,,,,,,,,,,,,,,,,,,,,6,2.022000074,6,0.182999849,1,0,1200,851,1,1199,cool,11115,2019-10-28_09h09.31.416,SurveyExpMetaMem,3.2.3,Win32,60
,,,,,,,,,,,,,,,,,,,,6,2.354000092,7,0.224999905,1,0,1200,224,1,1199,strengthen,11115,2019-10-28_09h09.31.416,SurveyExpMetaMem,3.2.3,Win32,60
,,,,,,,,,,,,,,,,,,,,6,1.768999815,7,0.214999914,1,0,1200,152,1,1199,hire,11115,2019-10-28_09h09.31.416,SurveyExpMetaMem,3.2.3,Win32,60
,,,,,,,,,,,,,,,,,,,,5,2.672999859,5,0.425000191,1,0,1200,591,1,1199,bereavement,11115,2019-10-28_09h09.31.416,SurveyExpMetaMem,3.2.3,Win32,60
,,,,,,,,,,,,,,,,,,,,5,1.276000023,5,0.224000216,1,0,1200,535,1,1199,ramble,11115,2019-10-28_09h09.31.416,SurveyExpMetaMem,3.2.3,Win32,60
,,,,,,,,,,,,,,,,,,,,6,2.172999859,6,0.210000038,1,0,1200,889,1,1199,wise,11115,2019-10-28_09h09.31.416,SurveyExpMetaMem,3.2.3,Win32,60
,,,,,,,,,,,,,,,,,,,,5,3.542000055,5,0.189999819,1,0,1200,692,1,1199,medicine,11115,2019-10-28_09h09.31.416,SurveyExpMetaMem,3.2.3,Win32,60
,,,,,,,,,,,,,,,,,,,,7,4.419999838,8,0.345999956,1,0,1200,348,1,1199,impotent,11115,2019-10-28_09h09.31.416,SurveyExpMetaMem,3.2.3,Win32,60
,,,,,,,,,,,,,,,,,,,,5,2.171000004,5,0.15899992,1,0,1200,1174,1,1199,beast,11115,2019-10-28_09h09.31.416,SurveyExpMetaMem,3.2.3,Win32,60
,,,,,,,,,,,,,,,,,,,,6,1.710000038,7,0.190999985,1,0,1200,91,1,1199,pretty,11115,2019-10-28_09h09.31.416,SurveyExpMetaMem,3.2.3,Win32,60
,,,,,,,,,,,,,,,,,,,,6,1.606000185,2,0.779000044,1,0,1200,969,1,1199,whore,11115,2019-10-28_09h09.31.416,SurveyExpMetaMem,3.2.3,Win32,60
,,,,,,,,,,,,,,,,,,,,5,1.229000092,5,0.200000048,1,0,1200,649,1,1199,donkey,11115,2019-10-28_09h09.31.416,SurveyExpMetaMem,3.2.3,Win32,60
,,,,,,,,,,,,,,,,,,,,7,3.303999901,2,1.046000004,1,0,1200,1095,1,1199,fright,11115,2019-10-28_09h09.31.416,SurveyExpMetaMem,3.2.3,Win32,60
,,,,,,,,,,,,,,,,,,,,5,1.962000132,5,0.19900012,1,0,1200,686,1,1199,phone,11115,2019-10-28_09h09.31.416,SurveyExpMetaMem,3.2.3,Win32,60
,,,,,,,,,,,,,,,,,,,,5,3.129999876,4,0.27699995,1,0,1200,494,1,1199,butcher,11115,2019-10-28_09h09.31.416,SurveyExpMetaMem,3.2.3,Win32,60
,,,,,,,,,,,,,,,,,,,,6,5.860000134,3,0.684000015,1,0,1200,959,1,1199,divorce,11115,2019-10-28_09h09.31.416,SurveyExpMetaMem,3.2.3,Win32,60
,,,,,,,,,,,,,,,,,,,,7,6.953000069,7,0.24000001,1,0,1200,136,1,1199,dog,11115,2019-10-28_09h09.31.416,SurveyExpMetaMem,3.2.3,Win32,60
,,,,,,,,,,,,,,,,,,,,7,2.053999901,2,0.508999825,1,0,1200,1062,1,1199,shoplifter,11115,2019-10-28_09h09.31.416,SurveyExpMetaMem,3.2.3,Win32,60
,,,,,,,,,,,,,,,,,,,,6,3.786999941,4,0.279000044,1,0,1200,435,1,1199,grovel,11115,2019-10-28_09h09.31.416,SurveyExpMetaMem,3.2.3,Win32,60
,,,,,,,,,,,,,,,,,,,,5,3.279999971,5,0.252000093,1,0,1200,469,1,1199,resent,11115,2019-10-28_09h09.31.416,SurveyExpMetaMem,3.2.3,Win32,60
,,,,,,,,,,,,,,,,,,,,6,1.93900013,3,1.193000078,1,0,1200,1017,1,1199,aggravated,11115,2019-10-28_09h09.31.416,SurveyExpMetaMem,3.2.3,Win32,60
,,,,,,,,,,,,,,,,,,,,5,1.996999979,5,0.47300005,1,0,1200,44,1,1199,diploma,11115,2019-10-28_09h09.31.416,SurveyExpMetaMem,3.2.3,Win32,60
,,,,,,,,,,,,,,,,,,,,6,1.644000053,6,0.424000025,1,0,1200,20,1,1199,climax,11115,2019-10-28_09h09.31.416,SurveyExpMetaMem,3.2.3,Win32,60
,,,,,,,,,,,,,,,,,,,,5,1.89199996,4,0.441000223,1,0,1200,1050,1,1199,scorn,11115,2019-10-28_09h09.31.416,SurveyExpMetaMem,3.2.3,Win32,60
,,,,,,,,,,,,,,,,,,,,5,1.753999949,5,0.860000134,1,0,1200,794,1,1199,pray,11115,2019-10-28_09h09.31.416,SurveyExpMetaMem,3.2.3,Win32,60
,,,,,,,,,,,,,,,,,,,,6,4.426000118,7,0.277999878,1,0,1200,781,1,1199,emerald,11115,2019-10-28_09h09.31.416,SurveyExpMetaMem,3.2.3,Win32,60
,,,,,,,,,,,,,,,,,,,,5,2.004000187,4,0.229000092,1,0,1200,1103,1,1199,mob,11115,2019-10-28_09h09.31.416,SurveyExpMetaMem,3.2.3,Win32,60
,,,,,,,,,,,,,,,,,,,,5,13.01300001,6,0.417000055,1,0,1200,1020,1,1199,malice,11115,2019-10-28_09h09.31.416,SurveyExpMetaMem,3.2.3,Win32,60
,,,,,,,,,,,,,,,,,,,,6,15.34100008,4,0.43900013,1,0,1200,246,1,1199,complete,11115,2019-10-28_09h09.31.416,SurveyExpMetaMem,3.2.3,Win32,60
,,,,,,,,,,,,,,,,,,,,6,2.412999868,2,0.908000231,1,0,1200,379,1,1199,slob,11115,2019-10-28_09h09.31.416,SurveyExpMetaMem,3.2.3,Win32,60
,,,,,,,,,,,,,,,,,,,,7,1.84800005,2,0.707999945,1,0,1200,384,1,1199,idiot,11115,2019-10-28_09h09.31.416,SurveyExpMetaMem,3.2.3,Win32,60
,,,,,,,,,,,,,,,,,,,,5,1.496999979,5,0.292999983,1,0,1200,710,1,1199,gender,11115,2019-10-28_09h09.31.416,SurveyExpMetaMem,3.2.3,Win32,60
,,,,,,,,,,,,,,,,,,,,5,6.413000107,4,0.43900013,1,0,1200,570,1,1199,muddy,11115,2019-10-28_09h09.31.416,SurveyExpMetaMem,3.2.3,Win32,60
,,,,,,,,,,,,,,,,,,,,6,3.886999846,3,0.427000046,1,0,1200,380,1,1199,expire,11115,2019-10-28_09h09.31.416,SurveyExpMetaMem,3.2.3,Win32,60
,,,,,,,,,,,,,,,,,,,,6,1.572000027,4,0.480000019,1,0,1200,1061,1,1199,difficult,11115,2019-10-28_09h09.31.416,SurveyExpMetaMem,3.2.3,Win32,60
,,,,,,,,,,,,,,,,,,,,6,6.054999828,5,0.235000134,1,0,1200,539,1,1199,novice,11115,2019-10-28_09h09.31.416,SurveyExpMetaMem,3.2.3,Win32,60
,,,,,,,,,,,,,,,,,,,,6,2.503000021,3,0.275000095,1,0,1200,1150,1,1199,forceful,11115,2019-10-28_09h09.31.416,SurveyExpMetaMem,3.2.3,Win32,60
,,,,,,,,,,,,,,,,,,,,5,1.671999931,5,0.273999929,1,0,1200,203,1,1199,seal,11115,2019-10-28_09h09.31.416,SurveyExpMetaMem,3.2.3,Win32,60
,,,,,,,,,,,,,,,,,,,,6,2.140000105,6,0.21600008,1,0,1200,85,1,1199,like,11115,2019-10-28_09h09.31.416,SurveyExpMetaMem,3.2.3,Win32,60
,,,,,,,,,,,,,,,,,,,,6,1.648999929,4,0.446000099,1,0,1200,1184,1,1199,reckless,11115,2019-10-28_09h09.31.416,SurveyExpMetaMem,3.2.3,Win32,60
,,,,,,,,,,,,,,,,,,,,5,1.93900013,5,0.171000004,1,0,1200,565,1,1199,frozen,11115,2019-10-28_09h09.31.416,SurveyExpMetaMem,3.2.3,Win32,60
,,,,,,,,,,,,,,,,,,,,6,1.489000082,7,0.173000097,1,0,1200,857,1,1199,thankful,11115,2019-10-28_09h09.31.416,SurveyExpMetaMem,3.2.3,Win32,60
,,,,,,,,,,,,,,,,,,,,5,1.394000053,5,0.226999998,1,0,1200,421,1,1199,stale,11115,2019-10-28_09h09.31.416,SurveyExpMetaMem,3.2.3,Win32,60
,,,,,,,,,,,,,,,,,,,,5,1.445000172,5,0.20600009,1,0,1200,770,1,1199,buffalo,11115,2019-10-28_09h09.31.416,SurveyExpMetaMem,3.2.3,Win32,60
,,,,,,,,,,,,,,,,,,,,5,2.417000055,5,0.21600008,1,0,1200,425,1,1199,crutch,11115,2019-10-28_09h09.31.416,SurveyExpMetaMem,3.2.3,Win32,60
,,,,,,,,,,,,,,,,,,,,5,1.200000048,5,0.22300005,1,0,1200,580,1,1199,fur,11115,2019-10-28_09h09.31.416,SurveyExpMetaMem,3.2.3,Win32,60
,,,,,,,,,,,,,,,,,,,,6,1.611999989,7,0.222999811,1,0,1200,74,1,1199,explore,11115,2019-10-28_09h09.31.416,SurveyExpMetaMem,3.2.3,Win32,60
,,,,,,,,,,,,,,,,,,,,5,2.154999971,4,0.149999857,1,0,1200,439,1,1199,spit,11115,2019-10-28_09h09.31.416,SurveyExpMetaMem,3.2.3,Win32,60
,,,,,,,,,,,,,,,,,,,,5,1.954999924,5,0.200000048,1,0,1200,906,1,1199,syphilis,11115,2019-10-28_09h09.31.416,SurveyExpMetaMem,3.2.3,Win32,60
,,,,,,,,,,,,,,,,,,,,6,1.880999804,7,0.259000063,1,0,1200,81,1,1199,best,11115,2019-10-28_09h09.31.416,SurveyExpMetaMem,3.2.3,Win32,60
,,,,,,,,,,,,,,,,,,,,6,3.164000034,3,0.315000057,1,0,1200,1009,1,1199,frightened,11115,2019-10-28_09h09.31.416,SurveyExpMetaMem,3.2.3,Win32,60
,,,,,,,,,,,,,,,,,,,,5,1.31400013,5,0.190999985,1,0,1200,656,1,1199,number,11115,2019-10-28_09h09.31.416,SurveyExpMetaMem,3.2.3,Win32,60
,,,,,,,,,,,,,,,,,,,,6,2.023000002,5,0.805999994,1,0,1200,623,1,1199,suburban,11115,2019-10-28_09h09.31.416,SurveyExpMetaMem,3.2.3,Win32,60
,,,,,,,,,,,,,,,,,,,,6,3.160000086,3,0.214000225,1,0,1200,416,1,1199,boring,11115,2019-10-28_09h09.31.416,SurveyExpMetaMem,3.2.3,Win32,60
,,,,,,,,,,,,,,,,,,,,7,8.036999941,2,0.639000177,1,0,1200,932,1,1199,bankrupt,11115,2019-10-28_09h09.31.416,SurveyExpMetaMem,3.2.3,Win32,60
,,,,,,,,,,,,,,,,,,,,7,1.941999912,9,0.423000097,1,0,1200,188,1,1199,profit,11115,2019-10-28_09h09.31.416,SurveyExpMetaMem,3.2.3,Win32,60
,,,,,,,,,,,,,,,,,,,,5,14.31100011,5,2.496000051,1,0,1200,823,1,1199,nourish,11115,2019-10-28_09h09.31.416,SurveyExpMetaMem,3.2.3,Win32,60
,,,,,,,,,,,,,,,,,,,,6,1.630000114,3,0.326999903,1,0,1200,309,1,1199,homeless,11115,2019-10-28_09h09.31.416,SurveyExpMetaMem,3.2.3,Win32,60
,,,,,,,,,,,,,,,,,,,,5,1.490999937,5,0.157999992,1,0,1200,600,1,1199,parlor,11115,2019-10-28_09h09.31.416,SurveyExpMetaMem,3.2.3,Win32,60
,,,,,,,,,,,,,,,,,,,,6,2.148000002,3,0.57400012,1,0,1200,329,1,1199,worse,11115,2019-10-28_09h09.31.416,SurveyExpMetaMem,3.2.3,Win32,60
,,,,,,,,,,,,,,,,,,,,5,2901.325,5,0.164000034,1,0,1200,356,1,1199,mucous,11115,2019-10-28_09h09.31.416,SurveyExpMetaMem,3.2.3,Win32,60
,,,,,,,,,,,,,,,,,,,,6,2.838000059,4,1.212000132,1,0,1200,1126,1,1199,offensive,11115,2019-10-28_09h09.31.416,SurveyExpMetaMem,3.2.3,Win32,60
,,,,,,,,,,,,,,,,,,,,3,4.379000187,6,2.664000034,1,0,1200,677,1,1199,handwriting,11115,2019-10-28_09h09.31.416,SurveyExpMetaMem,3.2.3,Win32,60
,,,,,,,,,,,,,,,,,,,,5,1.813999891,5,0.214999914,1,0,1200,1190,1,1199,clench,11115,2019-10-28_09h09.31.416,SurveyExpMetaMem,3.2.3,Win32,60
,,,,,,,,,,,,,,,,,,,,7,3.940999985,4,0.615999937,1,0,1200,54,1,1199,alcohol,11115,2019-10-28_09h09.31.416,SurveyExpMetaMem,3.2.3,Win32,60
,,,,,,,,,,,,,,,,,,,,6,3.970000029,6,0.335000038,1,0,1200,1112,1,1199,pressure,11115,2019-10-28_09h09.31.416,SurveyExpMetaMem,3.2.3,Win32,60
,,,,,,,,,,,,,,,,,,,,7,7.071000099,4,0.615999937,1,0,1200,1037,1,1199,scared,11115,2019-10-28_09h09.31.416,SurveyExpMetaMem,3.2.3,Win32,60
,,,,,,,,,,,,,,,,,,,,6,4.269999981,3,0.560000181,1,0,1200,457,1,1199,confuse,11115,2019-10-28_09h09.31.416,SurveyExpMetaMem,3.2.3,Win32,60
,,,,,,,,,,,,,,,,,,,,7,5.322000027,4,2.190999985,1,0,1200,431,1,1199,itch,11115,2019-10-28_09h09.31.416,SurveyExpMetaMem,3.2.3,Win32,60
,,,,,,,,,,,,,,,,,,,,6,2.636999846,6,0.988999844,1,0,1200,157,1,1199,reveal,11115,2019-10-28_09h09.31.416,SurveyExpMetaMem,3.2.3,Win32,60
,,,,,,,,,,,,,,,,,,,,6,2.875999928,6,0.274999857,1,0,1200,109,1,1199,new,11115,2019-10-28_09h09.31.416,SurveyExpMetaMem,3.2.3,Win32,60
,,,,,,,,,,,,,,,,,,,,6,3.737999916,3,0.959000111,1,0,1200,326,1,1199,scam,11115,2019-10-28_09h09.31.416,SurveyExpMetaMem,3.2.3,Win32,60
,,,,,,,,,,,,,,,,,,,,5,2.355000019,5,0.329999924,1,0,1200,801,1,1199,noon,11115,2019-10-28_09h09.31.416,SurveyExpMetaMem,3.2.3,Win32,60
,,,,,,,,,,,,,,,,,,,,6,8.858999968,7,1.644999981,1,0,1200,92,1,1199,justice,11115,2019-10-28_09h09.31.416,SurveyExpMetaMem,3.2.3,Win32,60
,,,,,,,,,,,,,,,,,,,,5,6.743000031,5,0.376000166,1,0,1200,10,1,1199,cheerleader,11115,2019-10-28_09h09.31.416,SurveyExpMetaMem,3.2.3,Win32,60
,,,,,,,,,,,,,,,,,,,,6,2.169000149,6,0.309999943,1,0,1200,732,1,1199,humble,11115,2019-10-28_09h09.31.416,SurveyExpMetaMem,3.2.3,Win32,60
,,,,,,,,,,,,,,,,,,,,7,3.789000034,7,0.713000059,1,0,1200,289,1,1199,concert,11115,2019-10-28_09h09.31.416,SurveyExpMetaMem,3.2.3,Win32,60
,,,,,,,,,,,,,,,,,,,,5,2.304000139,5,0.30700016,1,0,1200,596,1,1199,factory,11115,2019-10-28_09h09.31.416,SurveyExpMetaMem,3.2.3,Win32,60
,,,,,,,,,,,,,,,,,,,,6,2.855999947,3,0.588999987,1,0,1200,364,1,1199,stink,11115,2019-10-28_09h09.31.416,SurveyExpMetaMem,3.2.3,Win32,60
,,,,,,,,,,,,,,,,,,,,5,4.238000154,3,1.726999998,1,0,1200,1046,1,1199,unsafe,11115,2019-10-28_09h09.31.416,SurveyExpMetaMem,3.2.3,Win32,60
,,,,,,,,,,,,,,,,,,,,6,6.003000021,3,1.230999947,1,0,1200,966,1,1199,regretful,11115,2019-10-28_09h09.31.416,SurveyExpMetaMem,3.2.3,Win32,60
,,,,,,,,,,,,,,,,,,,,5,1.996000051,5,0.194000006,1,0,1200,280,1,1199,cookout,11115,2019-10-28_09h09.31.416,SurveyExpMetaMem,3.2.3,Win32,60
,,,,,,,,,,,,,,,,,,,,5,1.739000082,5,0.197999954,1,0,1200,129,1,1199,fly,11115,2019-10-28_09h09.31.416,SurveyExpMetaMem,3.2.3,Win32,60
,,,,,,,,,,,,,,,,,,,,6,2.522000074,2,0.813000202,1,0,1200,955,1,1199,drown,11115,2019-10-28_09h09.31.416,SurveyExpMetaMem,3.2.3,Win32,60
,,,,,,,,,,,,,,,,,,,,5,4.787999868,5,0.25,1,0,1200,228,1,1199,suite,11115,2019-10-28_09h09.31.416,SurveyExpMetaMem,3.2.3,Win32,60
,,,,,,,,,,,,,,,,,,,,6,2.059999943,8,3.174999952,1,0,1200,45,1,1199,sex,11115,2019-10-28_09h09.31.416,SurveyExpMetaMem,3.2.3,Win32,60
,,,,,,,,,,,,,,,,,,,,5,4.94299984,5,0.226000071,1,0,1200,652,1,1199,tend,11115,2019-10-28_09h09.31.416,SurveyExpMetaMem,3.2.3,Win32,60
,,,,,,,,,,,,,,,,,,,,6,2.979000092,3,0.649000168,1,0,1200,964,1,1199,grieve,11115,2019-10-28_09h09.31.416,SurveyExpMetaMem,3.2.3,Win32,60
,,,,,,,,,,,,,,,,,,,,5,6.188000202,5,0.478000164,1,0,1200,648,1,1199,beads,11115,2019-10-28_09h09.31.416,SurveyExpMetaMem,3.2.3,Win32,60
,,,,,,,,,,,,,,,,,,,,5,1.70600009,5,0.184000015,1,0,1200,998,1,1199,virus,11115,2019-10-28_09h09.31.416,SurveyExpMetaMem,3.2.3,Win32,60
,,,,,,,,,,,,,,,,,,,,4,2.660000086,4,0.408000231,1,0,1200,345,1,1199,unfortunate,11115,2019-10-28_09h09.31.416,SurveyExpMetaMem,3.2.3,Win32,60
,,,,,,,,,,,,,,,,,,,,5,2.855999947,5,0.273000002,1,0,1200,393,1,1199,droop,11115,2019-10-28_09h09.31.416,SurveyExpMetaMem,3.2.3,Win32,60
,,,,,,,,,,,,,,,,,,,,6,2.857000113,3,0.497000217,1,0,1200,1054,1,1199,jealous,11115,2019-10-28_09h09.31.416,SurveyExpMetaMem,3.2.3,Win32,60
,,,,,,,,,,,,,,,,,,,,5,6.049000025,5,0.569999933,1,0,1200,603,1,1199,mane,11115,2019-10-28_09h09.31.416,SurveyExpMetaMem,3.2.3,Win32,60
,,,,,,,,,,,,,,,,,,,,6,2.386000156,5,0.710999966,1,0,1200,1134,1,1199,obsessed,11115,2019-10-28_09h09.31.416,SurveyExpMetaMem,3.2.3,Win32,60
,,,,,,,,,,,,,,,,,,,,5,4.005000114,5,0.207999945,1,0,1200,1137,1,1199,knife,11115,2019-10-28_09h09.31.416,SurveyExpMetaMem,3.2.3,Win32,60
,,,,,,,,,,,,,,,,,,,,6,3.173000097,6,0.723999977,1,0,1200,660,1,1199,rock,11115,2019-10-28_09h09.31.416,SurveyExpMetaMem,3.2.3,Win32,60
,,,,,,,,,,,,,,,,,,,,4,6.053999901,4,0.375,1,0,1200,305,1,1199,frown,11115,2019-10-28_09h09.31.416,SurveyExpMetaMem,3.2.3,Win32,60
,,,,,,,,,,,,,,,,,,,,7,2.638999939,8,0.757999897,1,0,1200,261,1,1199,windsurfers,11115,2019-10-28_09h09.31.416,SurveyExpMetaMem,3.2.3,Win32,60
,,,,,,,,,,,,,,,,,,,,6,8.455000162,8,0.589999914,1,0,1200,90,1,1199,satisfaction,11115,2019-10-28_09h09.31.416,SurveyExpMetaMem,3.2.3,Win32,60
,,,,,,,,,,,,,,,,,,,,7,3.638999939,7,0.443000078,1,0,1200,36,1,1199,puppy,11115,2019-10-28_09h09.31.416,SurveyExpMetaMem,3.2.3,Win32,60
,,,,,,,,,,,,,,,,,,,,6,3.703999996,3,0.726000071,1,0,1200,1166,1,1199,compulsive,11115,2019-10-28_09h09.31.416,SurveyExpMetaMem,3.2.3,Win32,60
,,,,,,,,,,,,,,,,,,,,6,4.27300024,5,1.773999929,1,0,1200,1192,1,1199,startled,11115,2019-10-28_09h09.31.416,SurveyExpMetaMem,3.2.3,Win32,60
,,,,,,,,,,,,,,,,,,,,5,4.269999981,5,0.161999941,1,0,1200,221,1,1199,sparkle,11115,2019-10-28_09h09.31.416,SurveyExpMetaMem,3.2.3,Win32,60
,,,,,,,,,,,,,,,,,,,,6,2.889999866,3,0.523999929,1,0,1200,1106,1,1199,pushy,11115,2019-10-28_09h09.31.416,SurveyExpMetaMem,3.2.3,Win32,60
,,,,,,,,,,,,,,,,,,,,5,3.888999939,5,0.166000128,1,0,1200,546,1,1199,solemn,11115,2019-10-28_09h09.31.416,SurveyExpMetaMem,3.2.3,Win32,60
,,,,,,,,,,,,,,,,,,,,5,1.513999939,5,0.226000071,1,0,1200,662,1,1199,bib,11115,2019-10-28_09h09.31.416,SurveyExpMetaMem,3.2.3,Win32,60
,,,,,,,,,,,,,,,,,,,,6,1.460000038,6,1.289000034,1,0,1200,260,1,1199,control,11115,2019-10-28_09h09.31.416,SurveyExpMetaMem,3.2.3,Win32,60
,,,,,,,,,,,,,,,,,,,,7,2.143000126,2,0.789999962,1,0,1200,318,1,1199,disappointment,11115,2019-10-28_09h09.31.416,SurveyExpMetaMem,3.2.3,Win32,60
,,,,,,,,,,,,,,,,,,,,6,2.705999851,6,0.183000088,1,0,1200,286,1,1199,superstar,11115,2019-10-28_09h09.31.416,SurveyExpMetaMem,3.2.3,Win32,60
,,,,,,,,,,,,,,,,,,,,5,1.246999979,5,0.222000122,1,0,1200,549,1,1199,beet,11115,2019-10-28_09h09.31.416,SurveyExpMetaMem,3.2.3,Win32,60
,,,,,,,,,,,,,,,,,,,,3,1.995000124,3,0.243999958,1,0,1200,487,1,1199,junk,11115,2019-10-28_09h09.31.416,SurveyExpMetaMem,3.2.3,Win32,60
,,,,,,,,,,,,,,,,,,,,6,1.639000177,6,0.207000017,1,0,1200,84,1,1199,eat,11115,2019-10-28_09h09.31.416,SurveyExpMetaMem,3.2.3,Win32,60
,,,,,,,,,,,,,,,,,,,,7,1.518000126,3,0.414000034,1,0,1200,1076,1,1199,embarrassed,11115,2019-10-28_09h09.31.416,SurveyExpMetaMem,3.2.3,Win32,60
,,,,,,,,,,,,,,,,,,,,6,2.815999985,2,0.73300004,1,0,1200,303,1,1199,death,11115,2019-10-28_09h09.31.416,SurveyExpMetaMem,3.2.3,Win32,60
,,,,,,,,,,,,,,,,,,,,5,2.228999853,5,0.172999859,1,0,1200,524,1,1199,sigh,11115,2019-10-28_09h09.31.416,SurveyExpMetaMem,3.2.3,Win32,60
,,,,,,,,,,,,,,,,,,,,5,1.697999954,5,0.191999912,1,0,1200,879,1,1199,bird,11115,2019-10-28_09h09.31.416,SurveyExpMetaMem,3.2.3,Win32,60
,,,,,,,,,,,,,,,,,,,,6,1.725000143,7,0.694000006,1,0,1200,240,1,1199,giggles,11115,2019-10-28_09h09.31.416,SurveyExpMetaMem,3.2.3,Win32,60
,,,,,,,,,,,,,,,,,,,,5,1.707999945,5,0.19299984,1,0,1200,684,1,1199,send,11115,2019-10-28_09h09.31.416,SurveyExpMetaMem,3.2.3,Win32,60
,,,,,,,,,,,,,,,,,,,,5,1.249000072,5,0.210000038,1,0,1200,513,1,1199,bland,11115,2019-10-28_09h09.31.416,SurveyExpMetaMem,3.2.3,Win32,60
,,,,,,,,,,,,,,,,,,,,6,1.743000031,6,0.17599988,1,0,1200,147,1,1199,cure,11115,2019-10-28_09h09.31.416,SurveyExpMetaMem,3.2.3,Win32,60
,,,,,,,,,,,,,,,,,,,,6,2.940999985,4,0.489000082,1,0,1200,1064,1,1199,sinful,11115,2019-10-28_09h09.31.416,SurveyExpMetaMem,3.2.3,Win32,60
,,,,,,,,,,,,,,,,,,,,5,3.575999975,4,0.455999851,1,0,1200,588,1,1199,bandage,11115,2019-10-28_09h09.31.416,SurveyExpMetaMem,3.2.3,Win32,60
,,,,,,,,,,,,,,,,,,,,6,2.136999846,3,0.947000027,1,0,1200,1048,1,1199,paranoid,11115,2019-10-28_09h09.31.416,SurveyExpMetaMem,3.2.3,Win32,60
,,,,,,,,,,,,,,,,,,,,5,1.661000013,5,0.259000063,1,0,1200,621,1,1199,chew,11115,2019-10-28_09h09.31.416,SurveyExpMetaMem,3.2.3,Win32,60
,,,,,,,,,,,,,,,,,,,,5,1.032999992,5,0.273000002,1,0,1200,1060,1,1199,dent,11115,2019-10-28_09h09.31.416,SurveyExpMetaMem,3.2.3,Win32,60
,,,,,,,,,,,,,,,,,,,,4,3.133999825,4,0.213000059,1,0,1200,253,1,1199,soldier,11115,2019-10-28_09h09.31.416,SurveyExpMetaMem,3.2.3,Win32,60
,,,,,,,,,,,,,,,,,,,,6,2.971999884,3,0.40899992,1,0,1200,1014,1,1199,destroy,11115,2019-10-28_09h09.31.416,SurveyExpMetaMem,3.2.3,Win32,60
,,,,,,,,,,,,,,,,,,,,6,1.846000195,7,0.225999832,1,0,1200,134,1,1199,dollar,11115,2019-10-28_09h09.31.416,SurveyExpMetaMem,3.2.3,Win32,60
,,,,,,,,,,,,,,,,,,,,7,2.573000193,2,0.775000095,1,0,1200,985,1,1199,pollution,11115,2019-10-28_09h09.31.416,SurveyExpMetaMem,3.2.3,Win32,60
,,,,,,,,,,,,,,,,,,,,6,4.305999994,6,0.826999903,1,0,1200,167,1,1199,casino,11115,2019-10-28_09h09.31.416,SurveyExpMetaMem,3.2.3,Win32,60
,,,,,,,,,,,,,,,,,,,,6,3.70299983,2,0.57400012,1,0,1200,310,1,1199,lonely,11115,2019-10-28_09h09.31.416,SurveyExpMetaMem,3.2.3,Win32,60
,,,,,,,,,,,,,,,,,,,,5,1.512000084,5,0.373999834,1,0,1200,818,1,1199,priest,11115,2019-10-28_09h09.31.416,SurveyExpMetaMem,3.2.3,Win32,60
,,,,,,,,,,,,,,,,,,,,6,1.627000093,7,0.157999992,1,0,1200,87,1,1199,cookie,11115,2019-10-28_09h09.31.416,SurveyExpMetaMem,3.2.3,Win32,60
,,,,,,,,,,,,,,,,,,,,5,1.862999916,5,0.24000001,1,0,1200,532,1,1199,recede,11115,2019-10-28_09h09.31.416,SurveyExpMetaMem,3.2.3,Win32,60
,,,,,,,,,,,,,,,,,,,,6,3.262000084,8,0.825999975,1,0,1200,47,1,1199,enjoy,11115,2019-10-28_09h09.31.416,SurveyExpMetaMem,3.2.3,Win32,60
,,,,,,,,,,,,,,,,,,,,5,2.187999964,5,0.289999962,1,0,1200,440,1,1199,forgot,11115,2019-10-28_09h09.31.416,SurveyExpMetaMem,3.2.3,Win32,60
,,,,,,,,,,,,,,,,,,,,5,2.005000114,5,0.18900013,1,0,1200,748,1,1199,town,11115,2019-10-28_09h09.31.416,SurveyExpMetaMem,3.2.3,Win32,60
,,,,,,,,,,,,,,,,,,,,6,3.980999947,6,0.200000048,1,0,1200,179,1,1199,star,11115,2019-10-28_09h09.31.416,SurveyExpMetaMem,3.2.3,Win32,60
,,,,,,,,,,,,,,,,,,,,7,1.890000105,7,0.174000025,1,0,1200,130,1,1199,great,11115,2019-10-28_09h09.31.416,SurveyExpMetaMem,3.2.3,Win32,60
,,,,,,,,,,,,,,,,,,,,5,1.640999794,5,0.197999954,1,0,1200,1169,1,1199,enforcement,11115,2019-10-28_09h09.31.416,SurveyExpMetaMem,3.2.3,Win32,60
,,,,,,,,,,,,,,,,,,,,5,1.429000139,5,0.22300005,1,0,1200,774,1,1199,leaves,11115,2019-10-28_09h09.31.416,SurveyExpMetaMem,3.2.3,Win32,60
,,,,,,,,,,,,,,,,,,,,5,1.273000002,5,0.213000059,1,0,1200,502,1,1199,crap,11115,2019-10-28_09h09.31.416,SurveyExpMetaMem,3.2.3,Win32,60
,,,,,,,,,,,,,,,,,,,,5,0.837000132,5,0.197000027,1,0,1200,1068,1,1199,riot,11115,2019-10-28_09h09.31.416,SurveyExpMetaMem,3.2.3,Win32,60
,,,,,,,,,,,,,,,,,,,,6,2.339999914,3,0.405999899,1,0,1200,1029,1,1199,abduction,11115,2019-10-28_09h09.31.416,SurveyExpMetaMem,3.2.3,Win32,60
,,,,,,,,,,,,,,,,,,,,5,2.132999897,5,0.559000015,1,0,1200,650,1,1199,native,11115,2019-10-28_09h09.31.416,SurveyExpMetaMem,3.2.3,Win32,60
,,,,,,,,,,,,,,,,,,,,5,2.129999876,5,0.382000208,1,0,1200,1093,1,1199,hive,11115,2019-10-28_09h09.31.416,SurveyExpMetaMem,3.2.3,Win32,60
,,,,,,,,,,,,,,,,,,,,5,0.955000162,5,0.298000097,1,0,1200,151,1,1199,react,11115,2019-10-28_09h09.31.416,SurveyExpMetaMem,3.2.3,Win32,60
,,,,,,,,,,,,,,,,,,,,5,1.381000042,5,0.190999985,1,0,1200,994,1,1199,repulsed,11115,2019-10-28_09h09.31.416,SurveyExpMetaMem,3.2.3,Win32,60
,,,,,,,,,,,,,,,,,,,,6,2.273999929,4,0.243999958,1,0,1200,450,1,1199,overcast,11115,2019-10-28_09h09.31.416,SurveyExpMetaMem,3.2.3,Win32,60
,,,,,,,,,,,,,,,,,,,,5,1.954999924,5,0.167000055,1,0,1200,278,1,1199,king,11115,2019-10-28_09h09.31.416,SurveyExpMetaMem,3.2.3,Win32,60
,,,,,,,,,,,,,,,,,,,,5,0.982000113,5,0.24000001,1,0,1200,0,1,1199,dragon,11115,2019-10-28_09h09.31.416,SurveyExpMetaMem,3.2.3,Win32,60
,,,,,,,,,,,,,,,,,,,,6,1.804000139,7,0.256999969,1,0,1200,288,1,1199,tasty,11115,2019-10-28_09h09.31.416,SurveyExpMetaMem,3.2.3,Win32,60
,,,,,,,,,,,,,,,,,,,,5,2.236999989,5,0.241000175,1,0,1200,676,1,1199,straighten,11115,2019-10-28_09h09.31.416,SurveyExpMetaMem,3.2.3,Win32,60
,,,,,,,,,,,,,,,,,,,,5,2.197000027,5,0.309000015,1,0,1200,683,1,1199,scarf,11115,2019-10-28_09h09.31.416,SurveyExpMetaMem,3.2.3,Win32,60
,,,,,,,,,,,,,,,,,,,,5,1.254000187,5,0.229000092,1,0,1200,18,1,1199,mail,11115,2019-10-28_09h09.31.416,SurveyExpMetaMem,3.2.3,Win32,60
,,,,,,,,,,,,,,,,,,,,6,2.313999891,7,0.289999962,1,0,1200,22,1,1199,doughnut,11115,2019-10-28_09h09.31.416,SurveyExpMetaMem,3.2.3,Win32,60
,,,,,,,,,,,,,,,,,,,,5,1.658000231,5,3.378000021,1,0,1200,599,1,1199,obstinate,11115,2019-10-28_09h09.31.416,SurveyExpMetaMem,3.2.3,Win32,60
,,,,,,,,,,,,,,,,,,,,5,2.109999895,5,0.292999983,1,0,1200,1197,1,1199,command,11115,2019-10-28_09h09.31.416,SurveyExpMetaMem,3.2.3,Win32,60
,,,,,,,,,,,,,,,,,,,,7,2.037999868,1,0.677000046,1,0,1200,330,1,1199,sunburn,11115,2019-10-28_09h09.31.416,SurveyExpMetaMem,3.2.3,Win32,60
,,,,,,,,,,,,,,,,,,,,6,3.901000023,4,0.242000103,1,0,1200,233,1,1199,exhilaration,11115,2019-10-28_09h09.31.416,SurveyExpMetaMem,3.2.3,Win32,60
,,,,,,,,,,,,,,,,,,,,6,1.799000025,8,1.444000006,1,0,1200,295,1,1199,passion,11115,2019-10-28_09h09.31.416,SurveyExpMetaMem,3.2.3,Win32,60
,,,,,,,,,,,,,,,,,,,,6,3.055999994,6,0.289999962,1,0,1200,644,1,1199,farm,11115,2019-10-28_09h09.31.416,SurveyExpMetaMem,3.2.3,Win32,60
,,,,,,,,,,,,,,,,,,,,4,4.275000095,4,0.363000154,1,0,1200,407,1,1199,handicap,11115,2019-10-28_09h09.31.416,SurveyExpMetaMem,3.2.3,Win32,60
,,,,,,,,,,,,,,,,,,,,5,5.546000004,5,0.24000001,1,0,1200,322,1,1199,widow,11115,2019-10-28_09h09.31.416,SurveyExpMetaMem,3.2.3,Win32,60
,,,,,,,,,,,,,,,,,,,,6,3.493999958,6,1.696000099,1,0,1200,631,1,1199,delicate,11115,2019-10-28_09h09.31.416,SurveyExpMetaMem,3.2.3,Win32,60
,,,,,,,,,,,,,,,,,,,,5,7.653000116,5,0.246999979,1,0,1200,636,1,1199,refine,11115,2019-10-28_09h09.31.416,SurveyExpMetaMem,3.2.3,Win32,60
,,,,,,,,,,,,,,,,,,,,6,1.562000036,4,0.355000019,1,0,1200,243,1,1199,fame,11115,2019-10-28_09h09.31.416,SurveyExpMetaMem,3.2.3,Win32,60
,,,,,,,,,,,,,,,,,,,,6,2.289000034,6,0.322999954,1,0,1200,673,1,1199,bedspread,11115,2019-10-28_09h09.31.416,SurveyExpMetaMem,3.2.3,Win32,60
,,,,,,,,,,,,,,,,,,,,4,2.954999924,8,0.757000208,1,0,1200,871,1,1199,comfort,11115,2019-10-28_09h09.31.416,SurveyExpMetaMem,3.2.3,Win32,60
,,,,,,,,,,,,,,,,,,,,5,3.131000042,5,0.248000145,1,0,1200,451,1,1199,lame,11115,2019-10-28_09h09.31.416,SurveyExpMetaMem,3.2.3,Win32,60
,,,,,,,,,,,,,,,,,,,,5,1.078000069,5,0.243000031,1,0,1200,633,1,1199,cattle,11115,2019-10-28_09h09.31.416,SurveyExpMetaMem,3.2.3,Win32,60
,,,,,,,,,,,,,,,,,,,,6,2.083000183,7,0.463000059,1,0,1200,171,1,1199,imagination,11115,2019-10-28_09h09.31.416,SurveyExpMetaMem,3.2.3,Win32,60
,,,,,,,,,,,,,,,,,,,,4,2.52699995,4,0.207999945,1,0,1200,1041,1,1199,sin,11115,2019-10-28_09h09.31.416,SurveyExpMetaMem,3.2.3,Win32,60
,,,,,,,,,,,,,,,,,,,,6,1.726000071,6,0.316999912,1,0,1200,250,1,1199,erupt,11115,2019-10-28_09h09.31.416,SurveyExpMetaMem,3.2.3,Win32,60
,,,,,,,,,,,,,,,,,,,,6,2.45299983,2,0.521999836,1,0,1200,378,1,1199,dislike,11115,2019-10-28_09h09.31.416,SurveyExpMetaMem,3.2.3,Win32,60
,,,,,,,,,,,,,,,,,,,,6,2.773000002,3,0.611000061,1,0,1200,1186,1,1199,goddamn,11115,2019-10-28_09h09.31.416,SurveyExpMetaMem,3.2.3,Win32,60
,,,,,,,,,,,,,,,,,,,,7,2.189999819,7,0.255000114,1,0,1200,249,1,1199,award,11115,2019-10-28_09h09.31.416,SurveyExpMetaMem,3.2.3,Win32,60
,,,,,,,,,,,,,,,,,,,,7,3.18900013,3,1.072999954,1,0,1200,1116,1,1199,emergency,11115,2019-10-28_09h09.31.416,SurveyExpMetaMem,3.2.3,Win32,60
,,,,,,,,,,,,,,,,,,,,5,2.354000092,5,0.457000017,1,0,1200,71,1,1199,spirit,11115,2019-10-28_09h09.31.416,SurveyExpMetaMem,3.2.3,Win32,60
,,,,,,,,,,,,,,,,,,,,5,0.904999971,5,0.22300005,1,0,1200,598,1,1199,feet,11115,2019-10-28_09h09.31.416,SurveyExpMetaMem,3.2.3,Win32,60
,,,,,,,,,,,,,,,,,,,,5,1.756000042,5,0.575000048,1,0,1200,230,1,1199,eager,11115,2019-10-28_09h09.31.416,SurveyExpMetaMem,3.2.3,Win32,60
,,,,,,,,,,,,,,,,,,,,5,1.118000031,5,0.226999998,1,0,1200,672,1,1199,ketchup,11115,2019-10-28_09h09.31.416,SurveyExpMetaMem,3.2.3,Win32,60
,,,,,,,,,,,,,,,,,,,,5,4.023000002,5,0.501000166,1,0,1200,264,1,1199,thong,11115,2019-10-28_09h09.31.416,SurveyExpMetaMem,3.2.3,Win32,60
,,,,,,,,,,,,,,,,,,,,3,2.354000092,5,1.174000025,1,0,1200,406,1,1199,tired,11115,2019-10-28_09h09.31.416,SurveyExpMetaMem,3.2.3,Win32,60
,,,,,,,,,,,,,,,,,,,,6,5.170000076,6,0.263999939,1,0,1200,257,1,1199,cockpit,11115,2019-10-28_09h09.31.416,SurveyExpMetaMem,3.2.3,Win32,60
,,,,,,,,,,,,,,,,,,,,5,1.503999949,5,0.209000111,1,0,1200,605,1,1199,year,11115,2019-10-28_09h09.31.416,SurveyExpMetaMem,3.2.3,Win32,60
,,,,,,,,,,,,,,,,,,,,7,1.773999929,2,0.890000105,1,0,1200,903,1,1199,cancer,11115,2019-10-28_09h09.31.416,SurveyExpMetaMem,3.2.3,Win32,60
,,,,,,,,,,,,,,,,,,,,3,3.911000013,8,0.872999907,1,0,1200,878,1,1199,sleep,11115,2019-10-28_09h09.31.416,SurveyExpMetaMem,3.2.3,Win32,60
,,,,,,,,,,,,,,,,,,,,3,1.863000154,8,0.907000065,1,0,1200,885,1,1199,cozy,11115,2019-10-28_09h09.31.416,SurveyExpMetaMem,3.2.3,Win32,60
,,,,,,,,,,,,,,,,,,,,7,2.062999964,1,1.335000038,1,0,1200,1012,1,1199,gunshot,11115,2019-10-28_09h09.31.416,SurveyExpMetaMem,3.2.3,Win32,60
,,,,,,,,,,,,,,,,,,,,5,2.179000139,5,0.217000008,1,0,1200,438,1,1199,dull,11115,2019-10-28_09h09.31.416,SurveyExpMetaMem,3.2.3,Win32,60
,,,,,,,,,,,,,,,,,,,,6,1.506999969,3,0.518999815,1,0,1200,311,1,1199,discomfort,11115,2019-10-28_09h09.31.416,SurveyExpMetaMem,3.2.3,Win32,60
,,,,,,,,,,,,,,,,,,,,6,4.986999989,7,0.243000031,1,0,1200,275,1,1199,brilliant,11115,2019-10-28_09h09.31.416,SurveyExpMetaMem,3.2.3,Win32,60
,,,,,,,,,,,,,,,,,,,,5,2.079999924,5,0.312000036,1,0,1200,1067,1,1199,wicked,11115,2019-10-28_09h09.31.416,SurveyExpMetaMem,3.2.3,Win32,60
,,,,,,,,,,,,,,,,,,,,7,2.539000034,7,0.165999889,1,0,1200,139,1,1199,generosity,11115,2019-10-28_09h09.31.416,SurveyExpMetaMem,3.2.3,Win32,60
,,,,,,,,,,,,,,,,,,,,4,2.226000071,4,0.224000216,1,0,1200,458,1,1199,refuse,11115,2019-10-28_09h09.31.416,SurveyExpMetaMem,3.2.3,Win32,60
,,,,,,,,,,,,,,,,,,,,6,1.455999851,6,0.325000048,1,0,1200,64,1,1199,brain,11115,2019-10-28_09h09.31.416,SurveyExpMetaMem,3.2.3,Win32,60
,,,,,,,,,,,,,,,,,,,,5,3.493000031,5,0.213000059,1,0,1200,1145,1,1199,officer,11115,2019-10-28_09h09.31.416,SurveyExpMetaMem,3.2.3,Win32,60
,,,,,,,,,,,,,,,,,,,,6,1.654000044,7,0.200000048,1,0,1200,127,1,1199,glamorous,11115,2019-10-28_09h09.31.416,SurveyExpMetaMem,3.2.3,Win32,60
,,,,,,,,,,,,,,,,,,,,6,1.586999893,6,0.246000051,1,0,1200,241,1,1199,car,11115,2019-10-28_09h09.31.416,SurveyExpMetaMem,3.2.3,Win32,60
,,,,,,,,,,,,,,,,,,,,7,2.548000097,6,0.263000011,1,0,1200,13,1,1199,mingle,11115,2019-10-28_09h09.31.416,SurveyExpMetaMem,3.2.3,Win32,60
,,,,,,,,,,,,,,,,,,,,5,3.105000019,5,0.218000174,1,0,1200,1118,1,1199,frantic,11115,2019-10-28_09h09.31.416,SurveyExpMetaMem,3.2.3,Win32,60
,,,,,,,,,,,,,,,,,,,,5,1.965000153,5,0.261999846,1,0,1200,61,1,1199,zoom,11115,2019-10-28_09h09.31.416,SurveyExpMetaMem,3.2.3,Win32,60
,,,,,,,,,,,,,,,,,,,,3,1.916000128,3,0.230999947,1,0,1200,937,1,1199,prison,11115,2019-10-28_09h09.31.416,SurveyExpMetaMem,3.2.3,Win32,60
,,,,,,,,,,,,,,,,,,,,7,5.078000069,7,0.226000071,1,0,1200,712,1,1199,harvest,11115,2019-10-28_09h09.31.416,SurveyExpMetaMem,3.2.3,Win32,60
,,,,,,,,,,,,,,,,,,,,3,2.328999996,3,0.249000072,1,0,1200,463,1,1199,limp,11115,2019-10-28_09h09.31.416,SurveyExpMetaMem,3.2.3,Win32,60
,,,,,,,,,,,,,,,,,,,,6,6.256000042,4,0.307999849,1,0,1200,441,1,1199,prohibit,11115,2019-10-28_09h09.31.416,SurveyExpMetaMem,3.2.3,Win32,60
,,,,,,,,,,,,,,,,,,,,5,2.453999996,5,0.226000071,1,0,1200,265,1,1199,invent,11115,2019-10-28_09h09.31.416,SurveyExpMetaMem,3.2.3,Win32,60
,,,,,,,,,,,,,,,,,,,,6,2.603999853,6,0.178000212,1,0,1200,294,1,1199,confident,11115,2019-10-28_09h09.31.416,SurveyExpMetaMem,3.2.3,Win32,60
,,,,,,,,,,,,,,,,,,,,7,1.761000156,7,0.214999914,1,0,1200,296,1,1199,awesome,11115,2019-10-28_09h09.31.416,SurveyExpMetaMem,3.2.3,Win32,60
,,,,,,,,,,,,,,,,,,,,4,3.255000114,3,0.291000128,1,0,1200,371,1,1199,weakness,11115,2019-10-28_09h09.31.416,SurveyExpMetaMem,3.2.3,Win32,60
,,,,,,,,,,,,,,,,,,,,4,2.987999916,3,0.19299984,1,0,1200,935,1,1199,despise,11115,2019-10-28_09h09.31.416,SurveyExpMetaMem,3.2.3,Win32,60
,,,,,,,,,,,,,,,,,,,,5,3.055000067,5,0.256000042,1,0,1200,372,1,1199,inferior,11115,2019-10-28_09h09.31.416,SurveyExpMetaMem,3.2.3,Win32,60
,,,,,,,,,,,,,,,,,,,,5,2.857000113,3,1.413000107,1,0,1200,1004,1,1199,burglar,11115,2019-10-28_09h09.31.416,SurveyExpMetaMem,3.2.3,Win32,60
,,,,,,,,,,,,,,,,,,,,5,1.770999908,5,0.242000103,1,0,1200,601,1,1199,roof,11115,2019-10-28_09h09.31.416,SurveyExpMetaMem,3.2.3,Win32,60
,,,,,,,,,,,,,,,,,,,,5,1.93900013,5,0.208999872,1,0,1200,493,1,1199,little,11115,2019-10-28_09h09.31.416,SurveyExpMetaMem,3.2.3,Win32,60
,,,,,,,,,,,,,,,,,,,,7,1.927000046,7,0.183000088,1,0,1200,29,1,1199,life,11115,2019-10-28_09h09.31.416,SurveyExpMetaMem,3.2.3,Win32,60
,,,,,,,,,,,,,,,,,,,,6,1.723999977,6,0.256999969,1,0,1200,207,1,1199,erect,11115,2019-10-28_09h09.31.416,SurveyExpMetaMem,3.2.3,Win32,60
,,,,,,,,,,,,,,,,,,,,6,3.08100009,6,0.209000111,1,0,1200,827,1,1199,saint,11115,2019-10-28_09h09.31.416,SurveyExpMetaMem,3.2.3,Win32,60
,,,,,,,,,,,,,,,,,,,,6,2.522000074,4,0.226000071,1,0,1200,1119,1,1199,confusion,11115,2019-10-28_09h09.31.416,SurveyExpMetaMem,3.2.3,Win32,60
,,,,,,,,,,,,,,,,,,,,6,4.470999956,6,0.226000071,1,0,1200,279,1,1199,bargain,11115,2019-10-28_09h09.31.416,SurveyExpMetaMem,3.2.3,Win32,60
,,,,,,,,,,,,,,,,,,,,3,2.207000017,3,0.229000092,1,0,1200,447,1,1199,dishes,11115,2019-10-28_09h09.31.416,SurveyExpMetaMem,3.2.3,Win32,60
,,,,,,,,,,,,,,,,,,,,5,5.336999893,4,0.249000072,1,0,1200,182,1,1199,genius,11115,2019-10-28_09h09.31.416,SurveyExpMetaMem,3.2.3,Win32,60
,,,,,,,,,,,,,,,,,,,,3,9.088999987,3,0.265999794,1,0,1200,1139,1,1199,scare,11115,2019-10-28_09h09.31.416,SurveyExpMetaMem,3.2.3,Win32,60
,,,,,,,,,,,,,,,,,,,,6,2.405999899,3,0.566999912,1,0,1200,981,1,1199,rage,11115,2019-10-28_09h09.31.416,SurveyExpMetaMem,3.2.3,Win32,60
,,,,,,,,,,,,,,,,,,,,6,2.625,6,0.193000078,1,0,1200,426,1,1199,con,11115,2019-10-28_09h09.31.416,SurveyExpMetaMem,3.2.3,Win32,60
,,,,,,,,,,,,,,,,,,,,5,3.740000248,5,0.345000029,1,0,1200,951,1,1199,castrate,11115,2019-10-28_09h09.31.416,SurveyExpMetaMem,3.2.3,Win32,60
,,,,,,,,,,,,,,,,,,,,7,2.630000114,7,2.090000153,1,0,1200,56,1,1199,spice,11115,2019-10-28_09h09.31.416,SurveyExpMetaMem,3.2.3,Win32,60
,,,,,,,,,,,,,,,,,,,,6,2.78000021,5,0.524999857,1,0,1200,999,1,1199,burdened,11115,2019-10-28_09h09.31.416,SurveyExpMetaMem,3.2.3,Win32,60
,,,,,,,,,,,,,,,,,,,,7,3.156000137,7,0.35800004,1,0,1200,290,1,1199,enthusiasm,11115,2019-10-28_09h09.31.416,SurveyExpMetaMem,3.2.3,Win32,60
,,,,,,,,,,,,,,,,,,,,7,1.851999998,7,0.240999937,1,0,1200,8,1,1199,extreme,11115,2019-10-28_09h09.31.416,SurveyExpMetaMem,3.2.3,Win32,60
,,,,,,,,,,,,,,,,,,,,6,2.522000074,4,0.333999872,1,0,1200,1051,1,1199,insane,11115,2019-10-28_09h09.31.416,SurveyExpMetaMem,3.2.3,Win32,60
,,,,,,,,,,,,,,,,,,,,5,1.49000001,5,0.242000103,1,0,1200,1177,1,1199,pang,11115,2019-10-28_09h09.31.416,SurveyExpMetaMem,3.2.3,Win32,60
,,,,,,,,,,,,,,,,,,,,5,2.276000023,5,0.381000042,1,0,1200,790,1,1199,binoculars,11115,2019-10-28_09h09.31.416,SurveyExpMetaMem,3.2.3,Win32,60
,,,,,,,,,,,,,,,,,,,,3,1.447999954,3,0.273000002,1,0,1200,927,1,1199,jail,11115,2019-10-28_09h09.31.416,SurveyExpMetaMem,3.2.3,Win32,60
,,,,,,,,,,,,,,,,,,,,7,1.986000061,7,0.161999941,1,0,1200,115,1,1199,sexual,11115,2019-10-28_09h09.31.416,SurveyExpMetaMem,3.2.3,Win32,60
,,,,,,,,,,,,,,,,,,,,7,2.75999999,7,0.306000233,1,0,1200,887,1,1199,elegant,11115,2019-10-28_09h09.31.416,SurveyExpMetaMem,3.2.3,Win32,60
,,,,,,,,,,,,,,,,,,,,3,2.50999999,2,0.263000011,1,0,1200,340,1,1199,coward,11115,2019-10-28_09h09.31.416,SurveyExpMetaMem,3.2.3,Win32,60
,,,,,,,,,,,,,,,,,,,,5,2.004000187,5,1.355000019,1,0,1200,561,1,1199,plain,11115,2019-10-28_09h09.31.416,SurveyExpMetaMem,3.2.3,Win32,60
,,,,,,,,,,,,,,,,,,,,4,3.875,3,0.322999954,1,0,1200,1167,1,1199,bribe,11115,2019-10-28_09h09.31.416,SurveyExpMetaMem,3.2.3,Win32,60
,,,,,,,,,,,,,,,,,,,,7,1.703999996,3,0.601999998,1,0,1200,1052,1,1199,angry,11115,2019-10-28_09h09.31.416,SurveyExpMetaMem,3.2.3,Win32,60
,,,,,,,,,,,,,,,,,,,,5,5.625,5,0.190000057,1,0,1200,517,1,1199,habit,11115,2019-10-28_09h09.31.416,SurveyExpMetaMem,3.2.3,Win32,60
,,,,,,,,,,,,,,,,,,,,5,3.222000122,5,0.174000025,1,0,1200,1159,1,1199,rifle,11115,2019-10-28_09h09.31.416,SurveyExpMetaMem,3.2.3,Win32,60
,,,,,,,,,,,,,,,,,,,,5,1.988999844,5,0.219000101,1,0,1200,344,1,1199,pessimistic,11115,2019-10-28_09h09.31.416,SurveyExpMetaMem,3.2.3,Win32,60
,,,,,,,,,,,,,,,,,,,,4,2.564999819,3,0.22300005,1,0,1200,1077,1,1199,unsure,11115,2019-10-28_09h09.31.416,SurveyExpMetaMem,3.2.3,Win32,60
,,,,,,,,,,,,,,,,,,,,5,8.627000093,5,0.220999956,1,0,1200,410,1,1199,tarnish,11115,2019-10-28_09h09.31.416,SurveyExpMetaMem,3.2.3,Win32,60
,,,,,,,,,,,,,,,,,,,,5,3.02699995,5,0.325000048,1,0,1200,1158,1,1199,dentist,11115,2019-10-28_09h09.31.416,SurveyExpMetaMem,3.2.3,Win32,60
,,,,,,,,,,,,,,,,,,,,4,2.848999977,3,0.34100008,1,0,1200,459,1,1199,heavy,11115,2019-10-28_09h09.31.416,SurveyExpMetaMem,3.2.3,Win32,60
,,,,,,,,,,,,,,,,,,,,6,3.157000065,6,3.657000065,1,0,1200,180,1,1199,embrace,11115,2019-10-28_09h09.31.416,SurveyExpMetaMem,3.2.3,Win32,60
,,,,,,,,,,,,,,,,,,,,7,2.637000084,8,0.20600009,1,0,1200,199,1,1199,laughter,11115,2019-10-28_09h09.31.416,SurveyExpMetaMem,3.2.3,Win32,60
,,,,,,,,,,,,,,,,,,,,6,2.09100008,6,0.256999969,1,0,1200,118,1,1199,conquer,11115,2019-10-28_09h09.31.416,SurveyExpMetaMem,3.2.3,Win32,60
,,,,,,,,,,,,,,,,,,,,5,3.404999971,3,0.868000031,1,0,1200,335,1,1199,decay,11115,2019-10-28_09h09.31.416,SurveyExpMetaMem,3.2.3,Win32,60
,,,,,,,,,,,,,,,,,,,,6,2.680000067,9,0.976000071,1,0,1200,238,1,1199,sunshine,11115,2019-10-28_09h09.31.416,SurveyExpMetaMem,3.2.3,Win32,60
,,,,,,,,,,,,,,,,,,,,4,2.963000059,2,0.447000027,1,0,1200,323,1,1199,ungrateful,11115,2019-10-28_09h09.31.416,SurveyExpMetaMem,3.2.3,Win32,60
,,,,,,,,,,,,,,,,,,,,5,2.846999884,5,0.207000017,1,0,1200,1104,1,1199,avalanche,11115,2019-10-28_09h09.31.416,SurveyExpMetaMem,3.2.3,Win32,60
,,,,,,,,,,,,,,,,,,,,5,1.138999939,6,1.47300005,1,0,1200,709,1,1199,ancestor,11115,2019-10-28_09h09.31.416,SurveyExpMetaMem,3.2.3,Win32,60
,,,,,,,,,,,,,,,,,,,,5,2.592999935,5,0.273000002,1,0,1200,1182,1,1199,pierce,11115,2019-10-28_09h09.31.416,SurveyExpMetaMem,3.2.3,Win32,60
,,,,,,,,,,,,,,,,,,,,5,1.660000086,5,0.414999962,1,0,1200,968,1,1199,insult,11115,2019-10-28_09h09.31.416,SurveyExpMetaMem,3.2.3,Win32,60
,,,,,,,,,,,,,,,,,,,,4,2.847000122,1,0.694999933,1,0,1200,926,1,1199,dead,11115,2019-10-28_09h09.31.416,SurveyExpMetaMem,3.2.3,Win32,60
,,,,,,,,,,,,,,,,,,,,5,2.885999918,5,0.282999992,1,0,1200,259,1,1199,thin,11115,2019-10-28_09h09.31.416,SurveyExpMetaMem,3.2.3,Win32,60
,,,,,,,,,,,,,,,,,,,,5,3.839999914,5,0.299000025,1,0,1200,128,1,1199,supper,11115,2019-10-28_09h09.31.416,SurveyExpMetaMem,3.2.3,Win32,60
,,,,,,,,,,,,,,,,,,,,4,3.43900013,4,0.299000025,1,0,1200,1143,1,1199,arrogant,11115,2019-10-28_09h09.31.416,SurveyExpMetaMem,3.2.3,Win32,60
,,,,,,,,,,,,,,,,,,,,5,2.166999817,4,0.400000095,1,0,1200,685,1,1199,makeup,11115,2019-10-28_09h09.31.416,SurveyExpMetaMem,3.2.3,Win32,60
,,,,,,,,,,,,,,,,,,,,7,2.493000031,7,1.937999964,1,0,1200,711,1,1199,sympathetic,11115,2019-10-28_09h09.31.416,SurveyExpMetaMem,3.2.3,Win32,60
,,,,,,,,,,,,,,,,,,,,5,1.542999983,5,0.214999914,1,0,1200,403,1,1199,wither,11115,2019-10-28_09h09.31.416,SurveyExpMetaMem,3.2.3,Win32,60
,,,,,,,,,,,,,,,,,,,,7,1.708000183,8,0.32400012,1,0,1200,193,1,1199,party,11115,2019-10-28_09h09.31.416,SurveyExpMetaMem,3.2.3,Win32,60
,,,,,,,,,,,,,,,,,,,,7,1.496999979,8,0.260999918,1,0,1200,46,1,1199,god,11115,2019-10-28_09h09.31.416,SurveyExpMetaMem,3.2.3,Win32,60
,,,,,,,,,,,,,,,,,,,,6,1.898999929,4,0.546000004,1,0,1200,1151,1,1199,drama,11115,2019-10-28_09h09.31.416,SurveyExpMetaMem,3.2.3,Win32,60
,,,,,,,,,,,,,,,,,,,,5,1.121000051,5,0.264000177,1,0,1200,1173,1,1199,lurk,11115,2019-10-28_09h09.31.416,SurveyExpMetaMem,3.2.3,Win32,60
,,,,,,,,,,,,,,,,,,,,6,2.054000139,6,0.356999874,1,0,1200,883,1,1199,sky,11115,2019-10-28_09h09.31.416,SurveyExpMetaMem,3.2.3,Win32,60
,,,,,,,,,,,,,,,,,,,,7,2.695999861,9,0.44900012,1,0,1200,281,1,1199,summer,11115,2019-10-28_09h09.31.416,SurveyExpMetaMem,3.2.3,Win32,60
,,,,,,,,,,,,,,,,,,,,5,2.889000177,2,0.425000191,1,0,1200,910,1,1199,abusive,11115,2019-10-28_09h09.31.416,SurveyExpMetaMem,3.2.3,Win32,60
,,,,,,,,,,,,,,,,,,,,4,2.448999882,2,0.351000071,1,0,1200,1028,1,1199,terror,11115,2019-10-28_09h09.31.416,SurveyExpMetaMem,3.2.3,Win32,60
,,,,,,,,,,,,,,,,,,,,5,2.603000164,5,0.20600009,1,0,1200,651,1,1199,bathroom,11115,2019-10-28_09h09.31.416,SurveyExpMetaMem,3.2.3,Win32,60
,,,,,,,,,,,,,,,,,,,,5,3.244000196,5,0.343000174,1,0,1200,996,1,1199,sting,11115,2019-10-28_09h09.31.416,SurveyExpMetaMem,3.2.3,Win32,60
,,,,,,,,,,,,,,,,,,,,6,4.626000166,6,0.226000071,1,0,1200,653,1,1199,detail,11115,2019-10-28_09h09.31.416,SurveyExpMetaMem,3.2.3,Win32,60
,,,,,,,,,,,,,,,,,,,,4,2.502000093,2,0.424000025,1,0,1200,1073,1,1199,bitch,11115,2019-10-28_09h09.31.416,SurveyExpMetaMem,3.2.3,Win32,60
,,,,,,,,,,,,,,,,,,,,6,2.328999996,6,1.621999979,1,0,1200,860,1,1199,silk,11115,2019-10-28_09h09.31.416,SurveyExpMetaMem,3.2.3,Win32,60
,,,,,,,,,,,,,,,,,,,,5,14.61300015,5,0.340000153,1,0,1200,730,1,1199,slogan,11115,2019-10-28_09h09.31.416,SurveyExpMetaMem,3.2.3,Win32,60
,,,,,,,,,,,,,,,,,,,,5,3.406000137,3,0.282999992,1,0,1200,442,1,1199,foolish,11115,2019-10-28_09h09.31.416,SurveyExpMetaMem,3.2.3,Win32,60
,,,,,,,,,,,,,,,,,,,,5,2.417000055,5,0.332000017,1,0,1200,312,1,1199,stench,11115,2019-10-28_09h09.31.416,SurveyExpMetaMem,3.2.3,Win32,60
,,,,,,,,,,,,,,,,,,,,4,2.881000042,4,0.357000113,1,0,1200,941,1,1199,leprosy,11115,2019-10-28_09h09.31.416,SurveyExpMetaMem,3.2.3,Win32,60
,,,,,,,,,,,,,,,,,,,,6,1.784000158,6,0.225000143,1,0,1200,235,1,1199,cheery,11115,2019-10-28_09h09.31.416,SurveyExpMetaMem,3.2.3,Win32,60
,,,,,,,,,,,,,,,,,,,,6,1.921000004,6,0.191999912,1,0,1200,52,1,1199,dare,11115,2019-10-28_09h09.31.416,SurveyExpMetaMem,3.2.3,Win32,60
,,,,,,,,,,,,,,,,,,,,5,1.791999817,5,0.176999807,1,0,1200,409,1,1199,old,11115,2019-10-28_09h09.31.416,SurveyExpMetaMem,3.2.3,Win32,60
,,,,,,,,,,,,,,,,,,,,7,2.040999889,7,0.182999849,1,0,1200,41,1,1199,progress,11115,2019-10-28_09h09.31.416,SurveyExpMetaMem,3.2.3,Win32,60
,,,,,,,,,,,,,,,,,,,,7,2.138000011,7,0.197000027,1,0,1200,195,1,1199,laughing,11115,2019-10-28_09h09.31.416,SurveyExpMetaMem,3.2.3,Win32,60
,,,,,,,,,,,,,,,,,,,,6,2.958999872,3,0.447000027,1,0,1200,1131,1,1199,envious,11115,2019-10-28_09h09.31.416,SurveyExpMetaMem,3.2.3,Win32,60
,,,,,,,,,,,,,,,,,,,,7,1.640000105,8,0.444000006,1,0,1200,245,1,1199,beach,11115,2019-10-28_09h09.31.416,SurveyExpMetaMem,3.2.3,Win32,60
,,,,,,,,,,,,,,,,,,,,6,3.390000105,3,0.406999826,1,0,1200,934,1,1199,sob,11115,2019-10-28_09h09.31.416,SurveyExpMetaMem,3.2.3,Win32,60
,,,,,,,,,,,,,,,,,,,,6,1.73300004,7,0.633000135,1,0,1200,35,1,1199,bright,11115,2019-10-28_09h09.31.416,SurveyExpMetaMem,3.2.3,Win32,60
,,,,,,,,,,,,,,,,,,,,5,2.878999949,3,0.325999975,1,0,1200,575,1,1199,paragraph,11115,2019-10-28_09h09.31.416,SurveyExpMetaMem,3.2.3,Win32,60
,,,,,,,,,,,,,,,,,,,,6,4.753999949,4,0.391000032,1,0,1200,1198,1,1199,lightning,11115,2019-10-28_09h09.31.416,SurveyExpMetaMem,3.2.3,Win32,60
,,,,,,,,,,,,,,,,,,,,5,2.193000078,5,0.559000015,1,0,1200,499,1,1199,stop,11115,2019-10-28_09h09.31.416,SurveyExpMetaMem,3.2.3,Win32,60
,,,,,,,,,,,,,,,,,,,,5,1.923000097,5,0.292999983,1,0,1200,611,1,1199,herring,11115,2019-10-28_09h09.31.416,SurveyExpMetaMem,3.2.3,Win32,60
,,,,,,,,,,,,,,,,,,,,5,2.914000034,3,0.376000166,1,0,1200,399,1,1199,withdrawn,11115,2019-10-28_09h09.31.416,SurveyExpMetaMem,3.2.3,Win32,60
,,,,,,,,,,,,,,,,,,,,5,1.539000034,5,0.190999985,1,0,1200,1141,1,1199,shark,11115,2019-10-28_09h09.31.416,SurveyExpMetaMem,3.2.3,Win32,60
,,,,,,,,,,,,,,,,,,,,7,1.640000105,7,0.430999994,1,0,1200,143,1,1199,weekend,11115,2019-10-28_09h09.31.416,SurveyExpMetaMem,3.2.3,Win32,60
,,,,,,,,,,,,,,,,,,,,5,2.319000006,5,0.355999947,1,0,1200,1040,1,1199,communism,11115,2019-10-28_09h09.31.416,SurveyExpMetaMem,3.2.3,Win32,60
,,,,,,,,,,,,,,,,,,,,5,4.371000051,5,0.232000113,1,0,1200,668,1,1199,unit,11115,2019-10-28_09h09.31.416,SurveyExpMetaMem,3.2.3,Win32,60
,,,,,,,,,,,,,,,,,,,,5,1.164000034,5,0.189999819,1,0,1200,471,1,1199,chump,11115,2019-10-28_09h09.31.416,SurveyExpMetaMem,3.2.3,Win32,60
,,,,,,,,,,,,,,,,,,,,5,2.547999859,5,0.189999819,1,0,1200,283,1,1199,elated,11115,2019-10-28_09h09.31.416,SurveyExpMetaMem,3.2.3,Win32,60
,,,,,,,,,,,,,,,,,,,,5,1.64199996,4,0.180000067,1,0,1200,526,1,1199,dry,11115,2019-10-28_09h09.31.416,SurveyExpMetaMem,3.2.3,Win32,60
,,,,,,,,,,,,,,,,,,,,6,3.338999987,6,0.316999912,1,0,1200,882,1,1199,gentle,11115,2019-10-28_09h09.31.416,SurveyExpMetaMem,3.2.3,Win32,60
,,,,,,,,,,,,,,,,,,,,5,1.674999952,5,0.282000065,1,0,1200,913,1,1199,ulcer,11115,2019-10-28_09h09.31.416,SurveyExpMetaMem,3.2.3,Win32,60
,,,,,,,,,,,,,,,,,,,,6,2.25999999,6,0.17599988,1,0,1200,58,1,1199,boost,11115,2019-10-28_09h09.31.416,SurveyExpMetaMem,3.2.3,Win32,60
,,,,,,,,,,,,,,,,,,,,5,2.055999994,5,0.230999947,1,0,1200,829,1,1199,innocent,11115,2019-10-28_09h09.31.416,SurveyExpMetaMem,3.2.3,Win32,60
,,,,,,,,,,,,,,,,,,,,5,1.608999968,5,0.190000057,1,0,1200,1162,1,1199,baffle,11115,2019-10-28_09h09.31.416,SurveyExpMetaMem,3.2.3,Win32,60
,,,,,,,,,,,,,,,,,,,,5,2.595000029,5,0.190000057,1,0,1200,618,1,1199,ceiling,11115,2019-10-28_09h09.31.416,SurveyExpMetaMem,3.2.3,Win32,60
,,,,,,,,,,,,,,,,,,,,6,1.545000076,6,0.190000057,1,0,1200,873,1,1199,useful,11115,2019-10-28_09h09.31.416,SurveyExpMetaMem,3.2.3,Win32,60
,,,,,,,,,,,,,,,,,,,,6,1.957999945,3,0.36500001,1,0,1200,446,1,1199,greedy,11115,2019-10-28_09h09.31.416,SurveyExpMetaMem,3.2.3,Win32,60
,,,,,,,,,,,,,,,,,,,,5,7.725000143,5,0.356999874,1,0,1200,181,1,1199,fascinate,11115,2019-10-28_09h09.31.416,SurveyExpMetaMem,3.2.3,Win32,60
,,,,,,,,,,,,,,,,,,,,6,2.355999947,6,0.207000017,1,0,1200,53,1,1199,lotion,11115,2019-10-28_09h09.31.416,SurveyExpMetaMem,3.2.3,Win32,60
,,,,,,,,,,,,,,,,,,,,5,2.579999924,5,0.546000004,1,0,1200,232,1,1199,prosper,11115,2019-10-28_09h09.31.416,SurveyExpMetaMem,3.2.3,Win32,60
,,,,,,,,,,,,,,,,,,,,7,1.598999977,7,0.210999966,1,0,1200,60,1,1199,bikini,11115,2019-10-28_09h09.31.416,SurveyExpMetaMem,3.2.3,Win32,60
,,,,,,,,,,,,,,,,,,,,5,1.815999985,5,0.218000174,1,0,1200,728,1,1199,patio,11115,2019-10-28_09h09.31.416,SurveyExpMetaMem,3.2.3,Win32,60
,,,,,,,,,,,,,,,,,,,,6,1.54399991,6,0.318000078,1,0,1200,137,1,1199,money,11115,2019-10-28_09h09.31.416,SurveyExpMetaMem,3.2.3,Win32,60
,,,,,,,,,,,,,,,,,,,,6,3.631999969,4,0.214999914,1,0,1200,616,1,1199,coat,11115,2019-10-28_09h09.31.416,SurveyExpMetaMem,3.2.3,Win32,60
,,,,,,,,,,,,,,,,,,,,5,1.772000074,5,0.259000063,1,0,1200,1144,1,1199,yelp,11115,2019-10-28_09h09.31.416,SurveyExpMetaMem,3.2.3,Win32,60
,,,,,,,,,,,,,,,,,,,,3,2.765000105,2,0.524000168,1,0,1200,628,1,1199,chess,11115,2019-10-28_09h09.31.416,SurveyExpMetaMem,3.2.3,Win32,60
,,,,,,,,,,,,,,,,,,,,5,3.187000036,5,0.333000183,1,0,1200,1132,1,1199,anarchy,11115,2019-10-28_09h09.31.416,SurveyExpMetaMem,3.2.3,Win32,60
,,,,,,,,,,,,,,,,,,,,6,2.938999891,6,0.322000027,1,0,1200,720,1,1199,stable,11115,2019-10-28_09h09.31.416,SurveyExpMetaMem,3.2.3,Win32,60
,,,,,,,,,,,,,,,,,,,,7,2.27699995,6,0.315999985,1,0,1200,853,1,1199,breeze,11115,2019-10-28_09h09.31.416,SurveyExpMetaMem,3.2.3,Win32,60
,,,,,,,,,,,,,,,,,,,,4,3.743999958,3,0.808000088,1,0,1200,490,1,1199,detached,11115,2019-10-28_09h09.31.416,SurveyExpMetaMem,3.2.3,Win32,60
,,,,,,,,,,,,,,,,,,,,6,1.889999866,3,0.773999929,1,0,1200,383,1,1199,messy,11115,2019-10-28_09h09.31.416,SurveyExpMetaMem,3.2.3,Win32,60
,,,,,,,,,,,,,,,,,,,,7,1.976999998,8,0.395999908,1,0,1200,113,1,1199,bridesmaid,11115,2019-10-28_09h09.31.416,SurveyExpMetaMem,3.2.3,Win32,60
,,,,,,,,,,,,,,,,,,,,5,2.105000019,5,0.243999958,1,0,1200,630,1,1199,website,11115,2019-10-28_09h09.31.416,SurveyExpMetaMem,3.2.3,Win32,60
,,,,,,,,,,,,,,,,,,,,5,1.602999926,5,0.233999968,1,0,1200,694,1,1199,pecan,11115,2019-10-28_09h09.31.416,SurveyExpMetaMem,3.2.3,Win32,60
,,,,,,,,,,,,,,,,,,,,5,1.193000078,5,0.24000001,1,0,1200,75,1,1199,actor,11115,2019-10-28_09h09.31.416,SurveyExpMetaMem,3.2.3,Win32,60
,,,,,,,,,,,,,,,,,,,,5,1.140000105,5,0.212000132,1,0,1200,219,1,1199,know,11115,2019-10-28_09h09.31.416,SurveyExpMetaMem,3.2.3,Win32,60
,,,,,,,,,,,,,,,,,,,,2,3.102999926,2,0.213000059,1,0,1200,433,1,1199,uninteresting,11115,2019-10-28_09h09.31.416,SurveyExpMetaMem,3.2.3,Win32,60
,,,,,,,,,,,,,,,,,,,,5,1.278000116,5,0.22300005,1,0,1200,789,1,1199,green,11115,2019-10-28_09h09.31.416,SurveyExpMetaMem,3.2.3,Win32,60
,,,,,,,,,,,,,,,,,,,,6,2.982999802,7,0.773000002,1,0,1200,67,1,1199,penthouse,11115,2019-10-28_09h09.31.416,SurveyExpMetaMem,3.2.3,Win32,60
,,,,,,,,,,,,,,,,,,,,5,1.332000017,5,0.227999926,1,0,1200,362,1,1199,despair,11115,2019-10-28_09h09.31.416,SurveyExpMetaMem,3.2.3,Win32,60
,,,,,,,,,,,,,,,,,,,,4,3.073999882,4,0.197999954,1,0,1200,1074,1,1199,detain,11115,2019-10-28_09h09.31.416,SurveyExpMetaMem,3.2.3,Win32,60
,,,,,,,,,,,,,,,,,,,,5,3.427000046,5,0.207999945,1,0,1200,929,1,1199,mutilation,11115,2019-10-28_09h09.31.416,SurveyExpMetaMem,3.2.3,Win32,60
,,,,,,,,,,,,,,,,,,,,5,1.225000143,5,0.17599988,1,0,1200,658,1,1199,method,11115,2019-10-28_09h09.31.416,SurveyExpMetaMem,3.2.3,Win32,60
,,,,,,,,,,,,,,,,,,,,8,3.381000042,8,0.191999912,1,0,1200,80,1,1199,wonderful,11115,2019-10-28_09h09.31.416,SurveyExpMetaMem,3.2.3,Win32,60
,,,,,,,,,,,,,,,,,,,,5,2.930000067,5,0.202000141,1,0,1200,799,1,1199,precise,11115,2019-10-28_09h09.31.416,SurveyExpMetaMem,3.2.3,Win32,60
,,,,,,,,,,,,,,,,,,,,4,1.339000225,4,0.190000057,1,0,1200,475,1,1199,nameless,11115,2019-10-28_09h09.31.416,SurveyExpMetaMem,3.2.3,Win32,60
,,,,,,,,,,,,,,,,,,,,3,1.843999863,3,0.232000113,1,0,1200,474,1,1199,weary,11115,2019-10-28_09h09.31.416,SurveyExpMetaMem,3.2.3,Win32,60
,,,,,,,,,,,,,,,,,,,,5,3.377000093,4,0.289999962,1,0,1200,538,1,1199,crumbs,11115,2019-10-28_09h09.31.416,SurveyExpMetaMem,3.2.3,Win32,60
,,,,,,,,,,,,,,,,,,,,5,1.909000158,5,0.277999878,1,0,1200,573,1,1199,cease,11115,2019-10-28_09h09.31.416,SurveyExpMetaMem,3.2.3,Win32,60
,,,,,,,,,,,,,,,,,,,,5,1.821000099,5,0.226000071,1,0,1200,741,1,1199,wheat,11115,2019-10-28_09h09.31.416,SurveyExpMetaMem,3.2.3,Win32,60
,,,,,,,,,,,,,,,,,,,,6,1.282000065,7,0.366000175,1,0,1200,174,1,1199,snow,11115,2019-10-28_09h09.31.416,SurveyExpMetaMem,3.2.3,Win32,60
,,,,,,,,,,,,,,,,,,,,7,2.042999983,7,0.631000042,1,0,1200,876,1,1199,politeness,11115,2019-10-28_09h09.31.416,SurveyExpMetaMem,3.2.3,Win32,60
,,,,,,,,,,,,,,,,,,,,4,2.346000195,4,0.210000038,1,0,1200,550,1,1199,fart,11115,2019-10-28_09h09.31.416,SurveyExpMetaMem,3.2.3,Win32,60
,,,,,,,,,,,,,,,,,,,,4,5.187999964,4,0.388999939,1,0,1200,533,1,1199,busy,11115,2019-10-28_09h09.31.416,SurveyExpMetaMem,3.2.3,Win32,60
,,,,,,,,,,,,,,,,,,,,7,2.404999971,5,1.372999907,1,0,1200,100,1,1199,intense,11115,2019-10-28_09h09.31.416,SurveyExpMetaMem,3.2.3,Win32,60
,,,,,,,,,,,,,,,,,,,,6,1.826000214,3,0.440000057,1,0,1200,938,1,1199,seasick,11115,2019-10-28_09h09.31.416,SurveyExpMetaMem,3.2.3,Win32,60
,,,,,,,,,,,,,,,,,,,,6,2.221999884,3,0.445999861,1,0,1200,1084,1,1199,uneasy,11115,2019-10-28_09h09.31.416,SurveyExpMetaMem,3.2.3,Win32,60
,,,,,,,,,,,,,,,,,,,,5,2.427999973,5,0.22300005,1,0,1200,757,1,1199,sentiment,11115,2019-10-28_09h09.31.416,SurveyExpMetaMem,3.2.3,Win32,60
,,,,,,,,,,,,,,,,,,,,6,3.673000097,6,0.811000109,1,0,1200,299,1,1199,champion,11115,2019-10-28_09h09.31.416,SurveyExpMetaMem,3.2.3,Win32,60
,,,,,,,,,,,,,,,,,,,,4,1.921000004,4,0.246000051,1,0,1200,1156,1,1199,weapon,11115,2019-10-28_09h09.31.416,SurveyExpMetaMem,3.2.3,Win32,60
,,,,,,,,,,,,,,,,,,,,5,4.075999975,5,0.207000017,1,0,1200,698,1,1199,oven,11115,2019-10-28_09h09.31.416,SurveyExpMetaMem,3.2.3,Win32,60
,,,,,,,,,,,,,,,,,,,,6,2.028000116,6,0.207999945,1,0,1200,51,1,1199,body,11115,2019-10-28_09h09.31.416,SurveyExpMetaMem,3.2.3,Win32,60
,,,,,,,,,,,,,,,,,,,,5,1.055000067,5,0.190000057,1,0,1200,838,1,1199,nestle,11115,2019-10-28_09h09.31.416,SurveyExpMetaMem,3.2.3,Win32,60
,,,,,,,,,,,,,,,,,,,,7,1.822999954,7,0.190999985,1,0,1200,68,1,1199,perfect,11115,2019-10-28_09h09.31.416,SurveyExpMetaMem,3.2.3,Win32,60
,,,,,,,,,,,,,,,,,,,,3,1.889999866,3,0.207000017,1,0,1200,1021,1,1199,attack,11115,2019-10-28_09h09.31.416,SurveyExpMetaMem,3.2.3,Win32,60
,,,,,,,,,,,,,,,,,,,,2,2.28000021,2,0.376999855,1,0,1200,373,1,1199,ignorance,11115,2019-10-28_09h09.31.416,SurveyExpMetaMem,3.2.3,Win32,60
,,,,,,,,,,,,,,,,,,,,3,2.555000067,7,1.009000063,1,0,1200,897,1,1199,peaceful,11115,2019-10-28_09h09.31.416,SurveyExpMetaMem,3.2.3,Win32,60
,,,,,,,,,,,,,,,,,,,,5,1.370000124,5,0.36500001,1,0,1200,696,1,1199,rink,11115,2019-10-28_09h09.31.416,SurveyExpMetaMem,3.2.3,Win32,60
,,,,,,,,,,,,,,,,,,,,5,1.955000162,5,0.243000031,1,0,1200,255,1,1199,ass,11115,2019-10-28_09h09.31.416,SurveyExpMetaMem,3.2.3,Win32,60
,,,,,,,,,,,,,,,,,,,,5,1.780999899,5,0.207000017,1,0,1200,691,1,1199,circle,11115,2019-10-28_09h09.31.416,SurveyExpMetaMem,3.2.3,Win32,60
,,,,,,,,,,,,,,,,,,,,3,3.681000233,7,0.900000095,1,0,1200,705,1,1199,tolerant,11115,2019-10-28_09h09.31.416,SurveyExpMetaMem,3.2.3,Win32,60
,,,,,,,,,,,,,,,,,,,,6,2.328000069,7,0.805999994,1,0,1200,798,1,1199,crystal,11115,2019-10-28_09h09.31.416,SurveyExpMetaMem,3.2.3,Win32,60
,,,,,,,,,,,,,,,,,,,,7,2.476999998,7,0.20600009,1,0,1200,30,1,1199,impressed,11115,2019-10-28_09h09.31.416,SurveyExpMetaMem,3.2.3,Win32,60
,,,,,,,,,,,,,,,,,,,,5,1.243999958,5,0.263000011,1,0,1200,690,1,1199,similar,11115,2019-10-28_09h09.31.416,SurveyExpMetaMem,3.2.3,Win32,60
,,,,,,,,,,,,,,,,,,,,5,0.972000122,5,0.222999811,1,0,1200,756,1,1199,plant,11115,2019-10-28_09h09.31.416,SurveyExpMetaMem,3.2.3,Win32,60
,,,,,,,,,,,,,,,,,,,,7,2.289000034,7,0.190000057,1,0,1200,293,1,1199,succeed,11115,2019-10-28_09h09.31.416,SurveyExpMetaMem,3.2.3,Win32,60
,,,,,,,,,,,,,,,,,,,,4,2.657000065,4,0.364000082,1,0,1200,983,1,1199,demonic,11115,2019-10-28_09h09.31.416,SurveyExpMetaMem,3.2.3,Win32,60
,,,,,,,,,,,,,,,,,,,,5,2.470000029,5,0.472000122,1,0,1200,1085,1,1199,sever,11115,2019-10-28_09h09.31.416,SurveyExpMetaMem,3.2.3,Win32,60
,,,,,,,,,,,,,,,,,,,,5,2.597000122,6,1.818000078,1,0,1200,881,1,1199,protected,11115,2019-10-28_09h09.31.416,SurveyExpMetaMem,3.2.3,Win32,60
,,,,,,,,,,,,,,,,,,,,5,1.610000134,5,0.239000082,1,0,1200,755,1,1199,soap,11115,2019-10-28_09h09.31.416,SurveyExpMetaMem,3.2.3,Win32,60
,,,,,,,,,,,,,,,,,,,,3,1.746000051,3,0.214999914,1,0,1200,1031,1,1199,fear,11115,2019-10-28_09h09.31.416,SurveyExpMetaMem,3.2.3,Win32,60
,,,,,,,,,,,,,,,,,,,,5,1.953000069,4,0.198999882,1,0,1200,489,1,1199,timid,11115,2019-10-28_09h09.31.416,SurveyExpMetaMem,3.2.3,Win32,60
,,,,,,,,,,,,,,,,,,,,5,1.555999994,3,0.375,1,0,1200,484,1,1199,leave,11115,2019-10-28_09h09.31.416,SurveyExpMetaMem,3.2.3,Win32,60
,,,,,,,,,,,,,,,,,,,,5,1.389000177,5,0.208000183,1,0,1200,602,1,1199,vegetable,11115,2019-10-28_09h09.31.416,SurveyExpMetaMem,3.2.3,Win32,60
,,,,,,,,,,,,,,,,,,,,5,1.315000057,5,0.197999954,1,0,1200,688,1,1199,jelly,11115,2019-10-28_09h09.31.416,SurveyExpMetaMem,3.2.3,Win32,60
,,,,,,,,,,,,,,,,,,,,5,2.896000147,5,0.207000017,1,0,1200,133,1,1199,prosperous,11115,2019-10-28_09h09.31.416,SurveyExpMetaMem,3.2.3,Win32,60
,,,,,,,,,,,,,,,,,,,,4,3.082000017,7,0.613999844,1,0,1200,34,1,1199,personality,11115,2019-10-28_09h09.31.416,SurveyExpMetaMem,3.2.3,Win32,60
,,,,,,,,,,,,,,,,,,,,6,2.323999882,8,0.580999851,1,0,1200,25,1,1199,charisma,11115,2019-10-28_09h09.31.416,SurveyExpMetaMem,3.2.3,Win32,60
,,,,,,,,,,,,,,,,,,,,5,2.239000082,5,0.183000088,1,0,1200,558,1,1199,punk,11115,2019-10-28_09h09.31.416,SurveyExpMetaMem,3.2.3,Win32,60
,,,,,,,,,,,,,,,,,,,,5,0.979000092,5,0.178999901,1,0,1200,500,1,1199,nosey,11115,2019-10-28_09h09.31.416,SurveyExpMetaMem,3.2.3,Win32,60
,,,,,,,,,,,,,,,,,,,,7,2.944999933,7,0.190000057,1,0,1200,78,1,1199,energetic,11115,2019-10-28_09h09.31.416,SurveyExpMetaMem,3.2.3,Win32,60
,,,,,,,,,,,,,,,,,,,,6,1.648000002,6,0.190999985,1,0,1200,724,1,1199,owl,11115,2019-10-28_09h09.31.416,SurveyExpMetaMem,3.2.3,Win32,60
,,,,,,,,,,,,,,,,,,,,3,2.241000175,3,0.174999952,1,0,1200,1108,1,1199,spider,11115,2019-10-28_09h09.31.416,SurveyExpMetaMem,3.2.3,Win32,60
,,,,,,,,,,,,,,,,,,,,6,2.255000114,6,0.161999941,1,0,1200,191,1,1199,compassion,11115,2019-10-28_09h09.31.416,SurveyExpMetaMem,3.2.3,Win32,60
,,,,,,,,,,,,,,,,,,,,4,1.940999985,4,0.214999914,1,0,1200,974,1,1199,roach,11115,2019-10-28_09h09.31.416,SurveyExpMetaMem,3.2.3,Win32,60
,,,,,,,,,,,,,,,,,,,,5,2.019999981,7,1.724999905,1,0,1200,116,1,1199,carnival,11115,2019-10-28_09h09.31.416,SurveyExpMetaMem,3.2.3,Win32,60
,,,,,,,,,,,,,,,,,,,,5,1.402999878,5,0.429000139,1,0,1200,613,1,1199,cup,11115,2019-10-28_09h09.31.416,SurveyExpMetaMem,3.2.3,Win32,60
,,,,,,,,,,,,,,,,,,,,6,1.809999943,6,0.310000181,1,0,1200,153,1,1199,teach,11115,2019-10-28_09h09.31.416,SurveyExpMetaMem,3.2.3,Win32,60
,,,,,,,,,,,,,,,,,,,,5,2.970000029,5,0.256999969,1,0,1200,519,1,1199,listless,11115,2019-10-28_09h09.31.416,SurveyExpMetaMem,3.2.3,Win32,60
,,,,,,,,,,,,,,,,,,,,5,1.523999929,5,0.245999813,1,0,1200,551,1,1199,coal,11115,2019-10-28_09h09.31.416,SurveyExpMetaMem,3.2.3,Win32,60
,,,,,,,,,,,,,,,,,,,,7,2.747000217,7,0.194000006,1,0,1200,183,1,1199,congratulate,11115,2019-10-28_09h09.31.416,SurveyExpMetaMem,3.2.3,Win32,60
,,,,,,,,,,,,,,,,,,,,4,1.628000021,4,0.231999874,1,0,1200,877,1,1199,bless,11115,2019-10-28_09h09.31.416,SurveyExpMetaMem,3.2.3,Win32,60
,,,,,,,,,,,,,,,,,,,,5,3.855000019,5,0.230999947,1,0,1200,413,1,1199,deficient,11115,2019-10-28_09h09.31.416,SurveyExpMetaMem,3.2.3,Win32,60
,,,,,,,,,,,,,,,,,,,,5,1.281000137,5,0.23300004,1,0,1200,663,1,1199,trout,11115,2019-10-28_09h09.31.416,SurveyExpMetaMem,3.2.3,Win32,60
,,,,,,,,,,,,,,,,,,,,5,2.398000002,5,0.291000128,1,0,1200,205,1,1199,outspoken,11115,2019-10-28_09h09.31.416,SurveyExpMetaMem,3.2.3,Win32,60
,,,,,,,,,,,,,,,,,,,,5,0.940999985,5,0.218000174,1,0,1200,567,1,1199,folly,11115,2019-10-28_09h09.31.416,SurveyExpMetaMem,3.2.3,Win32,60
,,,,,,,,,,,,,,,,,,,,5,3.373000145,5,0.197999954,1,0,1200,544,1,1199,snail,11115,2019-10-28_09h09.31.416,SurveyExpMetaMem,3.2.3,Win32,60
,,,,,,,,,,,,,,,,,,,,6,1.944999933,3,0.444000006,1,0,1200,922,1,1199,nightmare,11115,2019-10-28_09h09.31.416,SurveyExpMetaMem,3.2.3,Win32,60
,,,,,,,,,,,,,,,,,,,,5,2.844000101,5,0.197000027,1,0,1200,263,1,1199,answer,11115,2019-10-28_09h09.31.416,SurveyExpMetaMem,3.2.3,Win32,60
,,,,,,,,,,,,,,,,,,,,5,3.644000053,5,0.284000158,1,0,1200,1075,1,1199,apprehension,11115,2019-10-28_09h09.31.416,SurveyExpMetaMem,3.2.3,Win32,60
,,,,,,,,,,,,,,,,,,,,5,1.428000212,5,0.223999977,1,0,1200,83,1,1199,appreciative,11115,2019-10-28_09h09.31.416,SurveyExpMetaMem,3.2.3,Win32,60
,,,,,,,,,,,,,,,,,,,,6,1.64199996,6,0.615999937,1,0,1200,880,1,1199,security,11115,2019-10-28_09h09.31.416,SurveyExpMetaMem,3.2.3,Win32,60
,,,,,,,,,,,,,,,,,,,,5,2.42599988,6,0.40899992,1,0,1200,804,1,1199,peach,11115,2019-10-28_09h09.31.416,SurveyExpMetaMem,3.2.3,Win32,60
,,,,,,,,,,,,,,,,,,,,5,1.115999937,5,0.477999926,1,0,1200,434,1,1199,frail,11115,2019-10-28_09h09.31.416,SurveyExpMetaMem,3.2.3,Win32,60
,,,,,,,,,,,,,,,,,,,,5,2.088000059,5,0.226999998,1,0,1200,251,1,1199,meteor,11115,2019-10-28_09h09.31.416,SurveyExpMetaMem,3.2.3,Win32,60
,,,,,,,,,,,,,,,,,,,,7,2.021000147,2,0.592000008,1,0,1200,900,1,1199,suicide,11115,2019-10-28_09h09.31.416,SurveyExpMetaMem,3.2.3,Win32,60
,,,,,,,,,,,,,,,,,,,,7,3.177000046,8,0.276000023,1,0,1200,77,1,1199,adore,11115,2019-10-28_09h09.31.416,SurveyExpMetaMem,3.2.3,Win32,60
,,,,,,,,,,,,,,,,,,,,5,2.775000095,5,0.243000031,1,0,1200,529,1,1199,small,11115,2019-10-28_09h09.31.416,SurveyExpMetaMem,3.2.3,Win32,60
,,,,,,,,,,,,,,,,,,,,5,1.111999989,5,0.24000001,1,0,1200,14,1,1199,attain,11115,2019-10-28_09h09.31.416,SurveyExpMetaMem,3.2.3,Win32,60
