mouse_4.x,mouse_4.y,mouse_4.leftButton,mouse_4.midButton,mouse_4.rightButton,mouse.x,mouse.y,mouse.leftButton,mouse.midButton,mouse.rightButton,mouse_2.x,mouse_2.y,mouse_2.leftButton,mouse_2.midButton,mouse_2.rightButton,mouse_3.x,mouse_3.y,mouse_3.leftButton,mouse_3.midButton,mouse_3.rightButton,A_key_resp.keys,A_key_resp.rt,key_resp.keys,key_resp.rt,trials.thisRepN,trials.thisTrialN,trials.thisN,trials.thisIndex,trials.ran,trials.order,word,ParticipantID,date,expName,psychopyVersion,OS,frameRate
0.162037068,-0.283333357,1,0,0,0.162037068,-0.283333357,1,0,0,0.162037068,-0.283333357,1,0,0,0.162037068,-0.283333357,1,0,0,9,6.934999943,1,4.214999914,1,0,1200,990,1,1199,enraged,11124,2019-10-21_21h29.45.501,SurveyExpMetaMem,3.2.3,Win32,60
,,,,,,,,,,,,,,,,,,,,9,4.398000002,9,1.59100008,1,0,1200,1033,1,1199,horror,11124,2019-10-21_21h29.45.501,SurveyExpMetaMem,3.2.3,Win32,60
,,,,,,,,,,,,,,,,,,,,3,7.77699995,1,1.501999855,1,0,1200,687,1,1199,skinny,11124,2019-10-21_21h29.45.501,SurveyExpMetaMem,3.2.3,Win32,60
,,,,,,,,,,,,,,,,,,,,9,3.167999983,9,1.744999886,1,0,1200,120,1,1199,imaginative,11124,2019-10-21_21h29.45.501,SurveyExpMetaMem,3.2.3,Win32,60
,,,,,,,,,,,,,,,,,,,,5,3.130999804,6,4.336999893,1,0,1200,179,1,1199,star,11124,2019-10-21_21h29.45.501,SurveyExpMetaMem,3.2.3,Win32,60
,,,,,,,,,,,,,,,,,,,,8,4.661000013,1,2.627000093,1,0,1200,1113,1,1199,dagger,11124,2019-10-21_21h29.45.501,SurveyExpMetaMem,3.2.3,Win32,60
,,,,,,,,,,,,,,,,,,,,7,4.82799983,8,3.703999996,1,0,1200,42,1,1199,accomplish,11124,2019-10-21_21h29.45.501,SurveyExpMetaMem,3.2.3,Win32,60
,,,,,,,,,,,,,,,,,,,,1,3.738999844,8,2.129999876,1,0,1200,754,1,1199,reflection,11124,2019-10-21_21h29.45.501,SurveyExpMetaMem,3.2.3,Win32,60
,,,,,,,,,,,,,,,,,,,,4,4.217999935,1,1.539999962,1,0,1200,503,1,1199,sludge,11124,2019-10-21_21h29.45.501,SurveyExpMetaMem,3.2.3,Win32,60
,,,,,,,,,,,,,,,,,,,,8,2.56099987,8,2.487999916,1,0,1200,276,1,1199,pastry,11124,2019-10-21_21h29.45.501,SurveyExpMetaMem,3.2.3,Win32,60
,,,,,,,,,,,,,,,,,,,,1,2.955999851,9,1.369999886,1,0,1200,835,1,1199,helpful,11124,2019-10-21_21h29.45.501,SurveyExpMetaMem,3.2.3,Win32,60
,,,,,,,,,,,,,,,,,,,,9,2.069000006,9,1.139999866,1,0,1200,86,1,1199,talent,11124,2019-10-21_21h29.45.501,SurveyExpMetaMem,3.2.3,Win32,60
,,,,,,,,,,,,,,,,,,,,5,2.342999935,5,0.423000097,1,0,1200,929,1,1199,mutilation,11124,2019-10-21_21h29.45.501,SurveyExpMetaMem,3.2.3,Win32,60
,,,,,,,,,,,,,,,,,,,,1,3.113999844,8,2.413999796,1,0,1200,806,1,1199,tree,11124,2019-10-21_21h29.45.501,SurveyExpMetaMem,3.2.3,Win32,60
,,,,,,,,,,,,,,,,,,,,9,2.485000134,9,1.157999992,1,0,1200,299,1,1199,champion,11124,2019-10-21_21h29.45.501,SurveyExpMetaMem,3.2.3,Win32,60
,,,,,,,,,,,,,,,,,,,,1,3.55099988,9,0.475999832,1,0,1200,46,1,1199,god,11124,2019-10-21_21h29.45.501,SurveyExpMetaMem,3.2.3,Win32,60
,,,,,,,,,,,,,,,,,,,,1,2.223999977,8,2.790999889,1,0,1200,715,1,1199,sheltered,11124,2019-10-21_21h29.45.501,SurveyExpMetaMem,3.2.3,Win32,60
,,,,,,,,,,,,,,,,,,,,9,1.869999886,9,1.05099988,1,0,1200,123,1,1199,favorite,11124,2019-10-21_21h29.45.501,SurveyExpMetaMem,3.2.3,Win32,60
,,,,,,,,,,,,,,,,,,,,9,1.742000103,9,0.907000065,1,0,1200,21,1,1199,game,11124,2019-10-21_21h29.45.501,SurveyExpMetaMem,3.2.3,Win32,60
,,,,,,,,,,,,,,,,,,,,1,2.924999952,6,1.737999916,1,0,1200,583,1,1199,obey,11124,2019-10-21_21h29.45.501,SurveyExpMetaMem,3.2.3,Win32,60
,,,,,,,,,,,,,,,,,,,,6,7.312999964,7,3.914999962,1,0,1200,108,1,1199,naked,11124,2019-10-21_21h29.45.501,SurveyExpMetaMem,3.2.3,Win32,60
,,,,,,,,,,,,,,,,,,,,5,2.292999983,5,0.497999907,1,0,1200,827,1,1199,saint,11124,2019-10-21_21h29.45.501,SurveyExpMetaMem,3.2.3,Win32,60
,,,,,,,,,,,,,,,,,,,,1,2.849999905,5,3.77699995,1,0,1200,1183,1,1199,emotional,11124,2019-10-21_21h29.45.501,SurveyExpMetaMem,3.2.3,Win32,60
,,,,,,,,,,,,,,,,,,,,1,3.179000139,1,0.902999878,1,0,1200,302,1,1199,loneliness,11124,2019-10-21_21h29.45.501,SurveyExpMetaMem,3.2.3,Win32,60
,,,,,,,,,,,,,,,,,,,,9,2.480999947,4,2.302000046,1,0,1200,949,1,1199,thief,11124,2019-10-21_21h29.45.501,SurveyExpMetaMem,3.2.3,Win32,60
,,,,,,,,,,,,,,,,,,,,7,4.391000032,1,1.026000023,1,0,1200,1046,1,1199,unsafe,11124,2019-10-21_21h29.45.501,SurveyExpMetaMem,3.2.3,Win32,60
,,,,,,,,,,,,,,,,,,,,1,2.459000111,5,12.81099987,1,0,1200,785,1,1199,pond,11124,2019-10-21_21h29.45.501,SurveyExpMetaMem,3.2.3,Win32,60
,,,,,,,,,,,,,,,,,,,,5,1.733999968,5,0.328999996,1,0,1200,659,1,1199,hair,11124,2019-10-21_21h29.45.501,SurveyExpMetaMem,3.2.3,Win32,60
,,,,,,,,,,,,,,,,,,,,8,2.813999891,5,1.156999826,1,0,1200,678,1,1199,lightbulb,11124,2019-10-21_21h29.45.501,SurveyExpMetaMem,3.2.3,Win32,60
,,,,,,,,,,,,,,,,,,,,1,6.368999958,1,0.326999903,1,0,1200,1130,1,1199,slut,11124,2019-10-21_21h29.45.501,SurveyExpMetaMem,3.2.3,Win32,60
,,,,,,,,,,,,,,,,,,,,5,4.002999783,5,0.467999935,1,0,1200,431,1,1199,itch,11124,2019-10-21_21h29.45.501,SurveyExpMetaMem,3.2.3,Win32,60
,,,,,,,,,,,,,,,,,,,,5,3.480000019,5,1.337999821,1,0,1200,465,1,1199,void,11124,2019-10-21_21h29.45.501,SurveyExpMetaMem,3.2.3,Win32,60
,,,,,,,,,,,,,,,,,,,,5,1.417000055,5,0.703999996,1,0,1200,931,1,1199,overweight,11124,2019-10-21_21h29.45.501,SurveyExpMetaMem,3.2.3,Win32,60
,,,,,,,,,,,,,,,,,,,,5,2.27699995,9,0.360999823,1,0,1200,729,1,1199,velvet,11124,2019-10-21_21h29.45.501,SurveyExpMetaMem,3.2.3,Win32,60
,,,,,,,,,,,,,,,,,,,,1,1.657999992,5,1.489999771,1,0,1200,751,1,1199,listen,11124,2019-10-21_21h29.45.501,SurveyExpMetaMem,3.2.3,Win32,60
,,,,,,,,,,,,,,,,,,,,6,2.821999788,1,1.204999924,1,0,1200,915,1,1199,abuse,11124,2019-10-21_21h29.45.501,SurveyExpMetaMem,3.2.3,Win32,60
,,,,,,,,,,,,,,,,,,,,5,2.803999901,1,0.721999884,1,0,1200,1027,1,1199,criticism,11124,2019-10-21_21h29.45.501,SurveyExpMetaMem,3.2.3,Win32,60
,,,,,,,,,,,,,,,,,,,,9,2.000999928,9,1.274999857,1,0,1200,808,1,1199,violinist,11124,2019-10-21_21h29.45.501,SurveyExpMetaMem,3.2.3,Win32,60
,,,,,,,,,,,,,,,,,,,,5,2.265999794,5,0.197999954,1,0,1200,522,1,1199,cleft,11124,2019-10-21_21h29.45.501,SurveyExpMetaMem,3.2.3,Win32,60
,,,,,,,,,,,,,,,,,,,,9,1.246000051,9,0.972000122,1,0,1200,31,1,1199,brownie,11124,2019-10-21_21h29.45.501,SurveyExpMetaMem,3.2.3,Win32,60
,,,,,,,,,,,,,,,,,,,,7,2.049999952,9,3.40899992,1,0,1200,13,1,1199,mingle,11124,2019-10-21_21h29.45.501,SurveyExpMetaMem,3.2.3,Win32,60
,,,,,,,,,,,,,,,,,,,,4,5.178999901,1,0.679999828,1,0,1200,955,1,1199,drown,11124,2019-10-21_21h29.45.501,SurveyExpMetaMem,3.2.3,Win32,60
,,,,,,,,,,,,,,,,,,,,8,3.388000011,9,1.197999954,1,0,1200,196,1,1199,smile,11124,2019-10-21_21h29.45.501,SurveyExpMetaMem,3.2.3,Win32,60
,,,,,,,,,,,,,,,,,,,,9,2.024999857,9,0.319000006,1,0,1200,192,1,1199,pleased,11124,2019-10-21_21h29.45.501,SurveyExpMetaMem,3.2.3,Win32,60
,,,,,,,,,,,,,,,,,,,,6,5.703999996,1,1.427000046,1,0,1200,319,1,1199,malaria,11124,2019-10-21_21h29.45.501,SurveyExpMetaMem,3.2.3,Win32,60
,,,,,,,,,,,,,,,,,,,,5,2.579999924,5,0.573999882,1,0,1200,282,1,1199,luck,11124,2019-10-21_21h29.45.501,SurveyExpMetaMem,3.2.3,Win32,60
,,,,,,,,,,,,,,,,,,,,5,2.178999901,9,0.513000011,1,0,1200,229,1,1199,heaven,11124,2019-10-21_21h29.45.501,SurveyExpMetaMem,3.2.3,Win32,60
,,,,,,,,,,,,,,,,,,,,5,1.318000078,2,0.312999964,1,0,1200,992,1,1199,addict,11124,2019-10-21_21h29.45.501,SurveyExpMetaMem,3.2.3,Win32,60
,,,,,,,,,,,,,,,,,,,,7,3.257999897,9,1.297999859,1,0,1200,809,1,1199,boy,11124,2019-10-21_21h29.45.501,SurveyExpMetaMem,3.2.3,Win32,60
,,,,,,,,,,,,,,,,,,,,5,1.552999973,1,0.402999878,1,0,1200,462,1,1199,shallow,11124,2019-10-21_21h29.45.501,SurveyExpMetaMem,3.2.3,Win32,60
,,,,,,,,,,,,,,,,,,,,5,1.240999937,5,0.387000084,1,0,1200,233,1,1199,exhilaration,11124,2019-10-21_21h29.45.501,SurveyExpMetaMem,3.2.3,Win32,60
,,,,,,,,,,,,,,,,,,,,5,1.121999979,5,0.539000034,1,0,1200,1133,1,1199,slip,11124,2019-10-21_21h29.45.501,SurveyExpMetaMem,3.2.3,Win32,60
,,,,,,,,,,,,,,,,,,,,5,1.343999863,7,0.823999882,1,0,1200,676,1,1199,straighten,11124,2019-10-21_21h29.45.501,SurveyExpMetaMem,3.2.3,Win32,60
,,,,,,,,,,,,,,,,,,,,5,1.636999846,3,0.537999868,1,0,1200,467,1,1199,FALSE,11124,2019-10-21_21h29.45.501,SurveyExpMetaMem,3.2.3,Win32,60
,,,,,,,,,,,,,,,,,,,,5,1.237999916,9,1.440999985,1,0,1200,268,1,1199,tickle,11124,2019-10-21_21h29.45.501,SurveyExpMetaMem,3.2.3,Win32,60
,,,,,,,,,,,,,,,,,,,,5,2.770999908,1,0.411000013,1,0,1200,510,1,1199,excuse,11124,2019-10-21_21h29.45.501,SurveyExpMetaMem,3.2.3,Win32,60
,,,,,,,,,,,,,,,,,,,,7,2.027999878,1,1.661000013,1,0,1200,1054,1,1199,jealous,11124,2019-10-21_21h29.45.501,SurveyExpMetaMem,3.2.3,Win32,60
,,,,,,,,,,,,,,,,,,,,9,1.437000036,9,0.579999924,1,0,1200,193,1,1199,party,11124,2019-10-21_21h29.45.501,SurveyExpMetaMem,3.2.3,Win32,60
,,,,,,,,,,,,,,,,,,,,3,1.246999741,3,0.49000001,1,0,1200,401,1,1199,feeble,11124,2019-10-21_21h29.45.501,SurveyExpMetaMem,3.2.3,Win32,60
,,,,,,,,,,,,,,,,,,,,9,7.24000001,2,3.894999981,1,0,1200,419,1,1199,immature,11124,2019-10-21_21h29.45.501,SurveyExpMetaMem,3.2.3,Win32,60
,,,,,,,,,,,,,,,,,,,,4,1.875999928,1,0.699999809,1,0,1200,958,1,1199,traitor,11124,2019-10-21_21h29.45.501,SurveyExpMetaMem,3.2.3,Win32,60
,,,,,,,,,,,,,,,,,,,,1,3.337999821,1,0.76699996,1,0,1200,456,1,1199,piss,11124,2019-10-21_21h29.45.501,SurveyExpMetaMem,3.2.3,Win32,60
,,,,,,,,,,,,,,,,,,,,7,5.080999851,1,1.045999765,1,0,1200,1076,1,1199,embarrassed,11124,2019-10-21_21h29.45.501,SurveyExpMetaMem,3.2.3,Win32,60
,,,,,,,,,,,,,,,,,,,,9,1.333999872,9,0.325999975,1,0,1200,87,1,1199,cookie,11124,2019-10-21_21h29.45.501,SurveyExpMetaMem,3.2.3,Win32,60
,,,,,,,,,,,,,,,,,,,,7,2.262000084,1,0.59100008,1,0,1200,1018,1,1199,distress,11124,2019-10-21_21h29.45.501,SurveyExpMetaMem,3.2.3,Win32,60
,,,,,,,,,,,,,,,,,,,,3,1.478999853,3,0.406999826,1,0,1200,564,1,1199,wane,11124,2019-10-21_21h29.45.501,SurveyExpMetaMem,3.2.3,Win32,60
,,,,,,,,,,,,,,,,,,,,4,1.950000048,1,0.339999914,1,0,1200,335,1,1199,decay,11124,2019-10-21_21h29.45.501,SurveyExpMetaMem,3.2.3,Win32,60
,,,,,,,,,,,,,,,,,,,,9,3.40899992,1,1.867000103,1,0,1200,1116,1,1199,emergency,11124,2019-10-21_21h29.45.501,SurveyExpMetaMem,3.2.3,Win32,60
,,,,,,,,,,,,,,,,,,,,1,1.911000013,1,0.654999971,1,0,1200,999,1,1199,burdened,11124,2019-10-21_21h29.45.501,SurveyExpMetaMem,3.2.3,Win32,60
,,,,,,,,,,,,,,,,,,,,8,1.870000124,1,0.610999823,1,0,1200,945,1,1199,demon,11124,2019-10-21_21h29.45.501,SurveyExpMetaMem,3.2.3,Win32,60
,,,,,,,,,,,,,,,,,,,,3,2.286000013,1,0.254999876,1,0,1200,347,1,1199,unpleasant,11124,2019-10-21_21h29.45.501,SurveyExpMetaMem,3.2.3,Win32,60
,,,,,,,,,,,,,,,,,,,,9,2.976000071,5,1.059000015,1,0,1200,157,1,1199,reveal,11124,2019-10-21_21h29.45.501,SurveyExpMetaMem,3.2.3,Win32,60
,,,,,,,,,,,,,,,,,,,,5,4.713999987,5,0.306999922,1,0,1200,648,1,1199,beads,11124,2019-10-21_21h29.45.501,SurveyExpMetaMem,3.2.3,Win32,60
,,,,,,,,,,,,,,,,,,,,7,5.125,9,2.22300005,1,0,1200,891,1,1199,kind,11124,2019-10-21_21h29.45.501,SurveyExpMetaMem,3.2.3,Win32,60
,,,,,,,,,,,,,,,,,,,,5,5.622999907,9,0.690999985,1,0,1200,455,1,1199,chubby,11124,2019-10-21_21h29.45.501,SurveyExpMetaMem,3.2.3,Win32,60
,,,,,,,,,,,,,,,,,,,,9,3.242000103,9,1.586999893,1,0,1200,261,1,1199,windsurfers,11124,2019-10-21_21h29.45.501,SurveyExpMetaMem,3.2.3,Win32,60
,,,,,,,,,,,,,,,,,,,,7,2.812000036,1,0.619999886,1,0,1200,1117,1,1199,court,11124,2019-10-21_21h29.45.501,SurveyExpMetaMem,3.2.3,Win32,60
,,,,,,,,,,,,,,,,,,,,7,2.220999718,7,0.212000132,1,0,1200,851,1,1199,cool,11124,2019-10-21_21h29.45.501,SurveyExpMetaMem,3.2.3,Win32,60
,,,,,,,,,,,,,,,,,,,,7,1.302999973,1,0.228999853,1,0,1200,1005,1,1199,pissed,11124,2019-10-21_21h29.45.501,SurveyExpMetaMem,3.2.3,Win32,60
,,,,,,,,,,,,,,,,,,,,5,3.008999825,5,0.20299983,1,0,1200,656,1,1199,number,11124,2019-10-21_21h29.45.501,SurveyExpMetaMem,3.2.3,Win32,60
,,,,,,,,,,,,,,,,,,,,9,1.657999992,1,1.73300004,1,0,1200,1078,1,1199,trouble,11124,2019-10-21_21h29.45.501,SurveyExpMetaMem,3.2.3,Win32,60
,,,,,,,,,,,,,,,,,,,,1,3.039999962,4,1.338999987,1,0,1200,505,1,1199,exhaust,11124,2019-10-21_21h29.45.501,SurveyExpMetaMem,3.2.3,Win32,60
,,,,,,,,,,,,,,,,,,,,5,3.171999931,5,0.255999804,1,0,1200,228,1,1199,suite,11124,2019-10-21_21h29.45.501,SurveyExpMetaMem,3.2.3,Win32,60
,,,,,,,,,,,,,,,,,,,,5,2.173000097,1,0.445999861,1,0,1200,354,1,1199,cowardice,11124,2019-10-21_21h29.45.501,SurveyExpMetaMem,3.2.3,Win32,60
,,,,,,,,,,,,,,,,,,,,5,1.095000029,5,0.220999956,1,0,1200,893,1,1199,nature,11124,2019-10-21_21h29.45.501,SurveyExpMetaMem,3.2.3,Win32,60
,,,,,,,,,,,,,,,,,,,,9,2.521999836,9,0.389999866,1,0,1200,160,1,1199,reunion,11124,2019-10-21_21h29.45.501,SurveyExpMetaMem,3.2.3,Win32,60
,,,,,,,,,,,,,,,,,,,,9,1.269999981,9,0.203000069,1,0,1200,93,1,1199,smiling,11124,2019-10-21_21h29.45.501,SurveyExpMetaMem,3.2.3,Win32,60
,,,,,,,,,,,,,,,,,,,,9,1.085999966,9,0.17599988,1,0,1200,195,1,1199,laughing,11124,2019-10-21_21h29.45.501,SurveyExpMetaMem,3.2.3,Win32,60
,,,,,,,,,,,,,,,,,,,,9,2.243999958,2,0.438999891,1,0,1200,973,1,1199,anger,11124,2019-10-21_21h29.45.501,SurveyExpMetaMem,3.2.3,Win32,60
,,,,,,,,,,,,,,,,,,,,9,2.520999908,1,0.359999895,1,0,1200,1007,1,1199,tornado,11124,2019-10-21_21h29.45.501,SurveyExpMetaMem,3.2.3,Win32,60
,,,,,,,,,,,,,,,,,,,,7,2.434999704,4,0.345999956,1,0,1200,977,1,1199,choke,11124,2019-10-21_21h29.45.501,SurveyExpMetaMem,3.2.3,Win32,60
,,,,,,,,,,,,,,,,,,,,5,1.902999878,5,0.230999947,1,0,1200,348,1,1199,impotent,11124,2019-10-21_21h29.45.501,SurveyExpMetaMem,3.2.3,Win32,60
,,,,,,,,,,,,,,,,,,,,7,1.833999872,7,0.375,1,0,1200,840,1,1199,cuisine,11124,2019-10-21_21h29.45.501,SurveyExpMetaMem,3.2.3,Win32,60
,,,,,,,,,,,,,,,,,,,,5,2.380999804,5,0.276000023,1,0,1200,699,1,1199,leg,11124,2019-10-21_21h29.45.501,SurveyExpMetaMem,3.2.3,Win32,60
,,,,,,,,,,,,,,,,,,,,5,1.089999914,5,0.20299983,1,0,1200,1191,1,1199,evade,11124,2019-10-21_21h29.45.501,SurveyExpMetaMem,3.2.3,Win32,60
,,,,,,,,,,,,,,,,,,,,5,2.633999825,5,0.646000147,1,0,1200,727,1,1199,author,11124,2019-10-21_21h29.45.501,SurveyExpMetaMem,3.2.3,Win32,60
,,,,,,,,,,,,,,,,,,,,4,1.4599998,1,0.479999781,1,0,1200,307,1,1199,sick,11124,2019-10-21_21h29.45.501,SurveyExpMetaMem,3.2.3,Win32,60
,,,,,,,,,,,,,,,,,,,,5,2.312999964,8,0.944999933,1,0,1200,631,1,1199,delicate,11124,2019-10-21_21h29.45.501,SurveyExpMetaMem,3.2.3,Win32,60
,,,,,,,,,,,,,,,,,,,,5,2.958999872,5,0.274999857,1,0,1200,67,1,1199,penthouse,11124,2019-10-21_21h29.45.501,SurveyExpMetaMem,3.2.3,Win32,60
,,,,,,,,,,,,,,,,,,,,5,1.311999798,5,0.22699976,1,0,1200,869,1,1199,assure,11124,2019-10-21_21h29.45.501,SurveyExpMetaMem,3.2.3,Win32,60
,,,,,,,,,,,,,,,,,,,,1,2.082999945,7,1.726000071,1,0,1200,857,1,1199,thankful,11124,2019-10-21_21h29.45.501,SurveyExpMetaMem,3.2.3,Win32,60
,,,,,,,,,,,,,,,,,,,,5,1.269999981,5,0.257999897,1,0,1200,215,1,1199,salary,11124,2019-10-21_21h29.45.501,SurveyExpMetaMem,3.2.3,Win32,60
,,,,,,,,,,,,,,,,,,,,1,3.634000063,1,0.434999943,1,0,1200,308,1,1199,worthless,11124,2019-10-21_21h29.45.501,SurveyExpMetaMem,3.2.3,Win32,60
,,,,,,,,,,,,,,,,,,,,8,1.892999887,1,0.644999981,1,0,1200,1176,1,1199,vampire,11124,2019-10-21_21h29.45.501,SurveyExpMetaMem,3.2.3,Win32,60
,,,,,,,,,,,,,,,,,,,,5,3.527999878,5,0.22699976,1,0,1200,128,1,1199,supper,11124,2019-10-21_21h29.45.501,SurveyExpMetaMem,3.2.3,Win32,60
,,,,,,,,,,,,,,,,,,,,8,1.4599998,9,1.964999914,1,0,1200,235,1,1199,cheery,11124,2019-10-21_21h29.45.501,SurveyExpMetaMem,3.2.3,Win32,60
,,,,,,,,,,,,,,,,,,,,5,2.223999977,5,0.197999954,1,0,1200,1098,1,1199,confused,11124,2019-10-21_21h29.45.501,SurveyExpMetaMem,3.2.3,Win32,60
,,,,,,,,,,,,,,,,,,,,5,0.960999966,5,0.174000025,1,0,1200,2,1,1199,zealous,11124,2019-10-21_21h29.45.501,SurveyExpMetaMem,3.2.3,Win32,60
,,,,,,,,,,,,,,,,,,,,5,0.866999865,5,0.178999901,1,0,1200,418,1,1199,cheapskate,11124,2019-10-21_21h29.45.501,SurveyExpMetaMem,3.2.3,Win32,60
,,,,,,,,,,,,,,,,,,,,7,1.687999964,2,0.531999826,1,0,1200,967,1,1199,horrible,11124,2019-10-21_21h29.45.501,SurveyExpMetaMem,3.2.3,Win32,60
,,,,,,,,,,,,,,,,,,,,9,1.537999868,9,0.503999949,1,0,1200,240,1,1199,giggles,11124,2019-10-21_21h29.45.501,SurveyExpMetaMem,3.2.3,Win32,60
,,,,,,,,,,,,,,,,,,,,9,1.993999958,5,1.297999859,1,0,1200,1099,1,1199,fire,11124,2019-10-21_21h29.45.501,SurveyExpMetaMem,3.2.3,Win32,60
,,,,,,,,,,,,,,,,,,,,5,3.334000111,5,0.28399992,1,0,1200,165,1,1199,sizzle,11124,2019-10-21_21h29.45.501,SurveyExpMetaMem,3.2.3,Win32,60
,,,,,,,,,,,,,,,,,,,,5,0.878000021,5,0.198999882,1,0,1200,1061,1,1199,difficult,11124,2019-10-21_21h29.45.501,SurveyExpMetaMem,3.2.3,Win32,60
,,,,,,,,,,,,,,,,,,,,5,0.791999817,5,0.196999788,1,0,1200,134,1,1199,dollar,11124,2019-10-21_21h29.45.501,SurveyExpMetaMem,3.2.3,Win32,60
,,,,,,,,,,,,,,,,,,,,9,1.840999842,5,1.444999933,1,0,1200,28,1,1199,energy,11124,2019-10-21_21h29.45.501,SurveyExpMetaMem,3.2.3,Win32,60
,,,,,,,,,,,,,,,,,,,,9,1.513999939,5,0.323999882,1,0,1200,286,1,1199,superstar,11124,2019-10-21_21h29.45.501,SurveyExpMetaMem,3.2.3,Win32,60
,,,,,,,,,,,,,,,,,,,,5,1.444000006,5,0.196999788,1,0,1200,394,1,1199,dump,11124,2019-10-21_21h29.45.501,SurveyExpMetaMem,3.2.3,Win32,60
,,,,,,,,,,,,,,,,,,,,5,0.624999762,5,0.351999998,1,0,1200,470,1,1199,cynical,11124,2019-10-21_21h29.45.501,SurveyExpMetaMem,3.2.3,Win32,60
,,,,,,,,,,,,,,,,,,,,1,1.600999832,5,1.157000065,1,0,1200,844,1,1199,soul,11124,2019-10-21_21h29.45.501,SurveyExpMetaMem,3.2.3,Win32,60
,,,,,,,,,,,,,,,,,,,,5,2.97699976,5,0.210000038,1,0,1200,186,1,1199,holiday,11124,2019-10-21_21h29.45.501,SurveyExpMetaMem,3.2.3,Win32,60
,,,,,,,,,,,,,,,,,,,,1,2.507999897,5,2.711999893,1,0,1200,496,1,1199,slow,11124,2019-10-21_21h29.45.501,SurveyExpMetaMem,3.2.3,Win32,60
,,,,,,,,,,,,,,,,,,,,5,2.221999884,1,0.647000074,1,0,1200,378,1,1199,dislike,11124,2019-10-21_21h29.45.501,SurveyExpMetaMem,3.2.3,Win32,60
,,,,,,,,,,,,,,,,,,,,5,1.143999815,5,0.356999874,1,0,1200,636,1,1199,refine,11124,2019-10-21_21h29.45.501,SurveyExpMetaMem,3.2.3,Win32,60
,,,,,,,,,,,,,,,,,,,,5,0.782000065,5,0.180999756,1,0,1200,205,1,1199,outspoken,11124,2019-10-21_21h29.45.501,SurveyExpMetaMem,3.2.3,Win32,60
,,,,,,,,,,,,,,,,,,,,5,0.757999897,5,0.363999844,1,0,1200,413,1,1199,deficient,11124,2019-10-21_21h29.45.501,SurveyExpMetaMem,3.2.3,Win32,60
,,,,,,,,,,,,,,,,,,,,9,7.189999819,9,1.024999857,1,0,1200,198,1,1199,comedy,11124,2019-10-21_21h29.45.501,SurveyExpMetaMem,3.2.3,Win32,60
,,,,,,,,,,,,,,,,,,,,5,3.8349998,1,3.245999813,1,0,1200,1126,1,1199,offensive,11124,2019-10-21_21h29.45.501,SurveyExpMetaMem,3.2.3,Win32,60
,,,,,,,,,,,,,,,,,,,,5,2.806999922,5,0.934999943,1,0,1200,534,1,1199,rules,11124,2019-10-21_21h29.45.501,SurveyExpMetaMem,3.2.3,Win32,60
,,,,,,,,,,,,,,,,,,,,5,1.739999771,5,0.282999992,1,0,1200,252,1,1199,infatuated,11124,2019-10-21_21h29.45.501,SurveyExpMetaMem,3.2.3,Win32,60
,,,,,,,,,,,,,,,,,,,,9,1.239999771,5,2.069999933,1,0,1200,8,1,1199,extreme,11124,2019-10-21_21h29.45.501,SurveyExpMetaMem,3.2.3,Win32,60
,,,,,,,,,,,,,,,,,,,,5,1.801999807,5,0.453000069,1,0,1200,589,1,1199,coarse,11124,2019-10-21_21h29.45.501,SurveyExpMetaMem,3.2.3,Win32,60
,,,,,,,,,,,,,,,,,,,,7,2.424000025,9,0.536999941,1,0,1200,149,1,1199,loved,11124,2019-10-21_21h29.45.501,SurveyExpMetaMem,3.2.3,Win32,60
,,,,,,,,,,,,,,,,,,,,5,0.86500001,5,0.394000053,1,0,1200,560,1,1199,spurn,11124,2019-10-21_21h29.45.501,SurveyExpMetaMem,3.2.3,Win32,60
,,,,,,,,,,,,,,,,,,,,5,1.223999739,5,0.18599987,1,0,1200,1193,1,1199,damn,11124,2019-10-21_21h29.45.501,SurveyExpMetaMem,3.2.3,Win32,60
,,,,,,,,,,,,,,,,,,,,9,1.428999901,9,0.607999802,1,0,1200,293,1,1199,succeed,11124,2019-10-21_21h29.45.501,SurveyExpMetaMem,3.2.3,Win32,60
,,,,,,,,,,,,,,,,,,,,9,1.489000082,8,1.568999767,1,0,1200,175,1,1199,playground,11124,2019-10-21_21h29.45.501,SurveyExpMetaMem,3.2.3,Win32,60
,,,,,,,,,,,,,,,,,,,,5,3.244999886,5,0.443999767,1,0,1200,1048,1,1199,paranoid,11124,2019-10-21_21h29.45.501,SurveyExpMetaMem,3.2.3,Win32,60
,,,,,,,,,,,,,,,,,,,,5,2.16899991,5,0.253999949,1,0,1200,666,1,1199,verify,11124,2019-10-21_21h29.45.501,SurveyExpMetaMem,3.2.3,Win32,60
,,,,,,,,,,,,,,,,,,,,5,0.635999918,5,0.213000059,1,0,1200,555,1,1199,school,11124,2019-10-21_21h29.45.501,SurveyExpMetaMem,3.2.3,Win32,60
,,,,,,,,,,,,,,,,,,,,5,0.710000038,5,0.256000042,1,0,1200,133,1,1199,prosperous,11124,2019-10-21_21h29.45.501,SurveyExpMetaMem,3.2.3,Win32,60
,,,,,,,,,,,,,,,,,,,,9,3.30099988,9,0.16899991,1,0,1200,296,1,1199,awesome,11124,2019-10-21_21h29.45.501,SurveyExpMetaMem,3.2.3,Win32,60
,,,,,,,,,,,,,,,,,,,,5,2.26699996,5,0.357000113,1,0,1200,1119,1,1199,confusion,11124,2019-10-21_21h29.45.501,SurveyExpMetaMem,3.2.3,Win32,60
,,,,,,,,,,,,,,,,,,,,5,0.269999981,7,3.025999784,1,0,1200,898,1,1199,kindness,11124,2019-10-21_21h29.45.501,SurveyExpMetaMem,3.2.3,Win32,60
,,,,,,,,,,,,,,,,,,,,8,1.569000006,1,0.748999834,1,0,1200,960,1,1199,irritated,11124,2019-10-21_21h29.45.501,SurveyExpMetaMem,3.2.3,Win32,60
,,,,,,,,,,,,,,,,,,,,6,2.342999935,6,0.243999958,1,0,1200,528,1,1199,dirt,11124,2019-10-21_21h29.45.501,SurveyExpMetaMem,3.2.3,Win32,60
,,,,,,,,,,,,,,,,,,,,3,2.217999935,1,0.478999853,1,0,1200,316,1,1199,sorrow,11124,2019-10-21_21h29.45.501,SurveyExpMetaMem,3.2.3,Win32,60
,,,,,,,,,,,,,,,,,,,,6,1.542000055,5,0.347999811,1,0,1200,932,1,1199,bankrupt,11124,2019-10-21_21h29.45.501,SurveyExpMetaMem,3.2.3,Win32,60
,,,,,,,,,,,,,,,,,,,,5,3.455999851,1,0.42599988,1,0,1200,930,1,1199,poison,11124,2019-10-21_21h29.45.501,SurveyExpMetaMem,3.2.3,Win32,60
,,,,,,,,,,,,,,,,,,,,5,1.426000118,5,0.30700016,1,0,1200,790,1,1199,binoculars,11124,2019-10-21_21h29.45.501,SurveyExpMetaMem,3.2.3,Win32,60
,,,,,,,,,,,,,,,,,,,,5,1.416999817,5,0.204999924,1,0,1200,938,1,1199,seasick,11124,2019-10-21_21h29.45.501,SurveyExpMetaMem,3.2.3,Win32,60
,,,,,,,,,,,,,,,,,,,,5,1.035000086,5,0.193000078,1,0,1200,1195,1,1199,speech,11124,2019-10-21_21h29.45.501,SurveyExpMetaMem,3.2.3,Win32,60
,,,,,,,,,,,,,,,,,,,,5,1.999000072,5,0.24000001,1,0,1200,1093,1,1199,hive,11124,2019-10-21_21h29.45.501,SurveyExpMetaMem,3.2.3,Win32,60
,,,,,,,,,,,,,,,,,,,,5,1.891000032,5,0.228999853,1,0,1200,442,1,1199,foolish,11124,2019-10-21_21h29.45.501,SurveyExpMetaMem,3.2.3,Win32,60
,,,,,,,,,,,,,,,,,,,,5,1.191999912,5,0.289000034,1,0,1200,718,1,1199,flow,11124,2019-10-21_21h29.45.501,SurveyExpMetaMem,3.2.3,Win32,60
,,,,,,,,,,,,,,,,,,,,5,1.60800004,5,0.224999905,1,0,1200,525,1,1199,stagnant,11124,2019-10-21_21h29.45.501,SurveyExpMetaMem,3.2.3,Win32,60
,,,,,,,,,,,,,,,,,,,,8,2.704999924,1,1.139999866,1,0,1200,962,1,1199,poisonous,11124,2019-10-21_21h29.45.501,SurveyExpMetaMem,3.2.3,Win32,60
,,,,,,,,,,,,,,,,,,,,5,1.080999851,5,0.35800004,1,0,1200,669,1,1199,plaza,11124,2019-10-21_21h29.45.501,SurveyExpMetaMem,3.2.3,Win32,60
,,,,,,,,,,,,,,,,,,,,8,2.638000011,3,1.730999947,1,0,1200,253,1,1199,soldier,11124,2019-10-21_21h29.45.501,SurveyExpMetaMem,3.2.3,Win32,60
,,,,,,,,,,,,,,,,,,,,5,1.007999897,5,0.464999914,1,0,1200,557,1,1199,class,11124,2019-10-21_21h29.45.501,SurveyExpMetaMem,3.2.3,Win32,60
,,,,,,,,,,,,,,,,,,,,5,0.681999922,5,0.247999907,1,0,1200,567,1,1199,folly,11124,2019-10-21_21h29.45.501,SurveyExpMetaMem,3.2.3,Win32,60
,,,,,,,,,,,,,,,,,,,,9,2.832000017,2,0.806999922,1,0,1200,441,1,1199,prohibit,11124,2019-10-21_21h29.45.501,SurveyExpMetaMem,3.2.3,Win32,60
,,,,,,,,,,,,,,,,,,,,5,1.220000029,5,0.607999802,1,0,1200,854,1,1199,river,11124,2019-10-21_21h29.45.501,SurveyExpMetaMem,3.2.3,Win32,60
,,,,,,,,,,,,,,,,,,,,9,2.622999907,1,0.957000017,1,0,1200,1052,1,1199,angry,11124,2019-10-21_21h29.45.501,SurveyExpMetaMem,3.2.3,Win32,60
,,,,,,,,,,,,,,,,,,,,5,3.73699975,5,0.59499979,1,0,1200,485,1,1199,pinch,11124,2019-10-21_21h29.45.501,SurveyExpMetaMem,3.2.3,Win32,60
,,,,,,,,,,,,,,,,,,,,1,2.328999996,1,1.174999952,1,0,1200,1100,1,1199,evil,11124,2019-10-21_21h29.45.501,SurveyExpMetaMem,3.2.3,Win32,60
,,,,,,,,,,,,,,,,,,,,5,1.588999987,5,0.162999868,1,0,1200,519,1,1199,listless,11124,2019-10-21_21h29.45.501,SurveyExpMetaMem,3.2.3,Win32,60
,,,,,,,,,,,,,,,,,,,,5,0.927999973,5,0.19299984,1,0,1200,822,1,1199,clearer,11124,2019-10-21_21h29.45.501,SurveyExpMetaMem,3.2.3,Win32,60
,,,,,,,,,,,,,,,,,,,,8,1.427000046,9,0.714999914,1,0,1200,22,1,1199,doughnut,11124,2019-10-21_21h29.45.501,SurveyExpMetaMem,3.2.3,Win32,60
,,,,,,,,,,,,,,,,,,,,8,1.671999931,8,0.346999884,1,0,1200,132,1,1199,silly,11124,2019-10-21_21h29.45.501,SurveyExpMetaMem,3.2.3,Win32,60
,,,,,,,,,,,,,,,,,,,,9,3.31099987,5,3.046999931,1,0,1200,1064,1,1199,sinful,11124,2019-10-21_21h29.45.501,SurveyExpMetaMem,3.2.3,Win32,60
,,,,,,,,,,,,,,,,,,,,5,1.32799983,5,0.444000006,1,0,1200,375,1,1199,manure,11124,2019-10-21_21h29.45.501,SurveyExpMetaMem,3.2.3,Win32,60
,,,,,,,,,,,,,,,,,,,,5,0.643999815,5,0.258999825,1,0,1200,436,1,1199,mediocre,11124,2019-10-21_21h29.45.501,SurveyExpMetaMem,3.2.3,Win32,60
,,,,,,,,,,,,,,,,,,,,5,1.006999969,5,0.194000006,1,0,1200,403,1,1199,wither,11124,2019-10-21_21h29.45.501,SurveyExpMetaMem,3.2.3,Win32,60
,,,,,,,,,,,,,,,,,,,,9,1.457000017,1,0.582000017,1,0,1200,918,1,1199,gunpoint,11124,2019-10-21_21h29.45.501,SurveyExpMetaMem,3.2.3,Win32,60
,,,,,,,,,,,,,,,,,,,,9,1.475999832,9,0.420999765,1,0,1200,78,1,1199,energetic,11124,2019-10-21_21h29.45.501,SurveyExpMetaMem,3.2.3,Win32,60
,,,,,,,,,,,,,,,,,,,,8,2.05099988,6,1.394000053,1,0,1200,763,1,1199,vegetables,11124,2019-10-21_21h29.45.501,SurveyExpMetaMem,3.2.3,Win32,60
,,,,,,,,,,,,,,,,,,,,8,2.085999966,9,0.907999992,1,0,1200,35,1,1199,bright,11124,2019-10-21_21h29.45.501,SurveyExpMetaMem,3.2.3,Win32,60
,,,,,,,,,,,,,,,,,,,,5,1.628999949,5,0.355000019,1,0,1200,640,1,1199,cabin,11124,2019-10-21_21h29.45.501,SurveyExpMetaMem,3.2.3,Win32,60
,,,,,,,,,,,,,,,,,,,,9,2.176999807,9,0.970000029,1,0,1200,254,1,1199,crush,11124,2019-10-21_21h29.45.501,SurveyExpMetaMem,3.2.3,Win32,60
,,,,,,,,,,,,,,,,,,,,3,3.025000095,1,0.825999975,1,0,1200,903,1,1199,cancer,11124,2019-10-21_21h29.45.501,SurveyExpMetaMem,3.2.3,Win32,60
,,,,,,,,,,,,,,,,,,,,5,1.572999954,5,0.305000067,1,0,1200,492,1,1199,naive,11124,2019-10-21_21h29.45.501,SurveyExpMetaMem,3.2.3,Win32,60
,,,,,,,,,,,,,,,,,,,,8,1.200999737,9,0.535000086,1,0,1200,99,1,1199,funny,11124,2019-10-21_21h29.45.501,SurveyExpMetaMem,3.2.3,Win32,60
,,,,,,,,,,,,,,,,,,,,5,1.38499999,5,0.385999918,1,0,1200,811,1,1199,tenderness,11124,2019-10-21_21h29.45.501,SurveyExpMetaMem,3.2.3,Win32,60
,,,,,,,,,,,,,,,,,,,,5,0.710000038,5,0.227999926,1,0,1200,1160,1,1199,enlist,11124,2019-10-21_21h29.45.501,SurveyExpMetaMem,3.2.3,Win32,60
,,,,,,,,,,,,,,,,,,,,5,1.346999884,5,0.184999943,1,0,1200,781,1,1199,emerald,11124,2019-10-21_21h29.45.501,SurveyExpMetaMem,3.2.3,Win32,60
,,,,,,,,,,,,,,,,,,,,8,1.384000063,2,0.760999918,1,0,1200,1015,1,1199,frighten,11124,2019-10-21_21h29.45.501,SurveyExpMetaMem,3.2.3,Win32,60
,,,,,,,,,,,,,,,,,,,,9,1.929000139,1,1.735999823,1,0,1200,1161,1,1199,shock,11124,2019-10-21_21h29.45.501,SurveyExpMetaMem,3.2.3,Win32,60
,,,,,,,,,,,,,,,,,,,,5,1.754999876,5,0.453999996,1,0,1200,203,1,1199,seal,11124,2019-10-21_21h29.45.501,SurveyExpMetaMem,3.2.3,Win32,60
,,,,,,,,,,,,,,,,,,,,1,1.852999926,1,1.286000013,1,0,1200,76,1,1199,midnight,11124,2019-10-21_21h29.45.501,SurveyExpMetaMem,3.2.3,Win32,60
,,,,,,,,,,,,,,,,,,,,5,2.822999954,5,0.209000111,1,0,1200,665,1,1199,read,11124,2019-10-21_21h29.45.501,SurveyExpMetaMem,3.2.3,Win32,60
,,,,,,,,,,,,,,,,,,,,5,0.65199995,5,0.163000107,1,0,1200,71,1,1199,spirit,11124,2019-10-21_21h29.45.501,SurveyExpMetaMem,3.2.3,Win32,60
,,,,,,,,,,,,,,,,,,,,9,1.503999949,9,0.542999983,1,0,1200,49,1,1199,ecstatic,11124,2019-10-21_21h29.45.501,SurveyExpMetaMem,3.2.3,Win32,60
,,,,,,,,,,,,,,,,,,,,5,2.671000004,5,0.224999905,1,0,1200,232,1,1199,prosper,11124,2019-10-21_21h29.45.501,SurveyExpMetaMem,3.2.3,Win32,60
,,,,,,,,,,,,,,,,,,,,5,0.771000147,5,0.230000019,1,0,1200,273,1,1199,worthwhile,11124,2019-10-21_21h29.45.501,SurveyExpMetaMem,3.2.3,Win32,60
,,,,,,,,,,,,,,,,,,,,8,1.763000011,9,1.141000032,1,0,1200,224,1,1199,strengthen,11124,2019-10-21_21h29.45.501,SurveyExpMetaMem,3.2.3,Win32,60
,,,,,,,,,,,,,,,,,,,,9,2.085999966,1,0.518999815,1,0,1200,1031,1,1199,fear,11124,2019-10-21_21h29.45.501,SurveyExpMetaMem,3.2.3,Win32,60
,,,,,,,,,,,,,,,,,,,,5,1.697999954,5,0.234999895,1,0,1200,107,1,1199,sandwich,11124,2019-10-21_21h29.45.501,SurveyExpMetaMem,3.2.3,Win32,60
,,,,,,,,,,,,,,,,,,,,9,2.671999931,8,1.063999891,1,0,1200,58,1,1199,boost,11124,2019-10-21_21h29.45.501,SurveyExpMetaMem,3.2.3,Win32,60
,,,,,,,,,,,,,,,,,,,,5,2.834000111,5,0.273000002,1,0,1200,995,1,1199,cult,11124,2019-10-21_21h29.45.501,SurveyExpMetaMem,3.2.3,Win32,60
,,,,,,,,,,,,,,,,,,,,5,0.912999868,5,0.227999926,1,0,1200,579,1,1199,bus,11124,2019-10-21_21h29.45.501,SurveyExpMetaMem,3.2.3,Win32,60
,,,,,,,,,,,,,,,,,,,,9,1.473999739,9,1.170999765,1,0,1200,185,1,1199,flirt,11124,2019-10-21_21h29.45.501,SurveyExpMetaMem,3.2.3,Win32,60
,,,,,,,,,,,,,,,,,,,,5,1.102999926,5,0.420999765,1,0,1200,390,1,1199,impair,11124,2019-10-21_21h29.45.501,SurveyExpMetaMem,3.2.3,Win32,60
,,,,,,,,,,,,,,,,,,,,5,0.91899991,5,0.212999821,1,0,1200,409,1,1199,old,11124,2019-10-21_21h29.45.501,SurveyExpMetaMem,3.2.3,Win32,60
,,,,,,,,,,,,,,,,,,,,5,0.96999979,5,0.220000029,1,0,1200,288,1,1199,tasty,11124,2019-10-21_21h29.45.501,SurveyExpMetaMem,3.2.3,Win32,60
,,,,,,,,,,,,,,,,,,,,5,0.804999828,5,0.230999708,1,0,1200,779,1,1199,shampoo,11124,2019-10-21_21h29.45.501,SurveyExpMetaMem,3.2.3,Win32,60
,,,,,,,,,,,,,,,,,,,,8,1.806999922,1,0.48699975,1,0,1200,1042,1,1199,brutal,11124,2019-10-21_21h29.45.501,SurveyExpMetaMem,3.2.3,Win32,60
,,,,,,,,,,,,,,,,,,,,5,1.167999744,5,0.361999989,1,0,1200,605,1,1199,year,11124,2019-10-21_21h29.45.501,SurveyExpMetaMem,3.2.3,Win32,60
,,,,,,,,,,,,,,,,,,,,7,2.815999746,1,0.654999971,1,0,1200,1082,1,1199,hazard,11124,2019-10-21_21h29.45.501,SurveyExpMetaMem,3.2.3,Win32,60
,,,,,,,,,,,,,,,,,,,,5,1.371999979,5,0.235999823,1,0,1200,748,1,1199,town,11124,2019-10-21_21h29.45.501,SurveyExpMetaMem,3.2.3,Win32,60
,,,,,,,,,,,,,,,,,,,,5,2.436999798,5,0.203000069,1,0,1200,745,1,1199,inform,11124,2019-10-21_21h29.45.501,SurveyExpMetaMem,3.2.3,Win32,60
,,,,,,,,,,,,,,,,,,,,5,1.286000013,5,0.201999903,1,0,1200,65,1,1199,restaurant,11124,2019-10-21_21h29.45.501,SurveyExpMetaMem,3.2.3,Win32,60
,,,,,,,,,,,,,,,,,,,,5,0.680000067,5,0.257999897,1,0,1200,468,1,1199,noose,11124,2019-10-21_21h29.45.501,SurveyExpMetaMem,3.2.3,Win32,60
,,,,,,,,,,,,,,,,,,,,5,1.184999943,5,0.215999842,1,0,1200,212,1,1199,belief,11124,2019-10-21_21h29.45.501,SurveyExpMetaMem,3.2.3,Win32,60
,,,,,,,,,,,,,,,,,,,,8,1.745000124,1,0.613999844,1,0,1200,982,1,1199,robbery,11124,2019-10-21_21h29.45.501,SurveyExpMetaMem,3.2.3,Win32,60
,,,,,,,,,,,,,,,,,,,,5,1.585999966,5,0.197999716,1,0,1200,892,1,1199,untroubled,11124,2019-10-21_21h29.45.501,SurveyExpMetaMem,3.2.3,Win32,60
,,,,,,,,,,,,,,,,,,,,5,3.659999847,5,0.163999796,1,0,1200,257,1,1199,cockpit,11124,2019-10-21_21h29.45.501,SurveyExpMetaMem,3.2.3,Win32,60
,,,,,,,,,,,,,,,,,,,,5,0.715999842,5,0.183999777,1,0,1200,776,1,1199,doll,11124,2019-10-21_21h29.45.501,SurveyExpMetaMem,3.2.3,Win32,60
,,,,,,,,,,,,,,,,,,,,9,1.27699995,9,0.990999937,1,0,1200,148,1,1199,victory,11124,2019-10-21_21h29.45.501,SurveyExpMetaMem,3.2.3,Win32,60
,,,,,,,,,,,,,,,,,,,,5,1.128000021,5,0.638000011,1,0,1200,414,1,1199,pity,11124,2019-10-21_21h29.45.501,SurveyExpMetaMem,3.2.3,Win32,60
,,,,,,,,,,,,,,,,,,,,5,1.519999981,5,0.505999804,1,0,1200,692,1,1199,medicine,11124,2019-10-21_21h29.45.501,SurveyExpMetaMem,3.2.3,Win32,60
,,,,,,,,,,,,,,,,,,,,9,1.536999941,8,2.371999979,1,0,1200,0,1,1199,dragon,11124,2019-10-21_21h29.45.501,SurveyExpMetaMem,3.2.3,Win32,60
,,,,,,,,,,,,,,,,,,,,5,1.15199995,5,0.742000103,1,0,1200,701,1,1199,telephone,11124,2019-10-21_21h29.45.501,SurveyExpMetaMem,3.2.3,Win32,60
,,,,,,,,,,,,,,,,,,,,5,1.791000128,5,0.246000051,1,0,1200,689,1,1199,land,11124,2019-10-21_21h29.45.501,SurveyExpMetaMem,3.2.3,Win32,60
,,,,,,,,,,,,,,,,,,,,5,0.596999884,5,0.214999914,1,0,1200,576,1,1199,policy,11124,2019-10-21_21h29.45.501,SurveyExpMetaMem,3.2.3,Win32,60
,,,,,,,,,,,,,,,,,,,,5,0.895999908,5,0.223999977,1,0,1200,912,1,1199,rabies,11124,2019-10-21_21h29.45.501,SurveyExpMetaMem,3.2.3,Win32,60
,,,,,,,,,,,,,,,,,,,,5,2.125,5,0.217999935,1,0,1200,758,1,1199,camera,11124,2019-10-21_21h29.45.501,SurveyExpMetaMem,3.2.3,Win32,60
,,,,,,,,,,,,,,,,,,,,1,1.902999878,1,0.160999775,1,0,1200,975,1,1199,insecure,11124,2019-10-21_21h29.45.501,SurveyExpMetaMem,3.2.3,Win32,60
,,,,,,,,,,,,,,,,,,,,8,1.808999777,9,1.052999973,1,0,1200,281,1,1199,summer,11124,2019-10-21_21h29.45.501,SurveyExpMetaMem,3.2.3,Win32,60
,,,,,,,,,,,,,,,,,,,,4,2.102999926,1,0.586999893,1,0,1200,495,1,1199,dust,11124,2019-10-21_21h29.45.501,SurveyExpMetaMem,3.2.3,Win32,60
,,,,,,,,,,,,,,,,,,,,9,3.351000071,1,0.329999924,1,0,1200,1028,1,1199,terror,11124,2019-10-21_21h29.45.501,SurveyExpMetaMem,3.2.3,Win32,60
,,,,,,,,,,,,,,,,,,,,1,2.789999962,9,0.618000031,1,0,1200,894,1,1199,sunset,11124,2019-10-21_21h29.45.501,SurveyExpMetaMem,3.2.3,Win32,60
,,,,,,,,,,,,,,,,,,,,1,1.477999926,9,0.501999855,1,0,1200,36,1,1199,puppy,11124,2019-10-21_21h29.45.501,SurveyExpMetaMem,3.2.3,Win32,60
,,,,,,,,,,,,,,,,,,,,5,2.885999918,5,0.309000015,1,0,1200,655,1,1199,name,11124,2019-10-21_21h29.45.501,SurveyExpMetaMem,3.2.3,Win32,60
,,,,,,,,,,,,,,,,,,,,5,0.780999899,5,0.191999912,1,0,1200,332,1,1199,sewage,11124,2019-10-21_21h29.45.501,SurveyExpMetaMem,3.2.3,Win32,60
,,,,,,,,,,,,,,,,,,,,4,3.118000031,1,1.002000093,1,0,1200,325,1,1199,disability,11124,2019-10-21_21h29.45.501,SurveyExpMetaMem,3.2.3,Win32,60
,,,,,,,,,,,,,,,,,,,,1,1.85199976,1,0.201999903,1,0,1200,969,1,1199,whore,11124,2019-10-21_21h29.45.501,SurveyExpMetaMem,3.2.3,Win32,60
,,,,,,,,,,,,,,,,,,,,5,2.900999784,5,0.159999847,1,0,1200,587,1,1199,dissolve,11124,2019-10-21_21h29.45.501,SurveyExpMetaMem,3.2.3,Win32,60
,,,,,,,,,,,,,,,,,,,,5,0.944999933,5,0.154999971,1,0,1200,602,1,1199,vegetable,11124,2019-10-21_21h29.45.501,SurveyExpMetaMem,3.2.3,Win32,60
,,,,,,,,,,,,,,,,,,,,1,1.839999914,9,0.376999855,1,0,1200,852,1,1199,caring,11124,2019-10-21_21h29.45.501,SurveyExpMetaMem,3.2.3,Win32,60
,,,,,,,,,,,,,,,,,,,,5,1.367999792,5,0.170000076,1,0,1200,194,1,1199,celebration,11124,2019-10-21_21h29.45.501,SurveyExpMetaMem,3.2.3,Win32,60
,,,,,,,,,,,,,,,,,,,,1,4.052000046,8,1.495000124,1,0,1200,182,1,1199,genius,11124,2019-10-21_21h29.45.501,SurveyExpMetaMem,3.2.3,Win32,60
,,,,,,,,,,,,,,,,,,,,5,1.274999857,5,0.208999872,1,0,1200,594,1,1199,moss,11124,2019-10-21_21h29.45.501,SurveyExpMetaMem,3.2.3,Win32,60
,,,,,,,,,,,,,,,,,,,,5,0.752999783,5,0.194999933,1,0,1200,767,1,1199,civil,11124,2019-10-21_21h29.45.501,SurveyExpMetaMem,3.2.3,Win32,60
,,,,,,,,,,,,,,,,,,,,1,2.559999943,4,1.538999796,1,0,1200,57,1,1199,important,11124,2019-10-21_21h29.45.501,SurveyExpMetaMem,3.2.3,Win32,60
,,,,,,,,,,,,,,,,,,,,5,1.184000015,5,0.453999996,1,0,1200,6,1,1199,chest,11124,2019-10-21_21h29.45.501,SurveyExpMetaMem,3.2.3,Win32,60
,,,,,,,,,,,,,,,,,,,,5,0.929999828,5,0.292999983,1,0,1200,438,1,1199,dull,11124,2019-10-21_21h29.45.501,SurveyExpMetaMem,3.2.3,Win32,60
,,,,,,,,,,,,,,,,,,,,5,1.203999996,5,0.189999819,1,0,1200,598,1,1199,feet,11124,2019-10-21_21h29.45.501,SurveyExpMetaMem,3.2.3,Win32,60
,,,,,,,,,,,,,,,,,,,,1,1.520999908,1,0.325999975,1,0,1200,934,1,1199,sob,11124,2019-10-21_21h29.45.501,SurveyExpMetaMem,3.2.3,Win32,60
,,,,,,,,,,,,,,,,,,,,5,1.993999958,5,0.239999771,1,0,1200,1122,1,1199,gossip,11124,2019-10-21_21h29.45.501,SurveyExpMetaMem,3.2.3,Win32,60
,,,,,,,,,,,,,,,,,,,,6,2.174999952,8,0.889999866,1,0,1200,80,1,1199,wonderful,11124,2019-10-21_21h29.45.501,SurveyExpMetaMem,3.2.3,Win32,60
,,,,,,,,,,,,,,,,,,,,5,1.648000002,5,0.351999998,1,0,1200,1155,1,1199,tangle,11124,2019-10-21_21h29.45.501,SurveyExpMetaMem,3.2.3,Win32,60
,,,,,,,,,,,,,,,,,,,,9,1.665999889,9,0.661999941,1,0,1200,146,1,1199,congratulations,11124,2019-10-21_21h29.45.501,SurveyExpMetaMem,3.2.3,Win32,60
,,,,,,,,,,,,,,,,,,,,5,0.767999887,5,0.357999802,1,0,1200,540,1,1199,derelict,11124,2019-10-21_21h29.45.501,SurveyExpMetaMem,3.2.3,Win32,60
,,,,,,,,,,,,,,,,,,,,3,3.303999901,3,1.707999945,1,0,1200,501,1,1199,dustpan,11124,2019-10-21_21h29.45.501,SurveyExpMetaMem,3.2.3,Win32,60
,,,,,,,,,,,,,,,,,,,,9,1.721999884,9,0.446999788,1,0,1200,256,1,1199,galaxy,11124,2019-10-21_21h29.45.501,SurveyExpMetaMem,3.2.3,Win32,60
,,,,,,,,,,,,,,,,,,,,5,1.585000038,5,0.21999979,1,0,1200,7,1,1199,duet,11124,2019-10-21_21h29.45.501,SurveyExpMetaMem,3.2.3,Win32,60
,,,,,,,,,,,,,,,,,,,,1,2.720999956,1,0.227999926,1,0,1200,957,1,1199,debt,11124,2019-10-21_21h29.45.501,SurveyExpMetaMem,3.2.3,Win32,60
,,,,,,,,,,,,,,,,,,,,5,2.213999987,5,0.174999714,1,0,1200,604,1,1199,lamp,11124,2019-10-21_21h29.45.501,SurveyExpMetaMem,3.2.3,Win32,60
,,,,,,,,,,,,,,,,,,,,1,3.904999971,1,0.556999922,1,0,1200,405,1,1199,fatigued,11124,2019-10-21_21h29.45.501,SurveyExpMetaMem,3.2.3,Win32,60
,,,,,,,,,,,,,,,,,,,,5,1.103999853,5,0.160999775,1,0,1200,697,1,1199,clarinet,11124,2019-10-21_21h29.45.501,SurveyExpMetaMem,3.2.3,Win32,60
,,,,,,,,,,,,,,,,,,,,5,0.701999903,5,0.173000097,1,0,1200,563,1,1199,stupor,11124,2019-10-21_21h29.45.501,SurveyExpMetaMem,3.2.3,Win32,60
,,,,,,,,,,,,,,,,,,,,5,0.665999889,5,0.194999933,1,0,1200,361,1,1199,glum,11124,2019-10-21_21h29.45.501,SurveyExpMetaMem,3.2.3,Win32,60
,,,,,,,,,,,,,,,,,,,,9,1.739000082,9,0.98300004,1,0,1200,113,1,1199,bridesmaid,11124,2019-10-21_21h29.45.501,SurveyExpMetaMem,3.2.3,Win32,60
,,,,,,,,,,,,,,,,,,,,9,1.955999851,1,0.223999977,1,0,1200,1103,1,1199,mob,11124,2019-10-21_21h29.45.501,SurveyExpMetaMem,3.2.3,Win32,60
,,,,,,,,,,,,,,,,,,,,5,1.02699995,5,0.14199996,1,0,1200,393,1,1199,droop,11124,2019-10-21_21h29.45.501,SurveyExpMetaMem,3.2.3,Win32,60
,,,,,,,,,,,,,,,,,,,,9,1.993999958,1,0.345999956,1,0,1200,901,1,1199,rape,11124,2019-10-21_21h29.45.501,SurveyExpMetaMem,3.2.3,Win32,60
,,,,,,,,,,,,,,,,,,,,5,1.646999836,5,0.194000006,1,0,1200,547,1,1199,cellar,11124,2019-10-21_21h29.45.501,SurveyExpMetaMem,3.2.3,Win32,60
,,,,,,,,,,,,,,,,,,,,5,0.875999928,5,0.178999901,1,0,1200,1177,1,1199,pang,11124,2019-10-21_21h29.45.501,SurveyExpMetaMem,3.2.3,Win32,60
,,,,,,,,,,,,,,,,,,,,9,1.644999981,9,0.797999859,1,0,1200,610,1,1199,miniature,11124,2019-10-21_21h29.45.501,SurveyExpMetaMem,3.2.3,Win32,60
,,,,,,,,,,,,,,,,,,,,9,3.039999962,1,0.211999893,1,0,1200,1056,1,1199,crime,11124,2019-10-21_21h29.45.501,SurveyExpMetaMem,3.2.3,Win32,60
,,,,,,,,,,,,,,,,,,,,5,1.350999832,5,0.321999788,1,0,1200,191,1,1199,compassion,11124,2019-10-21_21h29.45.501,SurveyExpMetaMem,3.2.3,Win32,60
,,,,,,,,,,,,,,,,,,,,5,1.359999895,5,0.177999973,1,0,1200,509,1,1199,ash,11124,2019-10-21_21h29.45.501,SurveyExpMetaMem,3.2.3,Win32,60
,,,,,,,,,,,,,,,,,,,,9,1.357000113,9,2.172999859,1,0,1200,4,1,1199,night,11124,2019-10-21_21h29.45.501,SurveyExpMetaMem,3.2.3,Win32,60
,,,,,,,,,,,,,,,,,,,,5,2.790999889,5,0.440999985,1,0,1200,1017,1,1199,aggravated,11124,2019-10-21_21h29.45.501,SurveyExpMetaMem,3.2.3,Win32,60
,,,,,,,,,,,,,,,,,,,,5,1.511999846,5,0.209000111,1,0,1200,974,1,1199,roach,11124,2019-10-21_21h29.45.501,SurveyExpMetaMem,3.2.3,Win32,60
,,,,,,,,,,,,,,,,,,,,5,0.90899992,5,0.215999842,1,0,1200,426,1,1199,con,11124,2019-10-21_21h29.45.501,SurveyExpMetaMem,3.2.3,Win32,60
,,,,,,,,,,,,,,,,,,,,7,3.757999897,7,0.92599988,1,0,1200,833,1,1199,nice,11124,2019-10-21_21h29.45.501,SurveyExpMetaMem,3.2.3,Win32,60
,,,,,,,,,,,,,,,,,,,,6,1.845999956,6,0.210000038,1,0,1200,731,1,1199,decency,11124,2019-10-21_21h29.45.501,SurveyExpMetaMem,3.2.3,Win32,60
,,,,,,,,,,,,,,,,,,,,5,2.006000042,5,0.565999985,1,0,1200,51,1,1199,body,11124,2019-10-21_21h29.45.501,SurveyExpMetaMem,3.2.3,Win32,60
,,,,,,,,,,,,,,,,,,,,5,1.619999886,2,0.427999973,1,0,1200,1059,1,1199,harsh,11124,2019-10-21_21h29.45.501,SurveyExpMetaMem,3.2.3,Win32,60
,,,,,,,,,,,,,,,,,,,,1,1.961999893,1,0.211999893,1,0,1200,481,1,1199,melancholy,11124,2019-10-21_21h29.45.501,SurveyExpMetaMem,3.2.3,Win32,60
,,,,,,,,,,,,,,,,,,,,6,1.816999912,5,0.268999815,1,0,1200,671,1,1199,windmill,11124,2019-10-21_21h29.45.501,SurveyExpMetaMem,3.2.3,Win32,60
,,,,,,,,,,,,,,,,,,,,7,2.517999887,5,1.926999807,1,0,1200,1150,1,1199,forceful,11124,2019-10-21_21h29.45.501,SurveyExpMetaMem,3.2.3,Win32,60
,,,,,,,,,,,,,,,,,,,,5,2.701999903,5,0.205999851,1,0,1200,17,1,1199,outgoing,11124,2019-10-21_21h29.45.501,SurveyExpMetaMem,3.2.3,Win32,60
,,,,,,,,,,,,,,,,,,,,5,1.801999807,5,0.20299983,1,0,1200,620,1,1199,spray,11124,2019-10-21_21h29.45.501,SurveyExpMetaMem,3.2.3,Win32,60
,,,,,,,,,,,,,,,,,,,,5,0.755999804,5,0.234999895,1,0,1200,489,1,1199,timid,11124,2019-10-21_21h29.45.501,SurveyExpMetaMem,3.2.3,Win32,60
,,,,,,,,,,,,,,,,,,,,9,1.424000025,9,1.302999973,1,0,1200,143,1,1199,weekend,11124,2019-10-21_21h29.45.501,SurveyExpMetaMem,3.2.3,Win32,60
,,,,,,,,,,,,,,,,,,,,9,1.585999727,9,0.678999901,1,0,1200,180,1,1199,embrace,11124,2019-10-21_21h29.45.501,SurveyExpMetaMem,3.2.3,Win32,60
,,,,,,,,,,,,,,,,,,,,1,2.417999744,9,0.661999941,1,0,1200,841,1,1199,bathtub,11124,2019-10-21_21h29.45.501,SurveyExpMetaMem,3.2.3,Win32,60
,,,,,,,,,,,,,,,,,,,,4,2.934999943,5,0.227999926,1,0,1200,996,1,1199,sting,11124,2019-10-21_21h29.45.501,SurveyExpMetaMem,3.2.3,Win32,60
,,,,,,,,,,,,,,,,,,,,9,2.128999949,9,0.326999903,1,0,1200,274,1,1199,song,11124,2019-10-21_21h29.45.501,SurveyExpMetaMem,3.2.3,Win32,60
,,,,,,,,,,,,,,,,,,,,9,2.307999849,1,3.68599987,1,0,1200,914,1,1199,fail,11124,2019-10-21_21h29.45.501,SurveyExpMetaMem,3.2.3,Win32,60
,,,,,,,,,,,,,,,,,,,,5,1.322000027,5,0.478999853,1,0,1200,214,1,1199,revive,11124,2019-10-21_21h29.45.501,SurveyExpMetaMem,3.2.3,Win32,60
,,,,,,,,,,,,,,,,,,,,5,0.875,5,0.221999884,1,0,1200,627,1,1199,introductory,11124,2019-10-21_21h29.45.501,SurveyExpMetaMem,3.2.3,Win32,60
,,,,,,,,,,,,,,,,,,,,5,0.715999842,5,0.188999891,1,0,1200,391,1,1199,detach,11124,2019-10-21_21h29.45.501,SurveyExpMetaMem,3.2.3,Win32,60
,,,,,,,,,,,,,,,,,,,,5,0.855999947,5,0.190999985,1,0,1200,730,1,1199,slogan,11124,2019-10-21_21h29.45.501,SurveyExpMetaMem,3.2.3,Win32,60
,,,,,,,,,,,,,,,,,,,,5,0.902999878,5,0.207999945,1,0,1200,684,1,1199,send,11124,2019-10-21_21h29.45.501,SurveyExpMetaMem,3.2.3,Win32,60
,,,,,,,,,,,,,,,,,,,,5,1.361999989,5,0.255999804,1,0,1200,719,1,1199,western,11124,2019-10-21_21h29.45.501,SurveyExpMetaMem,3.2.3,Win32,60
,,,,,,,,,,,,,,,,,,,,5,1.511999846,5,0.21600008,1,0,1200,815,1,1199,apple,11124,2019-10-21_21h29.45.501,SurveyExpMetaMem,3.2.3,Win32,60
,,,,,,,,,,,,,,,,,,,,5,0.975999832,5,0.212999821,1,0,1200,712,1,1199,harvest,11124,2019-10-21_21h29.45.501,SurveyExpMetaMem,3.2.3,Win32,60
,,,,,,,,,,,,,,,,,,,,9,1.63499999,9,1.122999907,1,0,1200,45,1,1199,sex,11124,2019-10-21_21h29.45.501,SurveyExpMetaMem,3.2.3,Win32,60
,,,,,,,,,,,,,,,,,,,,5,2.705999851,5,0.22300005,1,0,1200,612,1,1199,propeller,11124,2019-10-21_21h29.45.501,SurveyExpMetaMem,3.2.3,Win32,60
,,,,,,,,,,,,,,,,,,,,2,2.742999792,9,2.154000044,1,0,1200,680,1,1199,candle,11124,2019-10-21_21h29.45.501,SurveyExpMetaMem,3.2.3,Win32,60
,,,,,,,,,,,,,,,,,,,,9,3.578000069,9,0.578999758,1,0,1200,236,1,1199,amaze,11124,2019-10-21_21h29.45.501,SurveyExpMetaMem,3.2.3,Win32,60
,,,,,,,,,,,,,,,,,,,,1,3.559999943,1,0.967999935,1,0,1200,1001,1,1199,rude,11124,2019-10-21_21h29.45.501,SurveyExpMetaMem,3.2.3,Win32,60
,,,,,,,,,,,,,,,,,,,,5,1.167999744,5,0.424999952,1,0,1200,606,1,1199,easel,11124,2019-10-21_21h29.45.501,SurveyExpMetaMem,3.2.3,Win32,60
,,,,,,,,,,,,,,,,,,,,5,0.64199996,5,0.189999819,1,0,1200,461,1,1199,ail,11124,2019-10-21_21h29.45.501,SurveyExpMetaMem,3.2.3,Win32,60
,,,,,,,,,,,,,,,,,,,,5,0.745999813,5,0.182999849,1,0,1200,94,1,1199,engaged,11124,2019-10-21_21h29.45.501,SurveyExpMetaMem,3.2.3,Win32,60
,,,,,,,,,,,,,,,,,,,,5,3.421999931,5,0.211999893,1,0,1200,430,1,1199,cancel,11124,2019-10-21_21h29.45.501,SurveyExpMetaMem,3.2.3,Win32,60
,,,,,,,,,,,,,,,,,,,,5,1.220999956,5,0.207000017,1,0,1200,1057,1,1199,deceit,11124,2019-10-21_21h29.45.501,SurveyExpMetaMem,3.2.3,Win32,60
,,,,,,,,,,,,,,,,,,,,1,2.957000017,1,0.842000008,1,0,1200,1112,1,1199,pressure,11124,2019-10-21_21h29.45.501,SurveyExpMetaMem,3.2.3,Win32,60
,,,,,,,,,,,,,,,,,,,,5,0.994999886,5,0.362999916,1,0,1200,531,1,1199,omit,11124,2019-10-21_21h29.45.501,SurveyExpMetaMem,3.2.3,Win32,60
,,,,,,,,,,,,,,,,,,,,9,1.407999992,9,0.782999992,1,0,1200,244,1,1199,sexy,11124,2019-10-21_21h29.45.501,SurveyExpMetaMem,3.2.3,Win32,60
,,,,,,,,,,,,,,,,,,,,5,0.795999765,5,0.190999985,1,0,1200,590,1,1199,stool,11124,2019-10-21_21h29.45.501,SurveyExpMetaMem,3.2.3,Win32,60
,,,,,,,,,,,,,,,,,,,,9,2.24000001,1,0.775000095,1,0,1200,1156,1,1199,weapon,11124,2019-10-21_21h29.45.501,SurveyExpMetaMem,3.2.3,Win32,60
,,,,,,,,,,,,,,,,,,,,9,1.612999916,9,0.273999929,1,0,1200,166,1,1199,unite,11124,2019-10-21_21h29.45.501,SurveyExpMetaMem,3.2.3,Win32,60
,,,,,,,,,,,,,,,,,,,,5,2.873000145,5,0.145999908,1,0,1200,24,1,1199,model,11124,2019-10-21_21h29.45.501,SurveyExpMetaMem,3.2.3,Win32,60
,,,,,,,,,,,,,,,,,,,,5,4.855999947,5,0.207999945,1,0,1200,720,1,1199,stable,11124,2019-10-21_21h29.45.501,SurveyExpMetaMem,3.2.3,Win32,60
,,,,,,,,,,,,,,,,,,,,1,1.52699995,9,2.460999966,1,0,1200,897,1,1199,peaceful,11124,2019-10-21_21h29.45.501,SurveyExpMetaMem,3.2.3,Win32,60
,,,,,,,,,,,,,,,,,,,,5,1.470999956,5,2.007999897,1,0,1200,206,1,1199,comet,11124,2019-10-21_21h29.45.501,SurveyExpMetaMem,3.2.3,Win32,60
,,,,,,,,,,,,,,,,,,,,9,1.846999884,5,0.76699996,1,0,1200,615,1,1199,lad,11124,2019-10-21_21h29.45.501,SurveyExpMetaMem,3.2.3,Win32,60
,,,,,,,,,,,,,,,,,,,,9,1.57799983,9,1.078000069,1,0,1200,227,1,1199,musician,11124,2019-10-21_21h29.45.501,SurveyExpMetaMem,3.2.3,Win32,60
,,,,,,,,,,,,,,,,,,,,9,2.325999975,1,0.343999863,1,0,1200,951,1,1199,castrate,11124,2019-10-21_21h29.45.501,SurveyExpMetaMem,3.2.3,Win32,60
,,,,,,,,,,,,,,,,,,,,9,1.846999884,9,0.299999952,1,0,1200,230,1,1199,eager,11124,2019-10-21_21h29.45.501,SurveyExpMetaMem,3.2.3,Win32,60
,,,,,,,,,,,,,,,,,,,,1,1.782999992,9,0.308000088,1,0,1200,884,1,1199,grateful,11124,2019-10-21_21h29.45.501,SurveyExpMetaMem,3.2.3,Win32,60
,,,,,,,,,,,,,,,,,,,,5,2.681999922,5,0.173999786,1,0,1200,804,1,1199,peach,11124,2019-10-21_21h29.45.501,SurveyExpMetaMem,3.2.3,Win32,60
,,,,,,,,,,,,,,,,,,,,5,0.868999958,5,0.155999899,1,0,1200,652,1,1199,tend,11124,2019-10-21_21h29.45.501,SurveyExpMetaMem,3.2.3,Win32,60
,,,,,,,,,,,,,,,,,,,,5,0.76699996,5,0.18599987,1,0,1200,511,1,1199,slouch,11124,2019-10-21_21h29.45.501,SurveyExpMetaMem,3.2.3,Win32,60
,,,,,,,,,,,,,,,,,,,,1,3.835999966,1,0.776999712,1,0,1200,1070,1,1199,bleed,11124,2019-10-21_21h29.45.501,SurveyExpMetaMem,3.2.3,Win32,60
,,,,,,,,,,,,,,,,,,,,5,3.490999937,5,0.20299983,1,0,1200,660,1,1199,rock,11124,2019-10-21_21h29.45.501,SurveyExpMetaMem,3.2.3,Win32,60
,,,,,,,,,,,,,,,,,,,,9,2.110999823,9,0.596999884,1,0,1200,116,1,1199,carnival,11124,2019-10-21_21h29.45.501,SurveyExpMetaMem,3.2.3,Win32,60
,,,,,,,,,,,,,,,,,,,,4,2.279999733,1,0.411999941,1,0,1200,1110,1,1199,bastard,11124,2019-10-21_21h29.45.501,SurveyExpMetaMem,3.2.3,Win32,60
,,,,,,,,,,,,,,,,,,,,9,2.421000004,1,0.319000006,1,0,1200,1039,1,1199,stalk,11124,2019-10-21_21h29.45.501,SurveyExpMetaMem,3.2.3,Win32,60
,,,,,,,,,,,,,,,,,,,,5,2.744999886,5,0.229999781,1,0,1200,279,1,1199,bargain,11124,2019-10-21_21h29.45.501,SurveyExpMetaMem,3.2.3,Win32,60
,,,,,,,,,,,,,,,,,,,,9,1.169000149,9,0.93599987,1,0,1200,98,1,1199,affection,11124,2019-10-21_21h29.45.501,SurveyExpMetaMem,3.2.3,Win32,60
,,,,,,,,,,,,,,,,,,,,9,2.786000013,5,1.652999878,1,0,1200,267,1,1199,bold,11124,2019-10-21_21h29.45.501,SurveyExpMetaMem,3.2.3,Win32,60
,,,,,,,,,,,,,,,,,,,,9,1.392999887,5,0.984999895,1,0,1200,117,1,1199,powerful,11124,2019-10-21_21h29.45.501,SurveyExpMetaMem,3.2.3,Win32,60
,,,,,,,,,,,,,,,,,,,,9,1.924000025,5,0.441999912,1,0,1200,988,1,1199,deserter,11124,2019-10-21_21h29.45.501,SurveyExpMetaMem,3.2.3,Win32,60
,,,,,,,,,,,,,,,,,,,,9,1.808999777,1,1.322999716,1,0,1200,1139,1,1199,scare,11124,2019-10-21_21h29.45.501,SurveyExpMetaMem,3.2.3,Win32,60
,,,,,,,,,,,,,,,,,,,,5,1.237999916,5,0.15899992,1,0,1200,1144,1,1199,yelp,11124,2019-10-21_21h29.45.501,SurveyExpMetaMem,3.2.3,Win32,60
,,,,,,,,,,,,,,,,,,,,5,0.721999884,5,0.161000013,1,0,1200,1068,1,1199,riot,11124,2019-10-21_21h29.45.501,SurveyExpMetaMem,3.2.3,Win32,60
,,,,,,,,,,,,,,,,,,,,9,1.837999821,9,0.430999994,1,0,1200,126,1,1199,rich,11124,2019-10-21_21h29.45.501,SurveyExpMetaMem,3.2.3,Win32,60
,,,,,,,,,,,,,,,,,,,,5,1.78399992,5,0.16899991,1,0,1200,618,1,1199,ceiling,11124,2019-10-21_21h29.45.501,SurveyExpMetaMem,3.2.3,Win32,60
,,,,,,,,,,,,,,,,,,,,5,0.752000093,5,0.167999983,1,0,1200,994,1,1199,repulsed,11124,2019-10-21_21h29.45.501,SurveyExpMetaMem,3.2.3,Win32,60
,,,,,,,,,,,,,,,,,,,,5,1.222999811,5,0.176999807,1,0,1200,512,1,1199,insect,11124,2019-10-21_21h29.45.501,SurveyExpMetaMem,3.2.3,Win32,60
,,,,,,,,,,,,,,,,,,,,5,2.382999897,5,0.205999851,1,0,1200,1148,1,1199,suspicious,11124,2019-10-21_21h29.45.501,SurveyExpMetaMem,3.2.3,Win32,60
,,,,,,,,,,,,,,,,,,,,5,3.372999907,5,0.164999962,1,0,1200,668,1,1199,unit,11124,2019-10-21_21h29.45.501,SurveyExpMetaMem,3.2.3,Win32,60
,,,,,,,,,,,,,,,,,,,,1,1.671999931,9,1.524999857,1,0,1200,882,1,1199,gentle,11124,2019-10-21_21h29.45.501,SurveyExpMetaMem,3.2.3,Win32,60
,,,,,,,,,,,,,,,,,,,,9,1.535000086,5,0.986999989,1,0,1200,161,1,1199,limousine,11124,2019-10-21_21h29.45.501,SurveyExpMetaMem,3.2.3,Win32,60
,,,,,,,,,,,,,,,,,,,,5,2.190999985,5,0.640999794,1,0,1200,1166,1,1199,compulsive,11124,2019-10-21_21h29.45.501,SurveyExpMetaMem,3.2.3,Win32,60
,,,,,,,,,,,,,,,,,,,,5,1.18900013,5,0.186999798,1,0,1200,546,1,1199,solemn,11124,2019-10-21_21h29.45.501,SurveyExpMetaMem,3.2.3,Win32,60
,,,,,,,,,,,,,,,,,,,,1,1.951999903,1,0.671999931,1,0,1200,396,1,1199,unpopular,11124,2019-10-21_21h29.45.501,SurveyExpMetaMem,3.2.3,Win32,60
,,,,,,,,,,,,,,,,,,,,3,3.554999828,1,1.069000006,1,0,1200,516,1,1199,smug,11124,2019-10-21_21h29.45.501,SurveyExpMetaMem,3.2.3,Win32,60
,,,,,,,,,,,,,,,,,,,,5,1.750999928,5,0.394999981,1,0,1200,784,1,1199,logical,11124,2019-10-21_21h29.45.501,SurveyExpMetaMem,3.2.3,Win32,60
,,,,,,,,,,,,,,,,,,,,5,0.820999861,5,0.360999823,1,0,1200,486,1,1199,fool,11124,2019-10-21_21h29.45.501,SurveyExpMetaMem,3.2.3,Win32,60
,,,,,,,,,,,,,,,,,,,,5,0.710000038,5,0.184999943,1,0,1200,14,1,1199,attain,11124,2019-10-21_21h29.45.501,SurveyExpMetaMem,3.2.3,Win32,60
,,,,,,,,,,,,,,,,,,,,9,1.056999922,9,0.832000017,1,0,1200,290,1,1199,enthusiasm,11124,2019-10-21_21h29.45.501,SurveyExpMetaMem,3.2.3,Win32,60
,,,,,,,,,,,,,,,,,,,,5,0.650999784,5,0.213999748,1,0,1200,1010,1,1199,arson,11124,2019-10-21_21h29.45.501,SurveyExpMetaMem,3.2.3,Win32,60
,,,,,,,,,,,,,,,,,,,,9,1.152999878,5,1.721999884,1,0,1200,1172,1,1199,overwhelmed,11124,2019-10-21_21h29.45.501,SurveyExpMetaMem,3.2.3,Win32,60
,,,,,,,,,,,,,,,,,,,,5,1.667999983,5,0.223999739,1,0,1200,550,1,1199,fart,11124,2019-10-21_21h29.45.501,SurveyExpMetaMem,3.2.3,Win32,60
,,,,,,,,,,,,,,,,,,,,9,2.237999916,1,1.150999784,1,0,1200,1186,1,1199,goddamn,11124,2019-10-21_21h29.45.501,SurveyExpMetaMem,3.2.3,Win32,60
,,,,,,,,,,,,,,,,,,,,1,2.35800004,9,0.904000044,1,0,1200,881,1,1199,protected,11124,2019-10-21_21h29.45.501,SurveyExpMetaMem,3.2.3,Win32,60
,,,,,,,,,,,,,,,,,,,,5,1.118999958,5,0.208999872,1,0,1200,18,1,1199,mail,11124,2019-10-21_21h29.45.501,SurveyExpMetaMem,3.2.3,Win32,60
,,,,,,,,,,,,,,,,,,,,9,1.91899991,9,0.927999973,1,0,1200,798,1,1199,crystal,11124,2019-10-21_21h29.45.501,SurveyExpMetaMem,3.2.3,Win32,60
,,,,,,,,,,,,,,,,,,,,5,0.618999958,5,0.221999884,1,0,1200,379,1,1199,slob,11124,2019-10-21_21h29.45.501,SurveyExpMetaMem,3.2.3,Win32,60
,,,,,,,,,,,,,,,,,,,,9,1.473999977,9,0.253999949,1,0,1200,218,1,1199,charming,11124,2019-10-21_21h29.45.501,SurveyExpMetaMem,3.2.3,Win32,60
,,,,,,,,,,,,,,,,,,,,9,1.002000093,9,0.227999926,1,0,1200,183,1,1199,congratulate,11124,2019-10-21_21h29.45.501,SurveyExpMetaMem,3.2.3,Win32,60
,,,,,,,,,,,,,,,,,,,,5,1.869999886,5,0.384000063,1,0,1200,1075,1,1199,apprehension,11124,2019-10-21_21h29.45.501,SurveyExpMetaMem,3.2.3,Win32,60
,,,,,,,,,,,,,,,,,,,,3,1.335999966,5,1.904999971,1,0,1200,597,1,1199,drool,11124,2019-10-21_21h29.45.501,SurveyExpMetaMem,3.2.3,Win32,60
,,,,,,,,,,,,,,,,,,,,9,1.385999918,5,1.004999876,1,0,1200,685,1,1199,makeup,11124,2019-10-21_21h29.45.501,SurveyExpMetaMem,3.2.3,Win32,60
,,,,,,,,,,,,,,,,,,,,9,1.391000032,9,3.360000134,1,0,1200,475,1,1199,nameless,11124,2019-10-21_21h29.45.501,SurveyExpMetaMem,3.2.3,Win32,60
,,,,,,,,,,,,,,,,,,,,5,1.803999901,5,0.267999887,1,0,1200,588,1,1199,bandage,11124,2019-10-21_21h29.45.501,SurveyExpMetaMem,3.2.3,Win32,60
,,,,,,,,,,,,,,,,,,,,5,1.120999813,5,0.246000051,1,0,1200,647,1,1199,accord,11124,2019-10-21_21h29.45.501,SurveyExpMetaMem,3.2.3,Win32,60
,,,,,,,,,,,,,,,,,,,,5,0.606999874,5,0.227999926,1,0,1200,498,1,1199,alimony,11124,2019-10-21_21h29.45.501,SurveyExpMetaMem,3.2.3,Win32,60
,,,,,,,,,,,,,,,,,,,,5,1.051000118,5,0.205999851,1,0,1200,707,1,1199,adapt,11124,2019-10-21_21h29.45.501,SurveyExpMetaMem,3.2.3,Win32,60
,,,,,,,,,,,,,,,,,,,,9,1.40899992,5,3.040999889,1,0,1200,29,1,1199,life,11124,2019-10-21_21h29.45.501,SurveyExpMetaMem,3.2.3,Win32,60
,,,,,,,,,,,,,,,,,,,,9,1.555000067,1,0.922999859,1,0,1200,1092,1,1199,rattlesnake,11124,2019-10-21_21h29.45.501,SurveyExpMetaMem,3.2.3,Win32,60
,,,,,,,,,,,,,,,,,,,,5,1.215999842,5,0.426999807,1,0,1200,350,1,1199,inadequate,11124,2019-10-21_21h29.45.501,SurveyExpMetaMem,3.2.3,Win32,60
,,,,,,,,,,,,,,,,,,,,9,1.180000067,1,0.54399991,1,0,1200,1137,1,1199,knife,11124,2019-10-21_21h29.45.501,SurveyExpMetaMem,3.2.3,Win32,60
,,,,,,,,,,,,,,,,,,,,5,1.569999933,5,0.19299984,1,0,1200,508,1,1199,haphazard,11124,2019-10-21_21h29.45.501,SurveyExpMetaMem,3.2.3,Win32,60
,,,,,,,,,,,,,,,,,,,,1,2.381000042,1,0.938999891,1,0,1200,311,1,1199,discomfort,11124,2019-10-21_21h29.45.501,SurveyExpMetaMem,3.2.3,Win32,60
,,,,,,,,,,,,,,,,,,,,9,1.430999994,1,0.654999971,1,0,1200,1157,1,1199,slayer,11124,2019-10-21_21h29.45.501,SurveyExpMetaMem,3.2.3,Win32,60
,,,,,,,,,,,,,,,,,,,,1,1.734999895,9,0.905999899,1,0,1200,895,1,1199,peace,11124,2019-10-21_21h29.45.501,SurveyExpMetaMem,3.2.3,Win32,60
,,,,,,,,,,,,,,,,,,,,9,1.333999872,9,0.90199995,1,0,1200,124,1,1199,honeymoon,11124,2019-10-21_21h29.45.501,SurveyExpMetaMem,3.2.3,Win32,60
,,,,,,,,,,,,,,,,,,,,5,1.468999863,5,0.355999947,1,0,1200,800,1,1199,authentic,11124,2019-10-21_21h29.45.501,SurveyExpMetaMem,3.2.3,Win32,60
,,,,,,,,,,,,,,,,,,,,5,0.986000061,5,0.245999813,1,0,1200,575,1,1199,paragraph,11124,2019-10-21_21h29.45.501,SurveyExpMetaMem,3.2.3,Win32,60
,,,,,,,,,,,,,,,,,,,,1,2.078999758,1,0.667000055,1,0,1200,306,1,1199,gloom,11124,2019-10-21_21h29.45.501,SurveyExpMetaMem,3.2.3,Win32,60
,,,,,,,,,,,,,,,,,,,,5,2.772000074,5,0.220999956,1,0,1200,704,1,1199,flute,11124,2019-10-21_21h29.45.501,SurveyExpMetaMem,3.2.3,Win32,60
,,,,,,,,,,,,,,,,,,,,5,1.49000001,5,0.22300005,1,0,1200,342,1,1199,alienation,11124,2019-10-21_21h29.45.501,SurveyExpMetaMem,3.2.3,Win32,60
,,,,,,,,,,,,,,,,,,,,1,1.34499979,1,0.691999912,1,0,1200,463,1,1199,limp,11124,2019-10-21_21h29.45.501,SurveyExpMetaMem,3.2.3,Win32,60
,,,,,,,,,,,,,,,,,,,,1,1.473999739,1,0.274999857,1,0,1200,369,1,1199,blind,11124,2019-10-21_21h29.45.501,SurveyExpMetaMem,3.2.3,Win32,60
,,,,,,,,,,,,,,,,,,,,1,1.295000076,1,0.26699996,1,0,1200,477,1,1199,separate,11124,2019-10-21_21h29.45.501,SurveyExpMetaMem,3.2.3,Win32,60
,,,,,,,,,,,,,,,,,,,,5,2.746000051,5,0.205999851,1,0,1200,106,1,1199,voyage,11124,2019-10-21_21h29.45.501,SurveyExpMetaMem,3.2.3,Win32,60
,,,,,,,,,,,,,,,,,,,,5,0.847999811,5,0.196000099,1,0,1200,541,1,1199,apathy,11124,2019-10-21_21h29.45.501,SurveyExpMetaMem,3.2.3,Win32,60
,,,,,,,,,,,,,,,,,,,,5,0.934999943,5,0.221999884,1,0,1200,787,1,1199,dawn,11124,2019-10-21_21h29.45.501,SurveyExpMetaMem,3.2.3,Win32,60
,,,,,,,,,,,,,,,,,,,,9,1.953999758,9,0.356999874,1,0,1200,287,1,1199,optimistic,11124,2019-10-21_21h29.45.501,SurveyExpMetaMem,3.2.3,Win32,60
,,,,,,,,,,,,,,,,,,,,5,1.950999975,5,0.305999994,1,0,1200,621,1,1199,chew,11124,2019-10-21_21h29.45.501,SurveyExpMetaMem,3.2.3,Win32,60
,,,,,,,,,,,,,,,,,,,,9,1.20299983,1,0.302999973,1,0,1200,1090,1,1199,destruction,11124,2019-10-21_21h29.45.501,SurveyExpMetaMem,3.2.3,Win32,60
,,,,,,,,,,,,,,,,,,,,5,1.170999765,5,0.19299984,1,0,1200,942,1,1199,aggravation,11124,2019-10-21_21h29.45.501,SurveyExpMetaMem,3.2.3,Win32,60
,,,,,,,,,,,,,,,,,,,,9,1.092999935,1,0.375999928,1,0,1200,1171,1,1199,chaos,11124,2019-10-21_21h29.45.501,SurveyExpMetaMem,3.2.3,Win32,60
,,,,,,,,,,,,,,,,,,,,1,1.656999826,1,0.25999999,1,0,1200,424,1,1199,fault,11124,2019-10-21_21h29.45.501,SurveyExpMetaMem,3.2.3,Win32,60
,,,,,,,,,,,,,,,,,,,,1,1.376999855,5,1.372999907,1,0,1200,853,1,1199,breeze,11124,2019-10-21_21h29.45.501,SurveyExpMetaMem,3.2.3,Win32,60
,,,,,,,,,,,,,,,,,,,,9,1.196999788,5,1.931999922,1,0,1200,1179,1,1199,nerves,11124,2019-10-21_21h29.45.501,SurveyExpMetaMem,3.2.3,Win32,60
,,,,,,,,,,,,,,,,,,,,5,3.894999743,5,0.520999908,1,0,1200,1019,1,1199,fraud,11124,2019-10-21_21h29.45.501,SurveyExpMetaMem,3.2.3,Win32,60
,,,,,,,,,,,,,,,,,,,,5,0.937999964,5,0.194999933,1,0,1200,880,1,1199,security,11124,2019-10-21_21h29.45.501,SurveyExpMetaMem,3.2.3,Win32,60
,,,,,,,,,,,,,,,,,,,,5,1.019999981,5,0.210000038,1,0,1200,755,1,1199,soap,11124,2019-10-21_21h29.45.501,SurveyExpMetaMem,3.2.3,Win32,60
,,,,,,,,,,,,,,,,,,,,5,0.818999767,5,0.172999859,1,0,1200,622,1,1199,revere,11124,2019-10-21_21h29.45.501,SurveyExpMetaMem,3.2.3,Win32,60
,,,,,,,,,,,,,,,,,,,,5,0.66899991,5,0.187000036,1,0,1200,412,1,1199,mucus,11124,2019-10-21_21h29.45.501,SurveyExpMetaMem,3.2.3,Win32,60
,,,,,,,,,,,,,,,,,,,,9,1.085999966,5,0.891999722,1,0,1200,216,1,1199,vigorous,11124,2019-10-21_21h29.45.501,SurveyExpMetaMem,3.2.3,Win32,60
,,,,,,,,,,,,,,,,,,,,1,2.073999882,1,1.075000048,1,0,1200,359,1,1199,bored,11124,2019-10-21_21h29.45.501,SurveyExpMetaMem,3.2.3,Win32,60
,,,,,,,,,,,,,,,,,,,,5,1.154999971,5,0.213000059,1,0,1200,873,1,1199,useful,11124,2019-10-21_21h29.45.501,SurveyExpMetaMem,3.2.3,Win32,60
,,,,,,,,,,,,,,,,,,,,1,1.91899991,5,0.671999931,1,0,1200,398,1,1199,handicapped,11124,2019-10-21_21h29.45.501,SurveyExpMetaMem,3.2.3,Win32,60
,,,,,,,,,,,,,,,,,,,,5,1.705999851,5,0.553999901,1,0,1200,487,1,1199,junk,11124,2019-10-21_21h29.45.501,SurveyExpMetaMem,3.2.3,Win32,60
,,,,,,,,,,,,,,,,,,,,5,1.691999912,5,0.246999979,1,0,1200,614,1,1199,crossword,11124,2019-10-21_21h29.45.501,SurveyExpMetaMem,3.2.3,Win32,60
,,,,,,,,,,,,,,,,,,,,9,1.285999775,9,0.881999969,1,0,1200,97,1,1199,enthusiastic,11124,2019-10-21_21h29.45.501,SurveyExpMetaMem,3.2.3,Win32,60
,,,,,,,,,,,,,,,,,,,,1,2.970000029,9,1.057999849,1,0,1200,803,1,1199,tidy,11124,2019-10-21_21h29.45.501,SurveyExpMetaMem,3.2.3,Win32,60
,,,,,,,,,,,,,,,,,,,,9,1.501999855,9,0.678999901,1,0,1200,832,1,1199,candy,11124,2019-10-21_21h29.45.501,SurveyExpMetaMem,3.2.3,Win32,60
,,,,,,,,,,,,,,,,,,,,5,1.334000111,5,0.454999924,1,0,1200,613,1,1199,cup,11124,2019-10-21_21h29.45.501,SurveyExpMetaMem,3.2.3,Win32,60
,,,,,,,,,,,,,,,,,,,,1,1.46600008,5,2.105000019,1,0,1200,664,1,1199,quiet,11124,2019-10-21_21h29.45.501,SurveyExpMetaMem,3.2.3,Win32,60
,,,,,,,,,,,,,,,,,,,,5,2.348999977,5,0.17599988,1,0,1200,855,1,1199,girl,11124,2019-10-21_21h29.45.501,SurveyExpMetaMem,3.2.3,Win32,60
,,,,,,,,,,,,,,,,,,,,9,1.944999933,9,0.565999985,1,0,1200,127,1,1199,glamorous,11124,2019-10-21_21h29.45.501,SurveyExpMetaMem,3.2.3,Win32,60
,,,,,,,,,,,,,,,,,,,,9,1.397999763,9,0.690999985,1,0,1200,16,1,1199,sing,11124,2019-10-21_21h29.45.501,SurveyExpMetaMem,3.2.3,Win32,60
,,,,,,,,,,,,,,,,,,,,1,1.455999851,9,1.305000067,1,0,1200,821,1,1199,cottage,11124,2019-10-21_21h29.45.501,SurveyExpMetaMem,3.2.3,Win32,60
,,,,,,,,,,,,,,,,,,,,9,3.483999968,9,0.610999823,1,0,1200,11,1,1199,astonished,11124,2019-10-21_21h29.45.501,SurveyExpMetaMem,3.2.3,Win32,60
,,,,,,,,,,,,,,,,,,,,1,1.065999985,1,0.575999975,1,0,1200,1071,1,1199,uncomfortable,11124,2019-10-21_21h29.45.501,SurveyExpMetaMem,3.2.3,Win32,60
,,,,,,,,,,,,,,,,,,,,9,1.481999874,1,0.389999866,1,0,1200,1037,1,1199,scared,11124,2019-10-21_21h29.45.501,SurveyExpMetaMem,3.2.3,Win32,60
,,,,,,,,,,,,,,,,,,,,9,2.14199996,9,1.394000053,1,0,1200,879,1,1199,bird,11124,2019-10-21_21h29.45.501,SurveyExpMetaMem,3.2.3,Win32,60
,,,,,,,,,,,,,,,,,,,,1,1.993000031,1,0.602999926,1,0,1200,385,1,1199,tiresome,11124,2019-10-21_21h29.45.501,SurveyExpMetaMem,3.2.3,Win32,60
,,,,,,,,,,,,,,,,,,,,1,1.332000017,1,0.302999973,1,0,1200,1009,1,1199,frightened,11124,2019-10-21_21h29.45.501,SurveyExpMetaMem,3.2.3,Win32,60
,,,,,,,,,,,,,,,,,,,,5,2.279000044,5,0.279999971,1,0,1200,1104,1,1199,avalanche,11124,2019-10-21_21h29.45.501,SurveyExpMetaMem,3.2.3,Win32,60
,,,,,,,,,,,,,,,,,,,,5,1.055000067,5,0.231999874,1,0,1200,213,1,1199,fair,11124,2019-10-21_21h29.45.501,SurveyExpMetaMem,3.2.3,Win32,60
,,,,,,,,,,,,,,,,,,,,9,2.211999893,9,0.333999872,1,0,1200,239,1,1199,compassionate,11124,2019-10-21_21h29.45.501,SurveyExpMetaMem,3.2.3,Win32,60
,,,,,,,,,,,,,,,,,,,,1,2.802999973,1,0.540999889,1,0,1200,395,1,1199,lack,11124,2019-10-21_21h29.45.501,SurveyExpMetaMem,3.2.3,Win32,60
,,,,,,,,,,,,,,,,,,,,5,0.980999947,5,0.250999928,1,0,1200,714,1,1199,courtyard,11124,2019-10-21_21h29.45.501,SurveyExpMetaMem,3.2.3,Win32,60
,,,,,,,,,,,,,,,,,,,,1,1.669999838,1,0.43900013,1,0,1200,926,1,1199,dead,11124,2019-10-21_21h29.45.501,SurveyExpMetaMem,3.2.3,Win32,60
,,,,,,,,,,,,,,,,,,,,5,1.733999968,5,0.226999998,1,0,1200,645,1,1199,telescope,11124,2019-10-21_21h29.45.501,SurveyExpMetaMem,3.2.3,Win32,60
,,,,,,,,,,,,,,,,,,,,9,5.51699996,9,0.63499999,1,0,1200,197,1,1199,happy,11124,2019-10-21_21h29.45.501,SurveyExpMetaMem,3.2.3,Win32,60
,,,,,,,,,,,,,,,,,,,,9,2.154999733,1,1.825000048,1,0,1200,981,1,1199,rage,11124,2019-10-21_21h29.45.501,SurveyExpMetaMem,3.2.3,Win32,60
,,,,,,,,,,,,,,,,,,,,9,1.796999931,1,1.409999847,1,0,1200,1011,1,1199,robber,11124,2019-10-21_21h29.45.501,SurveyExpMetaMem,3.2.3,Win32,60
,,,,,,,,,,,,,,,,,,,,5,1.975999832,5,0.181999922,1,0,1200,172,1,1199,potential,11124,2019-10-21_21h29.45.501,SurveyExpMetaMem,3.2.3,Win32,60
,,,,,,,,,,,,,,,,,,,,5,3.069000006,1,0.661999702,1,0,1200,1067,1,1199,wicked,11124,2019-10-21_21h29.45.501,SurveyExpMetaMem,3.2.3,Win32,60
,,,,,,,,,,,,,,,,,,,,9,1.625,9,0.907999992,1,0,1200,845,1,1199,honey,11124,2019-10-21_21h29.45.501,SurveyExpMetaMem,3.2.3,Win32,60
,,,,,,,,,,,,,,,,,,,,5,1.796000004,5,0.214999914,1,0,1200,601,1,1199,roof,11124,2019-10-21_21h29.45.501,SurveyExpMetaMem,3.2.3,Win32,60
,,,,,,,,,,,,,,,,,,,,9,1.157999754,5,1.714999914,1,0,1200,1164,1,1199,battle,11124,2019-10-21_21h29.45.501,SurveyExpMetaMem,3.2.3,Win32,60
,,,,,,,,,,,,,,,,,,,,5,1.18900013,5,0.495999813,1,0,1200,728,1,1199,patio,11124,2019-10-21_21h29.45.501,SurveyExpMetaMem,3.2.3,Win32,60
,,,,,,,,,,,,,,,,,,,,5,1.093999863,5,0.180999994,1,0,1200,476,1,1199,warden,11124,2019-10-21_21h29.45.501,SurveyExpMetaMem,3.2.3,Win32,60
,,,,,,,,,,,,,,,,,,,,5,3.326999903,5,0.587999821,1,0,1200,673,1,1199,bedspread,11124,2019-10-21_21h29.45.501,SurveyExpMetaMem,3.2.3,Win32,60
,,,,,,,,,,,,,,,,,,,,5,0.819000006,5,0.203999996,1,0,1200,330,1,1199,sunburn,11124,2019-10-21_21h29.45.501,SurveyExpMetaMem,3.2.3,Win32,60
,,,,,,,,,,,,,,,,,,,,5,2.029999971,5,0.221999884,1,0,1200,569,1,1199,onion,11124,2019-10-21_21h29.45.501,SurveyExpMetaMem,3.2.3,Win32,60
,,,,,,,,,,,,,,,,,,,,5,1.927999973,5,0.187000036,1,0,1200,706,1,1199,cat,11124,2019-10-21_21h29.45.501,SurveyExpMetaMem,3.2.3,Win32,60
,,,,,,,,,,,,,,,,,,,,5,0.887000084,5,0.196999788,1,0,1200,263,1,1199,answer,11124,2019-10-21_21h29.45.501,SurveyExpMetaMem,3.2.3,Win32,60
,,,,,,,,,,,,,,,,,,,,1,2.872999907,9,0.779999971,1,0,1200,802,1,1199,familiar,11124,2019-10-21_21h29.45.501,SurveyExpMetaMem,3.2.3,Win32,60
,,,,,,,,,,,,,,,,,,,,5,1.993000031,5,0.221999884,1,0,1200,801,1,1199,noon,11124,2019-10-21_21h29.45.501,SurveyExpMetaMem,3.2.3,Win32,60
,,,,,,,,,,,,,,,,,,,,5,0.701999903,5,0.211999893,1,0,1200,497,1,1199,pungent,11124,2019-10-21_21h29.45.501,SurveyExpMetaMem,3.2.3,Win32,60
,,,,,,,,,,,,,,,,,,,,5,2.233999968,5,0.237999916,1,0,1200,828,1,1199,cooperative,11124,2019-10-21_21h29.45.501,SurveyExpMetaMem,3.2.3,Win32,60
,,,,,,,,,,,,,,,,,,,,1,1.356999874,9,1.957999945,1,0,1200,756,1,1199,plant,11124,2019-10-21_21h29.45.501,SurveyExpMetaMem,3.2.3,Win32,60
,,,,,,,,,,,,,,,,,,,,1,1.808000088,5,1.142999887,1,0,1200,831,1,1199,sofa,11124,2019-10-21_21h29.45.501,SurveyExpMetaMem,3.2.3,Win32,60
,,,,,,,,,,,,,,,,,,,,8,3.711999893,1,0.941999912,1,0,1200,910,1,1199,abusive,11124,2019-10-21_21h29.45.501,SurveyExpMetaMem,3.2.3,Win32,60
,,,,,,,,,,,,,,,,,,,,9,1.343999863,1,0.54399991,1,0,1200,971,1,1199,crash,11124,2019-10-21_21h29.45.501,SurveyExpMetaMem,3.2.3,Win32,60
,,,,,,,,,,,,,,,,,,,,7,1.904999971,1,0.731999874,1,0,1200,1086,1,1199,irritate,11124,2019-10-21_21h29.45.501,SurveyExpMetaMem,3.2.3,Win32,60
,,,,,,,,,,,,,,,,,,,,1,2.684000015,5,1.95600009,1,0,1200,635,1,1199,sensitive,11124,2019-10-21_21h29.45.501,SurveyExpMetaMem,3.2.3,Win32,60
,,,,,,,,,,,,,,,,,,,,1,1.640999794,9,1.901000023,1,0,1200,62,1,1199,interested,11124,2019-10-21_21h29.45.501,SurveyExpMetaMem,3.2.3,Win32,60
,,,,,,,,,,,,,,,,,,,,5,1.757999897,5,0.369999886,1,0,1200,5,1,1199,drunk,11124,2019-10-21_21h29.45.501,SurveyExpMetaMem,3.2.3,Win32,60
,,,,,,,,,,,,,,,,,,,,5,0.67599988,5,0.286999941,1,0,1200,315,1,1199,zit,11124,2019-10-21_21h29.45.501,SurveyExpMetaMem,3.2.3,Win32,60
,,,,,,,,,,,,,,,,,,,,5,0.650999784,5,0.194000006,1,0,1200,66,1,1199,zest,11124,2019-10-21_21h29.45.501,SurveyExpMetaMem,3.2.3,Win32,60
,,,,,,,,,,,,,,,,,,,,5,2.835000038,5,0.201999903,1,0,1200,634,1,1199,glacier,11124,2019-10-21_21h29.45.501,SurveyExpMetaMem,3.2.3,Win32,60
,,,,,,,,,,,,,,,,,,,,5,2.398999929,5,0.252000093,1,0,1200,129,1,1199,fly,11124,2019-10-21_21h29.45.501,SurveyExpMetaMem,3.2.3,Win32,60
,,,,,,,,,,,,,,,,,,,,9,2.484999895,9,1.372999907,1,0,1200,874,1,1199,butterfly,11124,2019-10-21_21h29.45.501,SurveyExpMetaMem,3.2.3,Win32,60
,,,,,,,,,,,,,,,,,,,,1,2.05099988,9,1.680000067,1,0,1200,770,1,1199,buffalo,11124,2019-10-21_21h29.45.501,SurveyExpMetaMem,3.2.3,Win32,60
,,,,,,,,,,,,,,,,,,,,9,2.517999887,9,1.586999893,1,0,1200,241,1,1199,car,11124,2019-10-21_21h29.45.501,SurveyExpMetaMem,3.2.3,Win32,60
,,,,,,,,,,,,,,,,,,,,1,1.450999975,9,2.345999956,1,0,1200,887,1,1199,elegant,11124,2019-10-21_21h29.45.501,SurveyExpMetaMem,3.2.3,Win32,60
,,,,,,,,,,,,,,,,,,,,1,3.001999855,1,0.487999916,1,0,1200,345,1,1199,unfortunate,11124,2019-10-21_21h29.45.501,SurveyExpMetaMem,3.2.3,Win32,60
,,,,,,,,,,,,,,,,,,,,5,1.343999863,5,0.212999821,1,0,1200,545,1,1199,tar,11124,2019-10-21_21h29.45.501,SurveyExpMetaMem,3.2.3,Win32,60
,,,,,,,,,,,,,,,,,,,,5,2.552000046,5,0.189999819,1,0,1200,266,1,1199,juice,11124,2019-10-21_21h29.45.501,SurveyExpMetaMem,3.2.3,Win32,60
,,,,,,,,,,,,,,,,,,,,9,1.059999943,1,0.599999905,1,0,1200,1120,1,1199,gun,11124,2019-10-21_21h29.45.501,SurveyExpMetaMem,3.2.3,Win32,60
,,,,,,,,,,,,,,,,,,,,5,1.842999935,5,0.296999931,1,0,1200,259,1,1199,thin,11124,2019-10-21_21h29.45.501,SurveyExpMetaMem,3.2.3,Win32,60
,,,,,,,,,,,,,,,,,,,,9,1.546000004,5,1.263999939,1,0,1200,1097,1,1199,bees,11124,2019-10-21_21h29.45.501,SurveyExpMetaMem,3.2.3,Win32,60
,,,,,,,,,,,,,,,,,,,,5,1.244999886,5,0.524999857,1,0,1200,75,1,1199,actor,11124,2019-10-21_21h29.45.501,SurveyExpMetaMem,3.2.3,Win32,60
,,,,,,,,,,,,,,,,,,,,1,1.338999987,1,0.40899992,1,0,1200,947,1,1199,shame,11124,2019-10-21_21h29.45.501,SurveyExpMetaMem,3.2.3,Win32,60
,,,,,,,,,,,,,,,,,,,,7,2.688999891,9,2.201999903,1,0,1200,15,1,1199,curiosity,11124,2019-10-21_21h29.45.501,SurveyExpMetaMem,3.2.3,Win32,60
,,,,,,,,,,,,,,,,,,,,5,1.375,5,0.247999907,1,0,1200,1114,1,1199,foe,11124,2019-10-21_21h29.45.501,SurveyExpMetaMem,3.2.3,Win32,60
,,,,,,,,,,,,,,,,,,,,5,1.405999899,5,0.200000048,1,0,1200,1132,1,1199,anarchy,11124,2019-10-21_21h29.45.501,SurveyExpMetaMem,3.2.3,Win32,60
,,,,,,,,,,,,,,,,,,,,9,1.484999895,9,0.356999874,1,0,1200,96,1,1199,joke,11124,2019-10-21_21h29.45.501,SurveyExpMetaMem,3.2.3,Win32,60
,,,,,,,,,,,,,,,,,,,,5,1.412999868,5,0.246999979,1,0,1200,337,1,1199,stinks,11124,2019-10-21_21h29.45.501,SurveyExpMetaMem,3.2.3,Win32,60
,,,,,,,,,,,,,,,,,,,,1,1.573999882,9,1.044999838,1,0,1200,772,1,1199,ornament,11124,2019-10-21_21h29.45.501,SurveyExpMetaMem,3.2.3,Win32,60
,,,,,,,,,,,,,,,,,,,,1,1.638000011,9,0.865999699,1,0,1200,863,1,1199,fireplace,11124,2019-10-21_21h29.45.501,SurveyExpMetaMem,3.2.3,Win32,60
,,,,,,,,,,,,,,,,,,,,9,2.331999779,5,2.106999874,1,0,1200,1180,1,1199,heat,11124,2019-10-21_21h29.45.501,SurveyExpMetaMem,3.2.3,Win32,60
,,,,,,,,,,,,,,,,,,,,1,1.437999964,9,1.010999918,1,0,1200,733,1,1199,poetry,11124,2019-10-21_21h29.45.501,SurveyExpMetaMem,3.2.3,Win32,60
,,,,,,,,,,,,,,,,,,,,5,3.722999811,9,1.065999985,1,0,1200,246,1,1199,complete,11124,2019-10-21_21h29.45.501,SurveyExpMetaMem,3.2.3,Win32,60
,,,,,,,,,,,,,,,,,,,,5,1.105000019,5,0.880000114,1,0,1200,435,1,1199,grovel,11124,2019-10-21_21h29.45.501,SurveyExpMetaMem,3.2.3,Win32,60
,,,,,,,,,,,,,,,,,,,,1,1.542000055,5,1.922999859,1,0,1200,568,1,1199,therapy,11124,2019-10-21_21h29.45.501,SurveyExpMetaMem,3.2.3,Win32,60
,,,,,,,,,,,,,,,,,,,,5,1.806999922,5,0.841999769,1,0,1200,641,1,1199,writer,11124,2019-10-21_21h29.45.501,SurveyExpMetaMem,3.2.3,Win32,60
,,,,,,,,,,,,,,,,,,,,9,1.713999987,9,1.142999887,1,0,1200,144,1,1199,aroused,11124,2019-10-21_21h29.45.501,SurveyExpMetaMem,3.2.3,Win32,60
,,,,,,,,,,,,,,,,,,,,5,1.341999769,5,0.362999916,1,0,1200,483,1,1199,condescension,11124,2019-10-21_21h29.45.501,SurveyExpMetaMem,3.2.3,Win32,60
,,,,,,,,,,,,,,,,,,,,9,1.99000001,1,0.623000145,1,0,1200,959,1,1199,divorce,11124,2019-10-21_21h29.45.501,SurveyExpMetaMem,3.2.3,Win32,60
,,,,,,,,,,,,,,,,,,,,1,1.656999826,9,1.710000038,1,0,1200,789,1,1199,green,11124,2019-10-21_21h29.45.501,SurveyExpMetaMem,3.2.3,Win32,60
,,,,,,,,,,,,,,,,,,,,5,1.125,5,0.260999918,1,0,1200,280,1,1199,cookout,11124,2019-10-21_21h29.45.501,SurveyExpMetaMem,3.2.3,Win32,60
,,,,,,,,,,,,,,,,,,,,5,0.842999935,5,0.260999918,1,0,1200,152,1,1199,hire,11124,2019-10-21_21h29.45.501,SurveyExpMetaMem,3.2.3,Win32,60
,,,,,,,,,,,,,,,,,,,,1,2.225999832,9,1.713000059,1,0,1200,682,1,1199,camel,11124,2019-10-21_21h29.45.501,SurveyExpMetaMem,3.2.3,Win32,60
,,,,,,,,,,,,,,,,,,,,5,0.971999884,5,0.210000038,1,0,1200,341,1,1199,stinky,11124,2019-10-21_21h29.45.501,SurveyExpMetaMem,3.2.3,Win32,60
,,,,,,,,,,,,,,,,,,,,5,0.778999805,5,0.2099998,1,0,1200,466,1,1199,gnaw,11124,2019-10-21_21h29.45.501,SurveyExpMetaMem,3.2.3,Win32,60
,,,,,,,,,,,,,,,,,,,,5,0.859999895,5,0.210999966,1,0,1200,935,1,1199,despise,11124,2019-10-21_21h29.45.501,SurveyExpMetaMem,3.2.3,Win32,60
,,,,,,,,,,,,,,,,,,,,9,1.174999952,9,0.825999975,1,0,1200,164,1,1199,marry,11124,2019-10-21_21h29.45.501,SurveyExpMetaMem,3.2.3,Win32,60
,,,,,,,,,,,,,,,,,,,,5,0.9599998,5,0.27699995,1,0,1200,1154,1,1199,politics,11124,2019-10-21_21h29.45.501,SurveyExpMetaMem,3.2.3,Win32,60
,,,,,,,,,,,,,,,,,,,,5,0.875,5,0.227999926,1,0,1200,585,1,1199,tatter,11124,2019-10-21_21h29.45.501,SurveyExpMetaMem,3.2.3,Win32,60
,,,,,,,,,,,,,,,,,,,,5,1.096999884,5,0.184999943,1,0,1200,119,1,1199,stereo,11124,2019-10-21_21h29.45.501,SurveyExpMetaMem,3.2.3,Win32,60
,,,,,,,,,,,,,,,,,,,,1,1.561000109,1,0.402999878,1,0,1200,920,1,1199,hurt,11124,2019-10-21_21h29.45.501,SurveyExpMetaMem,3.2.3,Win32,60
,,,,,,,,,,,,,,,,,,,,1,1.128999949,1,0.274999857,1,0,1200,834,1,1199,crown,11124,2019-10-21_21h29.45.501,SurveyExpMetaMem,3.2.3,Win32,60
,,,,,,,,,,,,,,,,,,,,1,3.769000053,1,0.940999746,1,0,1200,526,1,1199,dry,11124,2019-10-21_21h29.45.501,SurveyExpMetaMem,3.2.3,Win32,60
,,,,,,,,,,,,,,,,,,,,5,1.003999949,5,0.180999994,1,0,1200,169,1,1199,aid,11124,2019-10-21_21h29.45.501,SurveyExpMetaMem,3.2.3,Win32,60
,,,,,,,,,,,,,,,,,,,,9,1.710999966,5,1.769999743,1,0,1200,264,1,1199,thong,11124,2019-10-21_21h29.45.501,SurveyExpMetaMem,3.2.3,Win32,60
,,,,,,,,,,,,,,,,,,,,5,2.375,5,0.253000021,1,0,1200,352,1,1199,negligent,11124,2019-10-21_21h29.45.501,SurveyExpMetaMem,3.2.3,Win32,60
,,,,,,,,,,,,,,,,,,,,5,1.068999767,5,0.210999727,1,0,1200,417,1,1199,dummy,11124,2019-10-21_21h29.45.501,SurveyExpMetaMem,3.2.3,Win32,60
,,,,,,,,,,,,,,,,,,,,9,1.180000067,9,0.289000034,1,0,1200,277,1,1199,cupcake,11124,2019-10-21_21h29.45.501,SurveyExpMetaMem,3.2.3,Win32,60
,,,,,,,,,,,,,,,,,,,,9,1.051999807,1,0.319999933,1,0,1200,1107,1,1199,snake,11124,2019-10-21_21h29.45.501,SurveyExpMetaMem,3.2.3,Win32,60
,,,,,,,,,,,,,,,,,,,,5,0.917999983,5,0.240999937,1,0,1200,740,1,1199,groceries,11124,2019-10-21_21h29.45.501,SurveyExpMetaMem,3.2.3,Win32,60
,,,,,,,,,,,,,,,,,,,,5,0.575000048,5,0.203999758,1,0,1200,536,1,1199,vacant,11124,2019-10-21_21h29.45.501,SurveyExpMetaMem,3.2.3,Win32,60
,,,,,,,,,,,,,,,,,,,,5,0.610999823,5,0.194000006,1,0,1200,521,1,1199,laundry,11124,2019-10-21_21h29.45.501,SurveyExpMetaMem,3.2.3,Win32,60
,,,,,,,,,,,,,,,,,,,,5,0.525999784,5,0.223999977,1,0,1200,747,1,1199,furniture,11124,2019-10-21_21h29.45.501,SurveyExpMetaMem,3.2.3,Win32,60
,,,,,,,,,,,,,,,,,,,,5,0.536999941,5,0.243999958,1,0,1200,523,1,1199,witch,11124,2019-10-21_21h29.45.501,SurveyExpMetaMem,3.2.3,Win32,60
,,,,,,,,,,,,,,,,,,,,5,0.723999977,5,0.269999743,1,0,1200,110,1,1199,animal,11124,2019-10-21_21h29.45.501,SurveyExpMetaMem,3.2.3,Win32,60
,,,,,,,,,,,,,,,,,,,,5,2.534999847,5,0.220000029,1,0,1200,562,1,1199,average,11124,2019-10-21_21h29.45.501,SurveyExpMetaMem,3.2.3,Win32,60
,,,,,,,,,,,,,,,,,,,,5,1.404000044,5,0.249000072,1,0,1200,849,1,1199,blue,11124,2019-10-21_21h29.45.501,SurveyExpMetaMem,3.2.3,Win32,60
,,,,,,,,,,,,,,,,,,,,5,0.585999966,5,0.236000061,1,0,1200,136,1,1199,dog,11124,2019-10-21_21h29.45.501,SurveyExpMetaMem,3.2.3,Win32,60
,,,,,,,,,,,,,,,,,,,,9,1.440999985,1,0.247999907,1,0,1200,444,1,1199,mold,11124,2019-10-21_21h29.45.501,SurveyExpMetaMem,3.2.3,Win32,60
,,,,,,,,,,,,,,,,,,,,5,1.18599987,5,0.252000093,1,0,1200,421,1,1199,stale,11124,2019-10-21_21h29.45.501,SurveyExpMetaMem,3.2.3,Win32,60
,,,,,,,,,,,,,,,,,,,,9,1.131000042,1,0.409999847,1,0,1200,983,1,1199,demonic,11124,2019-10-21_21h29.45.501,SurveyExpMetaMem,3.2.3,Win32,60
,,,,,,,,,,,,,,,,,,,,9,1.142999887,1,0.395999908,1,0,1200,998,1,1199,virus,11124,2019-10-21_21h29.45.501,SurveyExpMetaMem,3.2.3,Win32,60
,,,,,,,,,,,,,,,,,,,,5,1.274999857,5,0.303999901,1,0,1200,479,1,1199,period,11124,2019-10-21_21h29.45.501,SurveyExpMetaMem,3.2.3,Win32,60
,,,,,,,,,,,,,,,,,,,,9,1.769999981,9,0.380999804,1,0,1200,181,1,1199,fascinate,11124,2019-10-21_21h29.45.501,SurveyExpMetaMem,3.2.3,Win32,60
,,,,,,,,,,,,,,,,,,,,5,1.473999739,5,0.205999851,1,0,1200,667,1,1199,dew,11124,2019-10-21_21h29.45.501,SurveyExpMetaMem,3.2.3,Win32,60
,,,,,,,,,,,,,,,,,,,,5,0.677999973,5,0.197999954,1,0,1200,368,1,1199,dreary,11124,2019-10-21_21h29.45.501,SurveyExpMetaMem,3.2.3,Win32,60
,,,,,,,,,,,,,,,,,,,,5,1.508999825,5,0.213999987,1,0,1200,449,1,1199,egotistical,11124,2019-10-21_21h29.45.501,SurveyExpMetaMem,3.2.3,Win32,60
,,,,,,,,,,,,,,,,,,,,1,1.683999777,9,1.471999884,1,0,1200,744,1,1199,village,11124,2019-10-21_21h29.45.501,SurveyExpMetaMem,3.2.3,Win32,60
,,,,,,,,,,,,,,,,,,,,9,1.712000132,9,0.603999853,1,0,1200,247,1,1199,graduate,11124,2019-10-21_21h29.45.501,SurveyExpMetaMem,3.2.3,Win32,60
,,,,,,,,,,,,,,,,,,,,9,3.440000057,1,0.39199996,1,0,1200,902,1,1199,rejected,11124,2019-10-21_21h29.45.501,SurveyExpMetaMem,3.2.3,Win32,60
,,,,,,,,,,,,,,,,,,,,5,1.155999899,5,0.485999823,1,0,1200,586,1,1199,cab,11124,2019-10-21_21h29.45.501,SurveyExpMetaMem,3.2.3,Win32,60
,,,,,,,,,,,,,,,,,,,,7,2.940999985,1,0.888999939,1,0,1200,987,1,1199,disgusted,11124,2019-10-21_21h29.45.501,SurveyExpMetaMem,3.2.3,Win32,60
,,,,,,,,,,,,,,,,,,,,9,2.19299984,1,0.523999929,1,0,1200,1138,1,1199,wail,11124,2019-10-21_21h29.45.501,SurveyExpMetaMem,3.2.3,Win32,60
,,,,,,,,,,,,,,,,,,,,9,1.36500001,1,0.451999903,1,0,1200,1141,1,1199,shark,11124,2019-10-21_21h29.45.501,SurveyExpMetaMem,3.2.3,Win32,60
,,,,,,,,,,,,,,,,,,,,5,2.765999794,5,1.592999935,1,0,1200,724,1,1199,owl,11124,2019-10-21_21h29.45.501,SurveyExpMetaMem,3.2.3,Win32,60
,,,,,,,,,,,,,,,,,,,,5,1.06799984,5,0.190999746,1,0,1200,836,1,1199,lounge,11124,2019-10-21_21h29.45.501,SurveyExpMetaMem,3.2.3,Win32,60
,,,,,,,,,,,,,,,,,,,,9,1.056999922,9,1.322999954,1,0,1200,231,1,1199,cherish,11124,2019-10-21_21h29.45.501,SurveyExpMetaMem,3.2.3,Win32,60
,,,,,,,,,,,,,,,,,,,,1,1.472999811,9,0.710999966,1,0,1200,848,1,1199,graceful,11124,2019-10-21_21h29.45.501,SurveyExpMetaMem,3.2.3,Win32,60
,,,,,,,,,,,,,,,,,,,,5,1.213999987,5,0.265999794,1,0,1200,961,1,1199,crucify,11124,2019-10-21_21h29.45.501,SurveyExpMetaMem,3.2.3,Win32,60
,,,,,,,,,,,,,,,,,,,,5,1.193999767,5,0.20600009,1,0,1200,439,1,1199,spit,11124,2019-10-21_21h29.45.501,SurveyExpMetaMem,3.2.3,Win32,60
,,,,,,,,,,,,,,,,,,,,5,1.954999924,5,0.213999987,1,0,1200,269,1,1199,extravagant,11124,2019-10-21_21h29.45.501,SurveyExpMetaMem,3.2.3,Win32,60
,,,,,,,,,,,,,,,,,,,,5,1.402999878,5,0.210000038,1,0,1200,38,1,1199,cheeseburger,11124,2019-10-21_21h29.45.501,SurveyExpMetaMem,3.2.3,Win32,60
,,,,,,,,,,,,,,,,,,,,5,1.129999876,5,0.243999958,1,0,1200,637,1,1199,flock,11124,2019-10-21_21h29.45.501,SurveyExpMetaMem,3.2.3,Win32,60
,,,,,,,,,,,,,,,,,,,,9,1.523999929,9,0.289999962,1,0,1200,291,1,1199,fantastic,11124,2019-10-21_21h29.45.501,SurveyExpMetaMem,3.2.3,Win32,60
,,,,,,,,,,,,,,,,,,,,1,1.356999874,1,0.774999857,1,0,1200,303,1,1199,death,11124,2019-10-21_21h29.45.501,SurveyExpMetaMem,3.2.3,Win32,60
,,,,,,,,,,,,,,,,,,,,9,1.195999861,1,0.372999907,1,0,1200,1163,1,1199,python,11124,2019-10-21_21h29.45.501,SurveyExpMetaMem,3.2.3,Win32,60
,,,,,,,,,,,,,,,,,,,,9,1.84800005,9,0.455999851,1,0,1200,74,1,1199,explore,11124,2019-10-21_21h29.45.501,SurveyExpMetaMem,3.2.3,Win32,60
,,,,,,,,,,,,,,,,,,,,5,0.930999994,5,0.215999842,1,0,1200,558,1,1199,punk,11124,2019-10-21_21h29.45.501,SurveyExpMetaMem,3.2.3,Win32,60
,,,,,,,,,,,,,,,,,,,,5,1.980000019,5,0.210000038,1,0,1200,658,1,1199,method,11124,2019-10-21_21h29.45.501,SurveyExpMetaMem,3.2.3,Win32,60
,,,,,,,,,,,,,,,,,,,,5,0.888999939,5,0.242999792,1,0,1200,1178,1,1199,weight,11124,2019-10-21_21h29.45.501,SurveyExpMetaMem,3.2.3,Win32,60
,,,,,,,,,,,,,,,,,,,,9,0.990999937,9,0.374000072,1,0,1200,171,1,1199,imagination,11124,2019-10-21_21h29.45.501,SurveyExpMetaMem,3.2.3,Win32,60
,,,,,,,,,,,,,,,,,,,,5,0.645999908,5,0.257999897,1,0,1200,372,1,1199,inferior,11124,2019-10-21_21h29.45.501,SurveyExpMetaMem,3.2.3,Win32,60
,,,,,,,,,,,,,,,,,,,,9,1.089999914,5,1.042999744,1,0,1200,204,1,1199,crazy,11124,2019-10-21_21h29.45.501,SurveyExpMetaMem,3.2.3,Win32,60
,,,,,,,,,,,,,,,,,,,,5,0.897999763,5,0.240999937,1,0,1200,688,1,1199,jelly,11124,2019-10-21_21h29.45.501,SurveyExpMetaMem,3.2.3,Win32,60
,,,,,,,,,,,,,,,,,,,,1,1.540999889,1,0.273999929,1,0,1200,329,1,1199,worse,11124,2019-10-21_21h29.45.501,SurveyExpMetaMem,3.2.3,Win32,60
,,,,,,,,,,,,,,,,,,,,5,0.891999722,5,0.242999792,1,0,1200,686,1,1199,phone,11124,2019-10-21_21h29.45.501,SurveyExpMetaMem,3.2.3,Win32,60
,,,,,,,,,,,,,,,,,,,,9,1.389999866,9,0.340999842,1,0,1200,70,1,1199,cartoon,11124,2019-10-21_21h29.45.501,SurveyExpMetaMem,3.2.3,Win32,60
,,,,,,,,,,,,,,,,,,,,1,1.891000032,1,0.696000099,1,0,1200,1030,1,1199,offend,11124,2019-10-21_21h29.45.501,SurveyExpMetaMem,3.2.3,Win32,60
,,,,,,,,,,,,,,,,,,,,9,1.789999723,1,0.323999882,1,0,1200,936,1,1199,assault,11124,2019-10-21_21h29.45.501,SurveyExpMetaMem,3.2.3,Win32,60
,,,,,,,,,,,,,,,,,,,,1,1.590999842,1,0.790999889,1,0,1200,484,1,1199,leave,11124,2019-10-21_21h29.45.501,SurveyExpMetaMem,3.2.3,Win32,60
,,,,,,,,,,,,,,,,,,,,1,1.393000126,1,0.260999918,1,0,1200,1016,1,1199,awful,11124,2019-10-21_21h29.45.501,SurveyExpMetaMem,3.2.3,Win32,60
,,,,,,,,,,,,,,,,,,,,1,0.975000143,1,0.410000086,1,0,1200,386,1,1199,pale,11124,2019-10-21_21h29.45.501,SurveyExpMetaMem,3.2.3,Win32,60
,,,,,,,,,,,,,,,,,,,,1,1.827000141,9,0.5,1,0,1200,91,1,1199,pretty,11124,2019-10-21_21h29.45.501,SurveyExpMetaMem,3.2.3,Win32,60
,,,,,,,,,,,,,,,,,,,,1,2.204999924,5,1.235999823,1,0,1200,749,1,1199,glasses,11124,2019-10-21_21h29.45.501,SurveyExpMetaMem,3.2.3,Win32,60
,,,,,,,,,,,,,,,,,,,,5,2.31099987,5,0.904000044,1,0,1200,713,1,1199,mobile,11124,2019-10-21_21h29.45.501,SurveyExpMetaMem,3.2.3,Win32,60
,,,,,,,,,,,,,,,,,,,,5,1.161000013,5,0.187999964,1,0,1200,582,1,1199,cling,11124,2019-10-21_21h29.45.501,SurveyExpMetaMem,3.2.3,Win32,60
,,,,,,,,,,,,,,,,,,,,5,1.301999807,5,0.250999928,1,0,1200,862,1,1199,ease,11124,2019-10-21_21h29.45.501,SurveyExpMetaMem,3.2.3,Win32,60
,,,,,,,,,,,,,,,,,,,,9,2.934000015,1,0.91899991,1,0,1200,1069,1,1199,defeat,11124,2019-10-21_21h29.45.501,SurveyExpMetaMem,3.2.3,Win32,60
,,,,,,,,,,,,,,,,,,,,5,2.919999838,5,1.256999969,1,0,1200,37,1,1199,magnificence,11124,2019-10-21_21h29.45.501,SurveyExpMetaMem,3.2.3,Win32,60
,,,,,,,,,,,,,,,,,,,,9,2.218999863,5,0.885999918,1,0,1200,251,1,1199,meteor,11124,2019-10-21_21h29.45.501,SurveyExpMetaMem,3.2.3,Win32,60
,,,,,,,,,,,,,,,,,,,,1,2.273999929,1,0.566999912,1,0,1200,530,1,1199,erase,11124,2019-10-21_21h29.45.501,SurveyExpMetaMem,3.2.3,Win32,60
,,,,,,,,,,,,,,,,,,,,9,1.372999907,1,0.77699995,1,0,1200,1105,1,1199,flee,11124,2019-10-21_21h29.45.501,SurveyExpMetaMem,3.2.3,Win32,60
,,,,,,,,,,,,,,,,,,,,1,1.253000021,9,0.84100008,1,0,1200,870,1,1199,safe,11124,2019-10-21_21h29.45.501,SurveyExpMetaMem,3.2.3,Win32,60
,,,,,,,,,,,,,,,,,,,,1,5.854000092,1,0.253000021,1,0,1200,927,1,1199,jail,11124,2019-10-21_21h29.45.501,SurveyExpMetaMem,3.2.3,Win32,60
,,,,,,,,,,,,,,,,,,,,1,0.917999983,9,0.755999804,1,0,1200,899,1,1199,relax,11124,2019-10-21_21h29.45.501,SurveyExpMetaMem,3.2.3,Win32,60
,,,,,,,,,,,,,,,,,,,,5,1.41899991,5,0.2099998,1,0,1200,617,1,1199,tomato,11124,2019-10-21_21h29.45.501,SurveyExpMetaMem,3.2.3,Win32,60
,,,,,,,,,,,,,,,,,,,,5,0.903999805,5,0.171999931,1,0,1200,539,1,1199,novice,11124,2019-10-21_21h29.45.501,SurveyExpMetaMem,3.2.3,Win32,60
,,,,,,,,,,,,,,,,,,,,5,0.720999718,5,0.207000017,1,0,1200,514,1,1199,defer,11124,2019-10-21_21h29.45.501,SurveyExpMetaMem,3.2.3,Win32,60
,,,,,,,,,,,,,,,,,,,,5,0.801999807,5,0.190000057,1,0,1200,156,1,1199,gym,11124,2019-10-21_21h29.45.501,SurveyExpMetaMem,3.2.3,Win32,60
,,,,,,,,,,,,,,,,,,,,5,0.788999796,5,0.203999996,1,0,1200,816,1,1199,hippotamus,11124,2019-10-21_21h29.45.501,SurveyExpMetaMem,3.2.3,Win32,60
,,,,,,,,,,,,,,,,,,,,1,3.667999983,1,0.308000088,1,0,1200,349,1,1199,mope,11124,2019-10-21_21h29.45.501,SurveyExpMetaMem,3.2.3,Win32,60
,,,,,,,,,,,,,,,,,,,,9,1.623999834,1,0.239000082,1,0,1200,1089,1,1199,ridicule,11124,2019-10-21_21h29.45.501,SurveyExpMetaMem,3.2.3,Win32,60
,,,,,,,,,,,,,,,,,,,,9,1.122999907,1,0.519999743,1,0,1200,1108,1,1199,spider,11124,2019-10-21_21h29.45.501,SurveyExpMetaMem,3.2.3,Win32,60
,,,,,,,,,,,,,,,,,,,,9,3.450999737,9,0.294999838,1,0,1200,275,1,1199,brilliant,11124,2019-10-21_21h29.45.501,SurveyExpMetaMem,3.2.3,Win32,60
,,,,,,,,,,,,,,,,,,,,9,1.648000002,9,0.22300005,1,0,1200,298,1,1199,success,11124,2019-10-21_21h29.45.501,SurveyExpMetaMem,3.2.3,Win32,60
,,,,,,,,,,,,,,,,,,,,9,1.065000057,1,0.241999865,1,0,1200,1012,1,1199,gunshot,11124,2019-10-21_21h29.45.501,SurveyExpMetaMem,3.2.3,Win32,60
,,,,,,,,,,,,,,,,,,,,1,2.788999796,1,1.707000017,1,0,1200,260,1,1199,control,11124,2019-10-21_21h29.45.501,SurveyExpMetaMem,3.2.3,Win32,60
,,,,,,,,,,,,,,,,,,,,5,3.243000031,5,0.467000008,1,0,1200,1145,1,1199,officer,11124,2019-10-21_21h29.45.501,SurveyExpMetaMem,3.2.3,Win32,60
,,,,,,,,,,,,,,,,,,,,1,1.324999809,1,0.539999962,1,0,1200,443,1,1199,incorrect,11124,2019-10-21_21h29.45.501,SurveyExpMetaMem,3.2.3,Win32,60
,,,,,,,,,,,,,,,,,,,,5,1.868999958,5,0.524999857,1,0,1200,223,1,1199,fashion,11124,2019-10-21_21h29.45.501,SurveyExpMetaMem,3.2.3,Win32,60
,,,,,,,,,,,,,,,,,,,,9,2.06799984,5,1.491999865,1,0,1200,141,1,1199,surprise,11124,2019-10-21_21h29.45.501,SurveyExpMetaMem,3.2.3,Win32,60
,,,,,,,,,,,,,,,,,,,,5,3.855999947,5,0.318999767,1,0,1200,155,1,1199,ignite,11124,2019-10-21_21h29.45.501,SurveyExpMetaMem,3.2.3,Win32,60
,,,,,,,,,,,,,,,,,,,,5,1.753999949,5,0.242999792,1,0,1200,420,1,1199,smoke,11124,2019-10-21_21h29.45.501,SurveyExpMetaMem,3.2.3,Win32,60
,,,,,,,,,,,,,,,,,,,,5,0.81099987,5,0.226999998,1,0,1200,766,1,1199,flag,11124,2019-10-21_21h29.45.501,SurveyExpMetaMem,3.2.3,Win32,60
,,,,,,,,,,,,,,,,,,,,5,0.905999899,5,0.223999977,1,0,1200,858,1,1199,donate,11124,2019-10-21_21h29.45.501,SurveyExpMetaMem,3.2.3,Win32,60
,,,,,,,,,,,,,,,,,,,,1,2.296999931,9,0.64199996,1,0,1200,871,1,1199,comfort,11124,2019-10-21_21h29.45.501,SurveyExpMetaMem,3.2.3,Win32,60
,,,,,,,,,,,,,,,,,,,,5,1.739000082,5,0.243000031,1,0,1200,861,1,1199,nectar,11124,2019-10-21_21h29.45.501,SurveyExpMetaMem,3.2.3,Win32,60
,,,,,,,,,,,,,,,,,,,,9,1.430000067,9,0.532000065,1,0,1200,20,1,1199,climax,11124,2019-10-21_21h29.45.501,SurveyExpMetaMem,3.2.3,Win32,60
,,,,,,,,,,,,,,,,,,,,1,2.74000001,9,1.012999773,1,0,1200,829,1,1199,innocent,11124,2019-10-21_21h29.45.501,SurveyExpMetaMem,3.2.3,Win32,60
,,,,,,,,,,,,,,,,,,,,5,1.07799983,5,0.223999977,1,0,1200,469,1,1199,resent,11124,2019-10-21_21h29.45.501,SurveyExpMetaMem,3.2.3,Win32,60
,,,,,,,,,,,,,,,,,,,,5,0.724999905,5,0.193000078,1,0,1200,619,1,1199,pulpit,11124,2019-10-21_21h29.45.501,SurveyExpMetaMem,3.2.3,Win32,60
,,,,,,,,,,,,,,,,,,,,5,0.731999874,5,0.211999893,1,0,1200,599,1,1199,obstinate,11124,2019-10-21_21h29.45.501,SurveyExpMetaMem,3.2.3,Win32,60
,,,,,,,,,,,,,,,,,,,,5,2.124000072,5,0.191999912,1,0,1200,174,1,1199,snow,11124,2019-10-21_21h29.45.501,SurveyExpMetaMem,3.2.3,Win32,60
,,,,,,,,,,,,,,,,,,,,5,6.239000082,5,0.181999922,1,0,1200,791,1,1199,shoes,11124,2019-10-21_21h29.45.501,SurveyExpMetaMem,3.2.3,Win32,60
,,,,,,,,,,,,,,,,,,,,5,1.592999935,5,0.2099998,1,0,1200,725,1,1199,checkerboard,11124,2019-10-21_21h29.45.501,SurveyExpMetaMem,3.2.3,Win32,60
,,,,,,,,,,,,,,,,,,,,1,13.07299995,9,9.58100009,1,0,1200,753,1,1199,patience,11124,2019-10-21_21h29.45.501,SurveyExpMetaMem,3.2.3,Win32,60
,,,,,,,,,,,,,,,,,,,,1,7.84800005,5,3.535000086,1,0,1200,734,1,1199,piano,11124,2019-10-21_21h29.45.501,SurveyExpMetaMem,3.2.3,Win32,60
,,,,,,,,,,,,,,,,,,,,1,2.350999832,1,0.786999941,1,0,1200,411,1,1199,bitter,11124,2019-10-21_21h29.45.501,SurveyExpMetaMem,3.2.3,Win32,60
,,,,,,,,,,,,,,,,,,,,9,6.582999945,1,1.023000002,1,0,1200,1125,1,1199,outrage,11124,2019-10-21_21h29.45.501,SurveyExpMetaMem,3.2.3,Win32,60
,,,,,,,,,,,,,,,,,,,,9,3.187999725,1,1.119999886,1,0,1200,1174,1,1199,beast,11124,2019-10-21_21h29.45.501,SurveyExpMetaMem,3.2.3,Win32,60
,,,,,,,,,,,,,,,,,,,,1,2.40899992,5,1.485999823,1,0,1200,515,1,1199,blues,11124,2019-10-21_21h29.45.501,SurveyExpMetaMem,3.2.3,Win32,60
,,,,,,,,,,,,,,,,,,,,5,1.024999857,5,0.160000086,1,0,1200,824,1,1199,favor,11124,2019-10-21_21h29.45.501,SurveyExpMetaMem,3.2.3,Win32,60
,,,,,,,,,,,,,,,,,,,,5,0.589999914,5,0.157999992,1,0,1200,633,1,1199,cattle,11124,2019-10-21_21h29.45.501,SurveyExpMetaMem,3.2.3,Win32,60
,,,,,,,,,,,,,,,,,,,,5,1.06099987,5,0.167999983,1,0,1200,537,1,1199,absurd,11124,2019-10-21_21h29.45.501,SurveyExpMetaMem,3.2.3,Win32,60
,,,,,,,,,,,,,,,,,,,,5,1.688999891,1,0.756999969,1,0,1200,913,1,1199,ulcer,11124,2019-10-21_21h29.45.501,SurveyExpMetaMem,3.2.3,Win32,60
,,,,,,,,,,,,,,,,,,,,5,1.47300005,5,0.388999939,1,0,1200,1034,1,1199,pester,11124,2019-10-21_21h29.45.501,SurveyExpMetaMem,3.2.3,Win32,60
,,,,,,,,,,,,,,,,,,,,5,0.835000038,1,0.273999929,1,0,1200,364,1,1199,stink,11124,2019-10-21_21h29.45.501,SurveyExpMetaMem,3.2.3,Win32,60
,,,,,,,,,,,,,,,,,,,,1,3.833999872,9,1.947999954,1,0,1200,876,1,1199,politeness,11124,2019-10-21_21h29.45.501,SurveyExpMetaMem,3.2.3,Win32,60
,,,,,,,,,,,,,,,,,,,,5,2.049000025,5,0.32799983,1,0,1200,1111,1,1199,bruise,11124,2019-10-21_21h29.45.501,SurveyExpMetaMem,3.2.3,Win32,60
,,,,,,,,,,,,,,,,,,,,1,1.140999794,5,0.865999937,1,0,1200,162,1,1199,royalty,11124,2019-10-21_21h29.45.501,SurveyExpMetaMem,3.2.3,Win32,60
,,,,,,,,,,,,,,,,,,,,5,1.062000036,5,0.388999939,1,0,1200,284,1,1199,delight,11124,2019-10-21_21h29.45.501,SurveyExpMetaMem,3.2.3,Win32,60
,,,,,,,,,,,,,,,,,,,,9,1.659999847,9,1.320999861,1,0,1200,1,1,1199,fuck,11124,2019-10-21_21h29.45.501,SurveyExpMetaMem,3.2.3,Win32,60
,,,,,,,,,,,,,,,,,,,,1,7.31799984,9,0.922999859,1,0,1200,703,1,1199,book,11124,2019-10-21_21h29.45.501,SurveyExpMetaMem,3.2.3,Win32,60
,,,,,,,,,,,,,,,,,,,,9,1.857000113,5,1.967000008,1,0,1200,654,1,1199,brief,11124,2019-10-21_21h29.45.501,SurveyExpMetaMem,3.2.3,Win32,60
,,,,,,,,,,,,,,,,,,,,9,2.061999798,1,0.927000046,1,0,1200,1181,1,1199,blade,11124,2019-10-21_21h29.45.501,SurveyExpMetaMem,3.2.3,Win32,60
,,,,,,,,,,,,,,,,,,,,9,2.30099988,1,0.563999891,1,0,1200,1146,1,1199,bug,11124,2019-10-21_21h29.45.501,SurveyExpMetaMem,3.2.3,Win32,60
,,,,,,,,,,,,,,,,,,,,1,1.335000038,9,0.839999914,1,0,1200,77,1,1199,adore,11124,2019-10-21_21h29.45.501,SurveyExpMetaMem,3.2.3,Win32,60
,,,,,,,,,,,,,,,,,,,,1,1.766000032,1,0.539000034,1,0,1200,963,1,1199,dreadful,11124,2019-10-21_21h29.45.501,SurveyExpMetaMem,3.2.3,Win32,60
,,,,,,,,,,,,,,,,,,,,1,1.169999838,1,0.264999866,1,0,1200,318,1,1199,disappointment,11124,2019-10-21_21h29.45.501,SurveyExpMetaMem,3.2.3,Win32,60
,,,,,,,,,,,,,,,,,,,,1,1.040999889,9,0.792000055,1,0,1200,878,1,1199,sleep,11124,2019-10-21_21h29.45.501,SurveyExpMetaMem,3.2.3,Win32,60
,,,,,,,,,,,,,,,,,,,,1,1.586999893,1,1.835000038,1,0,1200,392,1,1199,moody,11124,2019-10-21_21h29.45.501,SurveyExpMetaMem,3.2.3,Win32,60
,,,,,,,,,,,,,,,,,,,,5,1.157999754,5,0.55099988,1,0,1200,741,1,1199,wheat,11124,2019-10-21_21h29.45.501,SurveyExpMetaMem,3.2.3,Win32,60
,,,,,,,,,,,,,,,,,,,,5,0.711999893,5,0.20299983,1,0,1200,608,1,1199,carrot,11124,2019-10-21_21h29.45.501,SurveyExpMetaMem,3.2.3,Win32,60
,,,,,,,,,,,,,,,,,,,,1,2.365999699,1,0.657999992,1,0,1200,1041,1,1199,sin,11124,2019-10-21_21h29.45.501,SurveyExpMetaMem,3.2.3,Win32,60
,,,,,,,,,,,,,,,,,,,,1,2.108999968,1,0.421000004,1,0,1200,344,1,1199,pessimistic,11124,2019-10-21_21h29.45.501,SurveyExpMetaMem,3.2.3,Win32,60
,,,,,,,,,,,,,,,,,,,,5,5.434000015,5,0.155999899,1,0,1200,402,1,1199,dismissive,11124,2019-10-21_21h29.45.501,SurveyExpMetaMem,3.2.3,Win32,60
,,,,,,,,,,,,,,,,,,,,5,1.529999733,5,0.177999973,1,0,1200,866,1,1199,haven,11124,2019-10-21_21h29.45.501,SurveyExpMetaMem,3.2.3,Win32,60
,,,,,,,,,,,,,,,,,,,,5,1.605000019,5,0.171999931,1,0,1200,85,1,1199,like,11124,2019-10-21_21h29.45.501,SurveyExpMetaMem,3.2.3,Win32,60
,,,,,,,,,,,,,,,,,,,,9,2.254999876,1,0.470999956,1,0,1200,991,1,1199,harass,11124,2019-10-21_21h29.45.501,SurveyExpMetaMem,3.2.3,Win32,60
,,,,,,,,,,,,,,,,,,,,5,1.359999895,5,0.164999962,1,0,1200,387,1,1199,tax,11124,2019-10-21_21h29.45.501,SurveyExpMetaMem,3.2.3,Win32,60
,,,,,,,,,,,,,,,,,,,,5,1.806999922,5,0.188999891,1,0,1200,797,1,1199,hamburger,11124,2019-10-21_21h29.45.501,SurveyExpMetaMem,3.2.3,Win32,60
,,,,,,,,,,,,,,,,,,,,5,1.154999971,5,0.189999819,1,0,1200,1109,1,1199,germ,11124,2019-10-21_21h29.45.501,SurveyExpMetaMem,3.2.3,Win32,60
,,,,,,,,,,,,,,,,,,,,5,0.761999846,5,0.197999954,1,0,1200,906,1,1199,syphilis,11124,2019-10-21_21h29.45.501,SurveyExpMetaMem,3.2.3,Win32,60
,,,,,,,,,,,,,,,,,,,,5,0.710000038,5,0.232999802,1,0,1200,765,1,1199,candid,11124,2019-10-21_21h29.45.501,SurveyExpMetaMem,3.2.3,Win32,60
,,,,,,,,,,,,,,,,,,,,1,2.999000072,1,0.657000065,1,0,1200,559,1,1199,lazy,11124,2019-10-21_21h29.45.501,SurveyExpMetaMem,3.2.3,Win32,60
,,,,,,,,,,,,,,,,,,,,5,2.517999887,1,0.431999922,1,0,1200,928,1,1199,cruel,11124,2019-10-21_21h29.45.501,SurveyExpMetaMem,3.2.3,Win32,60
,,,,,,,,,,,,,,,,,,,,5,0.96999979,9,0.858999968,1,0,1200,147,1,1199,cure,11124,2019-10-21_21h29.45.501,SurveyExpMetaMem,3.2.3,Win32,60
,,,,,,,,,,,,,,,,,,,,9,3.459000111,1,0.523999929,1,0,1200,1185,1,1199,shotgun,11124,2019-10-21_21h29.45.501,SurveyExpMetaMem,3.2.3,Win32,60
,,,,,,,,,,,,,,,,,,,,5,2.036999941,1,0.825999975,1,0,1200,353,1,1199,blister,11124,2019-10-21_21h29.45.501,SurveyExpMetaMem,3.2.3,Win32,60
,,,,,,,,,,,,,,,,,,,,5,1.520999908,5,1.088999987,1,0,1200,255,1,1199,ass,11124,2019-10-21_21h29.45.501,SurveyExpMetaMem,3.2.3,Win32,60
,,,,,,,,,,,,,,,,,,,,5,9.621000051,5,0.188999891,1,0,1200,792,1,1199,moral,11124,2019-10-21_21h29.45.501,SurveyExpMetaMem,3.2.3,Win32,60
,,,,,,,,,,,,,,,,,,,,5,1.393000126,1,1.379999876,1,0,1200,916,1,1199,starvation,11124,2019-10-21_21h29.45.501,SurveyExpMetaMem,3.2.3,Win32,60
,,,,,,,,,,,,,,,,,,,,9,1.263000011,1,0.895999908,1,0,1200,1128,1,1199,fighting,11124,2019-10-21_21h29.45.501,SurveyExpMetaMem,3.2.3,Win32,60
,,,,,,,,,,,,,,,,,,,,1,2.126999855,1,0.851999998,1,0,1200,458,1,1199,refuse,11124,2019-10-21_21h29.45.501,SurveyExpMetaMem,3.2.3,Win32,60
,,,,,,,,,,,,,,,,,,,,1,1.647000074,1,0.518999815,1,0,1200,343,1,1199,fever,11124,2019-10-21_21h29.45.501,SurveyExpMetaMem,3.2.3,Win32,60
,,,,,,,,,,,,,,,,,,,,9,2.070999861,5,2.968999863,1,0,1200,3,1,1199,nudist,11124,2019-10-21_21h29.45.501,SurveyExpMetaMem,3.2.3,Win32,60
,,,,,,,,,,,,,,,,,,,,5,0.976999998,5,1.009000063,1,0,1200,535,1,1199,ramble,11124,2019-10-21_21h29.45.501,SurveyExpMetaMem,3.2.3,Win32,60
,,,,,,,,,,,,,,,,,,,,9,1.004999876,9,0.774999857,1,0,1200,226,1,1199,prize,11124,2019-10-21_21h29.45.501,SurveyExpMetaMem,3.2.3,Win32,60
,,,,,,,,,,,,,,,,,,,,5,0.961999893,5,0.305000067,1,0,1200,632,1,1199,avenue,11124,2019-10-21_21h29.45.501,SurveyExpMetaMem,3.2.3,Win32,60
,,,,,,,,,,,,,,,,,,,,5,0.957999945,5,0.235999823,1,0,1200,642,1,1199,newspaper,11124,2019-10-21_21h29.45.501,SurveyExpMetaMem,3.2.3,Win32,60
,,,,,,,,,,,,,,,,,,,,1,1.23699975,1,0.602999926,1,0,1200,478,1,1199,numb,11124,2019-10-21_21h29.45.501,SurveyExpMetaMem,3.2.3,Win32,60
,,,,,,,,,,,,,,,,,,,,5,1.81799984,5,0.238999844,1,0,1200,54,1,1199,alcohol,11124,2019-10-21_21h29.45.501,SurveyExpMetaMem,3.2.3,Win32,60
,,,,,,,,,,,,,,,,,,,,5,0.72300005,5,0.195999861,1,0,1200,722,1,1199,consoled,11124,2019-10-21_21h29.45.501,SurveyExpMetaMem,3.2.3,Win32,60
,,,,,,,,,,,,,,,,,,,,5,0.710999727,5,0.221999884,1,0,1200,695,1,1199,teacher,11124,2019-10-21_21h29.45.501,SurveyExpMetaMem,3.2.3,Win32,60
,,,,,,,,,,,,,,,,,,,,9,1.354999781,5,0.995000124,1,0,1200,1188,1,1199,swear,11124,2019-10-21_21h29.45.501,SurveyExpMetaMem,3.2.3,Win32,60
,,,,,,,,,,,,,,,,,,,,5,0.887000084,5,0.187000036,1,0,1200,663,1,1199,trout,11124,2019-10-21_21h29.45.501,SurveyExpMetaMem,3.2.3,Win32,60
,,,,,,,,,,,,,,,,,,,,1,1.237999916,9,0.687999964,1,0,1200,732,1,1199,humble,11124,2019-10-21_21h29.45.501,SurveyExpMetaMem,3.2.3,Win32,60
,,,,,,,,,,,,,,,,,,,,5,1.319000006,5,0.235999823,1,0,1200,1085,1,1199,sever,11124,2019-10-21_21h29.45.501,SurveyExpMetaMem,3.2.3,Win32,60
,,,,,,,,,,,,,,,,,,,,5,0.878999949,5,0.173000097,1,0,1200,662,1,1199,bib,11124,2019-10-21_21h29.45.501,SurveyExpMetaMem,3.2.3,Win32,60
,,,,,,,,,,,,,,,,,,,,9,2.010999918,9,0.698999882,1,0,1200,105,1,1199,curious,11124,2019-10-21_21h29.45.501,SurveyExpMetaMem,3.2.3,Win32,60
,,,,,,,,,,,,,,,,,,,,5,1.151000023,5,0.18599987,1,0,1200,571,1,1199,marrow,11124,2019-10-21_21h29.45.501,SurveyExpMetaMem,3.2.3,Win32,60
,,,,,,,,,,,,,,,,,,,,5,0.792999983,5,0.184999704,1,0,1200,79,1,1199,dazzle,11124,2019-10-21_21h29.45.501,SurveyExpMetaMem,3.2.3,Win32,60
,,,,,,,,,,,,,,,,,,,,9,2.273999929,1,0.642999887,1,0,1200,1032,1,1199,exam,11124,2019-10-21_21h29.45.501,SurveyExpMetaMem,3.2.3,Win32,60
,,,,,,,,,,,,,,,,,,,,5,1.604999781,5,0.16899991,1,0,1200,380,1,1199,expire,11124,2019-10-21_21h29.45.501,SurveyExpMetaMem,3.2.3,Win32,60
,,,,,,,,,,,,,,,,,,,,5,1.261999846,5,0.179000139,1,0,1200,201,1,1199,gorilla,11124,2019-10-21_21h29.45.501,SurveyExpMetaMem,3.2.3,Win32,60
,,,,,,,,,,,,,,,,,,,,5,0.609999895,5,0.173999786,1,0,1200,752,1,1199,milk,11124,2019-10-21_21h29.45.501,SurveyExpMetaMem,3.2.3,Win32,60
,,,,,,,,,,,,,,,,,,,,9,1.276999712,1,0.306999922,1,0,1200,1029,1,1199,abduction,11124,2019-10-21_21h29.45.501,SurveyExpMetaMem,3.2.3,Win32,60
,,,,,,,,,,,,,,,,,,,,9,1.085000038,9,0.489999771,1,0,1200,245,1,1199,beach,11124,2019-10-21_21h29.45.501,SurveyExpMetaMem,3.2.3,Win32,60
,,,,,,,,,,,,,,,,,,,,1,1.323999882,9,0.422999859,1,0,1200,826,1,1199,poem,11124,2019-10-21_21h29.45.501,SurveyExpMetaMem,3.2.3,Win32,60
,,,,,,,,,,,,,,,,,,,,5,1.40199995,5,0.196000099,1,0,1200,549,1,1199,beet,11124,2019-10-21_21h29.45.501,SurveyExpMetaMem,3.2.3,Win32,60
,,,,,,,,,,,,,,,,,,,,1,2.089999914,1,2.103999853,1,0,1200,1140,1,1199,blood,11124,2019-10-21_21h29.45.501,SurveyExpMetaMem,3.2.3,Win32,60
,,,,,,,,,,,,,,,,,,,,5,3.26699996,5,0.243000031,1,0,1200,674,1,1199,fitting,11124,2019-10-21_21h29.45.501,SurveyExpMetaMem,3.2.3,Win32,60
,,,,,,,,,,,,,,,,,,,,9,1.237999916,9,1.421999931,1,0,1200,52,1,1199,dare,11124,2019-10-21_21h29.45.501,SurveyExpMetaMem,3.2.3,Win32,60
,,,,,,,,,,,,,,,,,,,,9,1.774999857,1,2.437999964,1,0,1200,340,1,1199,coward,11124,2019-10-21_21h29.45.501,SurveyExpMetaMem,3.2.3,Win32,60
,,,,,,,,,,,,,,,,,,,,1,3.037999868,9,1.029000044,1,0,1200,762,1,1199,orchestra,11124,2019-10-21_21h29.45.501,SurveyExpMetaMem,3.2.3,Win32,60
,,,,,,,,,,,,,,,,,,,,9,8.972999811,1,0.657999992,1,0,1200,150,1,1199,vodka,11124,2019-10-21_21h29.45.501,SurveyExpMetaMem,3.2.3,Win32,60
,,,,,,,,,,,,,,,,,,,,1,2.99000001,9,0.578000069,1,0,1200,890,1,1199,carefree,11124,2019-10-21_21h29.45.501,SurveyExpMetaMem,3.2.3,Win32,60
,,,,,,,,,,,,,,,,,,,,5,2.568999767,5,0.20600009,1,0,1200,100,1,1199,intense,11124,2019-10-21_21h29.45.501,SurveyExpMetaMem,3.2.3,Win32,60
,,,,,,,,,,,,,,,,,,,,5,0.743999958,5,0.203000069,1,0,1200,381,1,1199,sloppy,11124,2019-10-21_21h29.45.501,SurveyExpMetaMem,3.2.3,Win32,60
,,,,,,,,,,,,,,,,,,,,9,1.125999928,1,0.760999918,1,0,1200,954,1,1199,hostage,11124,2019-10-21_21h29.45.501,SurveyExpMetaMem,3.2.3,Win32,60
,,,,,,,,,,,,,,,,,,,,5,1.036999702,5,0.177999973,1,0,1200,1173,1,1199,lurk,11124,2019-10-21_21h29.45.501,SurveyExpMetaMem,3.2.3,Win32,60
,,,,,,,,,,,,,,,,,,,,5,0.589999914,5,0.209000111,1,0,1200,1124,1,1199,seize,11124,2019-10-21_21h29.45.501,SurveyExpMetaMem,3.2.3,Win32,60
,,,,,,,,,,,,,,,,,,,,5,0.802999973,5,0.172999859,1,0,1200,63,1,1199,clothes,11124,2019-10-21_21h29.45.501,SurveyExpMetaMem,3.2.3,Win32,60
,,,,,,,,,,,,,,,,,,,,5,0.719000101,5,0.184999943,1,0,1200,176,1,1199,champ,11124,2019-10-21_21h29.45.501,SurveyExpMetaMem,3.2.3,Win32,60
,,,,,,,,,,,,,,,,,,,,5,0.710000038,5,0.243999958,1,0,1200,1050,1,1199,scorn,11124,2019-10-21_21h29.45.501,SurveyExpMetaMem,3.2.3,Win32,60
,,,,,,,,,,,,,,,,,,,,5,0.662999868,5,0.197999716,1,0,1200,819,1,1199,sheep,11124,2019-10-21_21h29.45.501,SurveyExpMetaMem,3.2.3,Win32,60
,,,,,,,,,,,,,,,,,,,,5,0.752000093,5,0.228999853,1,0,1200,504,1,1199,cane,11124,2019-10-21_21h29.45.501,SurveyExpMetaMem,3.2.3,Win32,60
,,,,,,,,,,,,,,,,,,,,5,0.694000006,5,0.215999842,1,0,1200,596,1,1199,factory,11124,2019-10-21_21h29.45.501,SurveyExpMetaMem,3.2.3,Win32,60
,,,,,,,,,,,,,,,,,,,,5,0.812999964,5,0.229999781,1,0,1200,360,1,1199,dandruff,11124,2019-10-21_21h29.45.501,SurveyExpMetaMem,3.2.3,Win32,60
,,,,,,,,,,,,,,,,,,,,5,0.871999979,5,0.228999853,1,0,1200,777,1,1199,casual,11124,2019-10-21_21h29.45.501,SurveyExpMetaMem,3.2.3,Win32,60
,,,,,,,,,,,,,,,,,,,,1,1.486999989,1,0.508999825,1,0,1200,384,1,1199,idiot,11124,2019-10-21_21h29.45.501,SurveyExpMetaMem,3.2.3,Win32,60
,,,,,,,,,,,,,,,,,,,,5,1.484999895,5,0.193999767,1,0,1200,1158,1,1199,dentist,11124,2019-10-21_21h29.45.501,SurveyExpMetaMem,3.2.3,Win32,60
,,,,,,,,,,,,,,,,,,,,5,1.019999743,5,0.203999996,1,0,1200,611,1,1199,herring,11124,2019-10-21_21h29.45.501,SurveyExpMetaMem,3.2.3,Win32,60
,,,,,,,,,,,,,,,,,,,,5,0.619999886,5,0.184999943,1,0,1200,532,1,1199,recede,11124,2019-10-21_21h29.45.501,SurveyExpMetaMem,3.2.3,Win32,60
,,,,,,,,,,,,,,,,,,,,1,2.183999777,1,0.467999935,1,0,1200,422,1,1199,doubtful,11124,2019-10-21_21h29.45.501,SurveyExpMetaMem,3.2.3,Win32,60
,,,,,,,,,,,,,,,,,,,,5,1.040999889,5,0.18599987,1,0,1200,48,1,1199,excellence,11124,2019-10-21_21h29.45.501,SurveyExpMetaMem,3.2.3,Win32,60
,,,,,,,,,,,,,,,,,,,,5,0.924999952,5,0.195999861,1,0,1200,1153,1,1199,mangle,11124,2019-10-21_21h29.45.501,SurveyExpMetaMem,3.2.3,Win32,60
,,,,,,,,,,,,,,,,,,,,9,1.485999823,1,0.335000038,1,0,1200,911,1,1199,rejection,11124,2019-10-21_21h29.45.501,SurveyExpMetaMem,3.2.3,Win32,60
,,,,,,,,,,,,,,,,,,,,1,1.167999983,1,0.356999874,1,0,1200,309,1,1199,homeless,11124,2019-10-21_21h29.45.501,SurveyExpMetaMem,3.2.3,Win32,60
,,,,,,,,,,,,,,,,,,,,5,1.433999777,5,0.172999859,1,0,1200,675,1,1199,golfer,11124,2019-10-21_21h29.45.501,SurveyExpMetaMem,3.2.3,Win32,60
,,,,,,,,,,,,,,,,,,,,1,4.601999998,9,0.663999796,1,0,1200,173,1,1199,hope,11124,2019-10-21_21h29.45.501,SurveyExpMetaMem,3.2.3,Win32,60
,,,,,,,,,,,,,,,,,,,,9,1.434999943,9,0.256999969,1,0,1200,217,1,1199,bravery,11124,2019-10-21_21h29.45.501,SurveyExpMetaMem,3.2.3,Win32,60
,,,,,,,,,,,,,,,,,,,,5,1.328999996,5,0.20600009,1,0,1200,265,1,1199,invent,11124,2019-10-21_21h29.45.501,SurveyExpMetaMem,3.2.3,Win32,60
,,,,,,,,,,,,,,,,,,,,5,1.847999811,5,0.203999996,1,0,1200,1135,1,1199,thirsty,11124,2019-10-21_21h29.45.501,SurveyExpMetaMem,3.2.3,Win32,60
,,,,,,,,,,,,,,,,,,,,1,4.136999846,1,0.382999897,1,0,1200,773,1,1199,rational,11124,2019-10-21_21h29.45.501,SurveyExpMetaMem,3.2.3,Win32,60
,,,,,,,,,,,,,,,,,,,,9,4.717999935,9,0.638999939,1,0,1200,243,1,1199,fame,11124,2019-10-21_21h29.45.501,SurveyExpMetaMem,3.2.3,Win32,60
,,,,,,,,,,,,,,,,,,,,9,2.282999992,1,0.540999889,1,0,1200,574,1,1199,distracted,11124,2019-10-21_21h29.45.501,SurveyExpMetaMem,3.2.3,Win32,60
