mouse_4.x,mouse_4.y,mouse_4.leftButton,mouse_4.midButton,mouse_4.rightButton,mouse.x,mouse.y,mouse.leftButton,mouse.midButton,mouse.rightButton,mouse_2.x,mouse_2.y,mouse_2.leftButton,mouse_2.midButton,mouse_2.rightButton,mouse_3.x,mouse_3.y,mouse_3.leftButton,mouse_3.midButton,mouse_3.rightButton,A_key_resp.keys,A_key_resp.rt,key_resp.keys,key_resp.rt,trials.thisRepN,trials.thisTrialN,trials.thisN,trials.thisIndex,trials.ran,trials.order,word,ParticipantID,date,expName,psychopyVersion,OS,frameRate
0.15234375,-0.25,1,0,0,0.15234375,-0.25,1,0,0,0.15234375,-0.25,1,0,0,0.15234375,-0.25,1,0,0,1,22.10100007,5,49.92200017,1,0,1200,6,1,1199,chest,11113,2019-10-21_17h03.34.918,SurveyExpMetaMem,3.2.3,Win32,60
,,,,,,,,,,,,,,,,,,,,7,7.360000134,7,5.827000141,1,0,1200,182,1,1199,genius,11113,2019-10-21_17h03.34.918,SurveyExpMetaMem,3.2.3,Win32,60
,,,,,,,,,,,,,,,,,,,,1,25.97199988,5,4.662999868,1,0,1200,600,1,1199,parlor,11113,2019-10-21_17h03.34.918,SurveyExpMetaMem,3.2.3,Win32,60
,,,,,,,,,,,,,,,,,,,,2,5.18900013,5,6.748000145,1,0,1200,425,1,1199,crutch,11113,2019-10-21_17h03.34.918,SurveyExpMetaMem,3.2.3,Win32,60
,,,,,,,,,,,,,,,,,,,,5,12.8829999,3,2.531000137,1,0,1200,514,1,1199,defer,11113,2019-10-21_17h03.34.918,SurveyExpMetaMem,3.2.3,Win32,60
,,,,,,,,,,,,,,,,,,,,7,4.854000092,3,3.677999973,1,0,1200,1053,1,1199,surgery,11113,2019-10-21_17h03.34.918,SurveyExpMetaMem,3.2.3,Win32,60
,,,,,,,,,,,,,,,,,,,,1,3.888999939,5,3.809000015,1,0,1200,608,1,1199,carrot,11113,2019-10-21_17h03.34.918,SurveyExpMetaMem,3.2.3,Win32,60
,,,,,,,,,,,,,,,,,,,,6,26.53900003,6,2.389999866,1,0,1200,497,1,1199,pungent,11113,2019-10-21_17h03.34.918,SurveyExpMetaMem,3.2.3,Win32,60
,,,,,,,,,,,,,,,,,,,,4,6.361000061,2,3.894000053,1,0,1200,384,1,1199,idiot,11113,2019-10-21_17h03.34.918,SurveyExpMetaMem,3.2.3,Win32,60
,,,,,,,,,,,,,,,,,,,,7,3.921999931,8,1.910000086,1,0,1200,788,1,1199,cook,11113,2019-10-21_17h03.34.918,SurveyExpMetaMem,3.2.3,Win32,60
,,,,,,,,,,,,,,,,,,,,7,3.655999899,7,2.31099987,1,0,1200,95,1,1199,giggle,11113,2019-10-21_17h03.34.918,SurveyExpMetaMem,3.2.3,Win32,60
,,,,,,,,,,,,,,,,,,,,6,18.20799994,2,2.175000191,1,0,1200,1025,1,1199,deadly,11113,2019-10-21_17h03.34.918,SurveyExpMetaMem,3.2.3,Win32,60
,,,,,,,,,,,,,,,,,,,,6,41.1400001,3,2.842000008,1,0,1200,1101,1,1199,scary,11113,2019-10-21_17h03.34.918,SurveyExpMetaMem,3.2.3,Win32,60
,,,,,,,,,,,,,,,,,,,,7,3.039000034,5,5.443000078,1,0,1200,118,1,1199,conquer,11113,2019-10-21_17h03.34.918,SurveyExpMetaMem,3.2.3,Win32,60
,,,,,,,,,,,,,,,,,,,,1,3.187000036,5,3.25,1,0,1200,645,1,1199,telescope,11113,2019-10-21_17h03.34.918,SurveyExpMetaMem,3.2.3,Win32,60
,,,,,,,,,,,,,,,,,,,,6,5.756000042,2,0.294000149,1,0,1200,66,1,1199,zest,11113,2019-10-21_17h03.34.918,SurveyExpMetaMem,3.2.3,Win32,60
,,,,,,,,,,,,,,,,,,,,1,6.72300005,5,3.193000078,1,0,1200,469,1,1199,resent,11113,2019-10-21_17h03.34.918,SurveyExpMetaMem,3.2.3,Win32,60
,,,,,,,,,,,,,,,,,,,,6,5.308000088,4,3.342000008,1,0,1200,212,1,1199,belief,11113,2019-10-21_17h03.34.918,SurveyExpMetaMem,3.2.3,Win32,60
,,,,,,,,,,,,,,,,,,,,1,5.052000046,5,3.276000023,1,0,1200,791,1,1199,shoes,11113,2019-10-21_17h03.34.918,SurveyExpMetaMem,3.2.3,Win32,60
,,,,,,,,,,,,,,,,,,,,1,2.373000145,5,0.565000057,1,0,1200,874,1,1199,butterfly,11113,2019-10-21_17h03.34.918,SurveyExpMetaMem,3.2.3,Win32,60
,,,,,,,,,,,,,,,,,,,,7,4.925000191,3,4.993000031,1,0,1200,5,1,1199,drunk,11113,2019-10-21_17h03.34.918,SurveyExpMetaMem,3.2.3,Win32,60
,,,,,,,,,,,,,,,,,,,,7,7.409000158,6,1.794999838,1,0,1200,165,1,1199,sizzle,11113,2019-10-21_17h03.34.918,SurveyExpMetaMem,3.2.3,Win32,60
,,,,,,,,,,,,,,,,,,,,1,2.220999956,5,0.888999939,1,0,1200,689,1,1199,land,11113,2019-10-21_17h03.34.918,SurveyExpMetaMem,3.2.3,Win32,60
,,,,,,,,,,,,,,,,,,,,7,4.357000113,2,3.756000042,1,0,1200,1133,1,1199,slip,11113,2019-10-21_17h03.34.918,SurveyExpMetaMem,3.2.3,Win32,60
,,,,,,,,,,,,,,,,,,,,4,3.862999916,7,2.126999855,1,0,1200,869,1,1199,assure,11113,2019-10-21_17h03.34.918,SurveyExpMetaMem,3.2.3,Win32,60
,,,,,,,,,,,,,,,,,,,,6,5.056999922,2,3.677000046,1,0,1200,396,1,1199,unpopular,11113,2019-10-21_17h03.34.918,SurveyExpMetaMem,3.2.3,Win32,60
,,,,,,,,,,,,,,,,,,,,8,3.174999952,3,5.29399991,1,0,1200,253,1,1199,soldier,11113,2019-10-21_17h03.34.918,SurveyExpMetaMem,3.2.3,Win32,60
,,,,,,,,,,,,,,,,,,,,7,16.10300016,7,2.594000101,1,0,1200,32,1,1199,festival,11113,2019-10-21_17h03.34.918,SurveyExpMetaMem,3.2.3,Win32,60
,,,,,,,,,,,,,,,,,,,,6,5.610999823,2,0.742000103,1,0,1200,317,1,1199,cry,11113,2019-10-21_17h03.34.918,SurveyExpMetaMem,3.2.3,Win32,60
,,,,,,,,,,,,,,,,,,,,7,4.130000114,8,9.098999977,1,0,1200,875,1,1199,fluffy,11113,2019-10-21_17h03.34.918,SurveyExpMetaMem,3.2.3,Win32,60
,,,,,,,,,,,,,,,,,,,,7,15.57500005,3,4.008000135,1,0,1200,103,1,1199,conquest,11113,2019-10-21_17h03.34.918,SurveyExpMetaMem,3.2.3,Win32,60
,,,,,,,,,,,,,,,,,,,,7,8.672999859,8,2.610999823,1,0,1200,183,1,1199,congratulate,11113,2019-10-21_17h03.34.918,SurveyExpMetaMem,3.2.3,Win32,60
,,,,,,,,,,,,,,,,,,,,6,3.460000038,2,2.286999941,1,0,1200,429,1,1199,cough,11113,2019-10-21_17h03.34.918,SurveyExpMetaMem,3.2.3,Win32,60
,,,,,,,,,,,,,,,,,,,,1,2.858999968,5,5.328999996,1,0,1200,683,1,1199,scarf,11113,2019-10-21_17h03.34.918,SurveyExpMetaMem,3.2.3,Win32,60
,,,,,,,,,,,,,,,,,,,,5,3.124000072,8,6.526000023,1,0,1200,90,1,1199,satisfaction,11113,2019-10-21_17h03.34.918,SurveyExpMetaMem,3.2.3,Win32,60
,,,,,,,,,,,,,,,,,,,,1,2.505000114,5,0.503000021,1,0,1200,786,1,1199,afternoon,11113,2019-10-21_17h03.34.918,SurveyExpMetaMem,3.2.3,Win32,60
,,,,,,,,,,,,,,,,,,,,7,2.154000044,1,6.512000084,1,0,1200,980,1,1199,liar,11113,2019-10-21_17h03.34.918,SurveyExpMetaMem,3.2.3,Win32,60
,,,,,,,,,,,,,,,,,,,,6,4.989000082,5,2.829999924,1,0,1200,134,1,1199,dollar,11113,2019-10-21_17h03.34.918,SurveyExpMetaMem,3.2.3,Win32,60
,,,,,,,,,,,,,,,,,,,,1,2.538000107,5,0.846999884,1,0,1200,596,1,1199,factory,11113,2019-10-21_17h03.34.918,SurveyExpMetaMem,3.2.3,Win32,60
,,,,,,,,,,,,,,,,,,,,1,2.675000191,7,7.261000156,1,0,1200,555,1,1199,school,11113,2019-10-21_17h03.34.918,SurveyExpMetaMem,3.2.3,Win32,60
,,,,,,,,,,,,,,,,,,,,6,4.190000057,2,2.81099987,1,0,1200,1065,1,1199,slap,11113,2019-10-21_17h03.34.918,SurveyExpMetaMem,3.2.3,Win32,60
,,,,,,,,,,,,,,,,,,,,3,3.674999952,3,10.75800014,1,0,1200,104,1,1199,freeway,11113,2019-10-21_17h03.34.918,SurveyExpMetaMem,3.2.3,Win32,60
,,,,,,,,,,,,,,,,,,,,8,5.187000036,7,2.138000011,1,0,1200,1061,1,1199,difficult,11113,2019-10-21_17h03.34.918,SurveyExpMetaMem,3.2.3,Win32,60
,,,,,,,,,,,,,,,,,,,,1,3.003999949,5,1.130000114,1,0,1200,551,1,1199,coal,11113,2019-10-21_17h03.34.918,SurveyExpMetaMem,3.2.3,Win32,60
,,,,,,,,,,,,,,,,,,,,6,2.092000246,4,3.52699995,1,0,1200,1044,1,1199,lost,11113,2019-10-21_17h03.34.918,SurveyExpMetaMem,3.2.3,Win32,60
,,,,,,,,,,,,,,,,,,,,5,4.944000006,3,3.075000048,1,0,1200,1022,1,1199,creepy,11113,2019-10-21_17h03.34.918,SurveyExpMetaMem,3.2.3,Win32,60
,,,,,,,,,,,,,,,,,,,,4,13.22099996,3,5.687999964,1,0,1200,390,1,1199,impair,11113,2019-10-21_17h03.34.918,SurveyExpMetaMem,3.2.3,Win32,60
,,,,,,,,,,,,,,,,,,,,6,9.496000051,2,4.109000206,1,0,1200,372,1,1199,inferior,11113,2019-10-21_17h03.34.918,SurveyExpMetaMem,3.2.3,Win32,60
,,,,,,,,,,,,,,,,,,,,1,2.263999939,5,1.506000042,1,0,1200,223,1,1199,fashion,11113,2019-10-21_17h03.34.918,SurveyExpMetaMem,3.2.3,Win32,60
,,,,,,,,,,,,,,,,,,,,7,2.222999811,2,3.281000137,1,0,1200,319,1,1199,malaria,11113,2019-10-21_17h03.34.918,SurveyExpMetaMem,3.2.3,Win32,60
,,,,,,,,,,,,,,,,,,,,8,2.93900013,5,3.598999977,1,0,1200,568,1,1199,therapy,11113,2019-10-21_17h03.34.918,SurveyExpMetaMem,3.2.3,Win32,60
,,,,,,,,,,,,,,,,,,,,1,2.361000061,5,0.328000069,1,0,1200,174,1,1199,snow,11113,2019-10-21_17h03.34.918,SurveyExpMetaMem,3.2.3,Win32,60
,,,,,,,,,,,,,,,,,,,,4,9.813000202,5,3.556999922,1,0,1200,73,1,1199,rhythm,11113,2019-10-21_17h03.34.918,SurveyExpMetaMem,3.2.3,Win32,60
,,,,,,,,,,,,,,,,,,,,4,8.371000051,3,2.072000027,1,0,1200,421,1,1199,stale,11113,2019-10-21_17h03.34.918,SurveyExpMetaMem,3.2.3,Win32,60
,,,,,,,,,,,,,,,,,,,,7,3.941000223,3,2.948999882,1,0,1200,1149,1,1199,fight,11113,2019-10-21_17h03.34.918,SurveyExpMetaMem,3.2.3,Win32,60
,,,,,,,,,,,,,,,,,,,,4,3.676000118,2,4.317000151,1,0,1200,385,1,1199,tiresome,11113,2019-10-21_17h03.34.918,SurveyExpMetaMem,3.2.3,Win32,60
,,,,,,,,,,,,,,,,,,,,6,5.958000183,3,4.242000103,1,0,1200,945,1,1199,demon,11113,2019-10-21_17h03.34.918,SurveyExpMetaMem,3.2.3,Win32,60
,,,,,,,,,,,,,,,,,,,,5,13.84099984,5,3.445999861,1,0,1200,823,1,1199,nourish,11113,2019-10-21_17h03.34.918,SurveyExpMetaMem,3.2.3,Win32,60
,,,,,,,,,,,,,,,,,,,,1,3.095000029,5,0.447000027,1,0,1200,603,1,1199,mane,11113,2019-10-21_17h03.34.918,SurveyExpMetaMem,3.2.3,Win32,60
,,,,,,,,,,,,,,,,,,,,5,10.81999993,5,1.243999958,1,0,1200,1075,1,1199,apprehension,11113,2019-10-21_17h03.34.918,SurveyExpMetaMem,3.2.3,Win32,60
,,,,,,,,,,,,,,,,,,,,7,2.887000084,5,5.29399991,1,0,1200,1,1,1199,fuck,11113,2019-10-21_17h03.34.918,SurveyExpMetaMem,3.2.3,Win32,60
,,,,,,,,,,,,,,,,,,,,4,4.123000145,2,1.559999943,1,0,1200,392,1,1199,moody,11113,2019-10-21_17h03.34.918,SurveyExpMetaMem,3.2.3,Win32,60
,,,,,,,,,,,,,,,,,,,,5,4.253000021,7,7.725999832,1,0,1200,863,1,1199,fireplace,11113,2019-10-21_17h03.34.918,SurveyExpMetaMem,3.2.3,Win32,60
,,,,,,,,,,,,,,,,,,,,6,2.809000015,3,1.495999813,1,0,1200,1117,1,1199,court,11113,2019-10-21_17h03.34.918,SurveyExpMetaMem,3.2.3,Win32,60
,,,,,,,,,,,,,,,,,,,,5,7.971000195,5,3.295000076,1,0,1200,252,1,1199,infatuated,11113,2019-10-21_17h03.34.918,SurveyExpMetaMem,3.2.3,Win32,60
,,,,,,,,,,,,,,,,,,,,5,5.957999945,3,1.476999998,1,0,1200,1129,1,1199,spanking,11113,2019-10-21_17h03.34.918,SurveyExpMetaMem,3.2.3,Win32,60
,,,,,,,,,,,,,,,,,,,,7,3.194000006,2,2.578000069,1,0,1200,930,1,1199,poison,11113,2019-10-21_17h03.34.918,SurveyExpMetaMem,3.2.3,Win32,60
,,,,,,,,,,,,,,,,,,,,5,5.487999916,5,2.559999943,1,0,1200,1176,1,1199,vampire,11113,2019-10-21_17h03.34.918,SurveyExpMetaMem,3.2.3,Win32,60
,,,,,,,,,,,,,,,,,,,,5,7.238999844,3,3.643000126,1,0,1200,1142,1,1199,disturb,11113,2019-10-21_17h03.34.918,SurveyExpMetaMem,3.2.3,Win32,60
,,,,,,,,,,,,,,,,,,,,8,3.506999969,8,2.07400012,1,0,1200,109,1,1199,new,11113,2019-10-21_17h03.34.918,SurveyExpMetaMem,3.2.3,Win32,60
,,,,,,,,,,,,,,,,,,,,8,38.78900003,7,1.976000071,1,0,1200,821,1,1199,cottage,11113,2019-10-21_17h03.34.918,SurveyExpMetaMem,3.2.3,Win32,60
,,,,,,,,,,,,,,,,,,,,6,4.725000143,6,2.128000021,1,0,1200,1105,1,1199,flee,11113,2019-10-21_17h03.34.918,SurveyExpMetaMem,3.2.3,Win32,60
,,,,,,,,,,,,,,,,,,,,4,5.809000015,4,1.698999882,1,0,1200,405,1,1199,fatigued,11113,2019-10-21_17h03.34.918,SurveyExpMetaMem,3.2.3,Win32,60
,,,,,,,,,,,,,,,,,,,,6,8.420000076,4,14.36400008,1,0,1200,445,1,1199,bleak,11113,2019-10-21_17h03.34.918,SurveyExpMetaMem,3.2.3,Win32,60
,,,,,,,,,,,,,,,,,,,,6,3.124000072,6,2.640000105,1,0,1200,264,1,1199,thong,11113,2019-10-21_17h03.34.918,SurveyExpMetaMem,3.2.3,Win32,60
,,,,,,,,,,,,,,,,,,,,2,5.805000067,5,2.142999887,1,0,1200,938,1,1199,seasick,11113,2019-10-21_17h03.34.918,SurveyExpMetaMem,3.2.3,Win32,60
,,,,,,,,,,,,,,,,,,,,6,4.559000015,5,75.76099992,1,0,1200,811,1,1199,tenderness,11113,2019-10-21_17h03.34.918,SurveyExpMetaMem,3.2.3,Win32,60
,,,,,,,,,,,,,,,,,,,,1,4.552000046,5,0.215999842,1,0,1200,220,1,1199,reef,11113,2019-10-21_17h03.34.918,SurveyExpMetaMem,3.2.3,Win32,60
,,,,,,,,,,,,,,,,,,,,1,3.180000067,6,4.494999886,1,0,1200,145,1,1199,me,11113,2019-10-21_17h03.34.918,SurveyExpMetaMem,3.2.3,Win32,60
,,,,,,,,,,,,,,,,,,,,1,1.573000193,5,0.776000023,1,0,1200,671,1,1199,windmill,11113,2019-10-21_17h03.34.918,SurveyExpMetaMem,3.2.3,Win32,60
,,,,,,,,,,,,,,,,,,,,1,2.35800004,5,0.328000069,1,0,1200,801,1,1199,noon,11113,2019-10-21_17h03.34.918,SurveyExpMetaMem,3.2.3,Win32,60
,,,,,,,,,,,,,,,,,,,,3,46.25200009,5,3.927000046,1,0,1200,638,1,1199,quench,11113,2019-10-21_17h03.34.918,SurveyExpMetaMem,3.2.3,Win32,60
,,,,,,,,,,,,,,,,,,,,7,5.230000019,1,1.862000227,1,0,1200,1036,1,1199,anxiety,11113,2019-10-21_17h03.34.918,SurveyExpMetaMem,3.2.3,Win32,60
,,,,,,,,,,,,,,,,,,,,2,14.13700008,5,1.777999878,1,0,1200,571,1,1199,marrow,11113,2019-10-21_17h03.34.918,SurveyExpMetaMem,3.2.3,Win32,60
,,,,,,,,,,,,,,,,,,,,9,3.769999981,9,1.874000072,1,0,1200,692,1,1199,medicine,11113,2019-10-21_17h03.34.918,SurveyExpMetaMem,3.2.3,Win32,60
,,,,,,,,,,,,,,,,,,,,6,9.614000082,5,2.860000134,1,0,1200,98,1,1199,affection,11113,2019-10-21_17h03.34.918,SurveyExpMetaMem,3.2.3,Win32,60
,,,,,,,,,,,,,,,,,,,,7,3.944000006,7,1.43200016,1,0,1200,214,1,1199,revive,11113,2019-10-21_17h03.34.918,SurveyExpMetaMem,3.2.3,Win32,60
,,,,,,,,,,,,,,,,,,,,6,4.204999924,7,2.894000053,1,0,1200,227,1,1199,musician,11113,2019-10-21_17h03.34.918,SurveyExpMetaMem,3.2.3,Win32,60
,,,,,,,,,,,,,,,,,,,,3,2.607999802,5,12.53999996,1,0,1200,132,1,1199,silly,11113,2019-10-21_17h03.34.918,SurveyExpMetaMem,3.2.3,Win32,60
,,,,,,,,,,,,,,,,,,,,1,2.623999834,5,1.124000072,1,0,1200,766,1,1199,flag,11113,2019-10-21_17h03.34.918,SurveyExpMetaMem,3.2.3,Win32,60
,,,,,,,,,,,,,,,,,,,,4,9.743000031,4,3.594000101,1,0,1200,306,1,1199,gloom,11113,2019-10-21_17h03.34.918,SurveyExpMetaMem,3.2.3,Win32,60
,,,,,,,,,,,,,,,,,,,,5,6.506000042,4,2.118000031,1,0,1200,1122,1,1199,gossip,11113,2019-10-21_17h03.34.918,SurveyExpMetaMem,3.2.3,Win32,60
,,,,,,,,,,,,,,,,,,,,3,5.025000095,5,1.832000017,1,0,1200,456,1,1199,piss,11113,2019-10-21_17h03.34.918,SurveyExpMetaMem,3.2.3,Win32,60
,,,,,,,,,,,,,,,,,,,,7,2.971000195,2,1.401000023,1,0,1200,954,1,1199,hostage,11113,2019-10-21_17h03.34.918,SurveyExpMetaMem,3.2.3,Win32,60
,,,,,,,,,,,,,,,,,,,,1,2.536000013,5,0.562000036,1,0,1200,512,1,1199,insect,11113,2019-10-21_17h03.34.918,SurveyExpMetaMem,3.2.3,Win32,60
,,,,,,,,,,,,,,,,,,,,6,8.522000074,5,1.565999985,1,0,1200,399,1,1199,withdrawn,11113,2019-10-21_17h03.34.918,SurveyExpMetaMem,3.2.3,Win32,60
,,,,,,,,,,,,,,,,,,,,3,17.65999985,4,2.394000053,1,0,1200,453,1,1199,prude,11113,2019-10-21_17h03.34.918,SurveyExpMetaMem,3.2.3,Win32,60
,,,,,,,,,,,,,,,,,,,,1,2.107999802,5,0.298000097,1,0,1200,760,1,1199,shrimp,11113,2019-10-21_17h03.34.918,SurveyExpMetaMem,3.2.3,Win32,60
,,,,,,,,,,,,,,,,,,,,1,3.676000118,5,1.065000057,1,0,1200,886,1,1199,sunflower,11113,2019-10-21_17h03.34.918,SurveyExpMetaMem,3.2.3,Win32,60
,,,,,,,,,,,,,,,,,,,,7,4.355999947,4,10.39699984,1,0,1200,150,1,1199,vodka,11113,2019-10-21_17h03.34.918,SurveyExpMetaMem,3.2.3,Win32,60
,,,,,,,,,,,,,,,,,,,,1,16.96199989,5,0.796000004,1,0,1200,772,1,1199,ornament,11113,2019-10-21_17h03.34.918,SurveyExpMetaMem,3.2.3,Win32,60
,,,,,,,,,,,,,,,,,,,,1,2.24000001,5,0.972999811,1,0,1200,219,1,1199,know,11113,2019-10-21_17h03.34.918,SurveyExpMetaMem,3.2.3,Win32,60
,,,,,,,,,,,,,,,,,,,,3,3.294000149,4,3.42599988,1,0,1200,1181,1,1199,blade,11113,2019-10-21_17h03.34.918,SurveyExpMetaMem,3.2.3,Win32,60
,,,,,,,,,,,,,,,,,,,,1,3.778000116,7,2.21600008,1,0,1200,542,1,1199,loose,11113,2019-10-21_17h03.34.918,SurveyExpMetaMem,3.2.3,Win32,60
,,,,,,,,,,,,,,,,,,,,4,10.65400004,7,4.496000051,1,0,1200,414,1,1199,pity,11113,2019-10-21_17h03.34.918,SurveyExpMetaMem,3.2.3,Win32,60
,,,,,,,,,,,,,,,,,,,,8,4.978999853,7,1.799999952,1,0,1200,185,1,1199,flirt,11113,2019-10-21_17h03.34.918,SurveyExpMetaMem,3.2.3,Win32,60
,,,,,,,,,,,,,,,,,,,,7,2.897000074,7,1.256000042,1,0,1200,42,1,1199,accomplish,11113,2019-10-21_17h03.34.918,SurveyExpMetaMem,3.2.3,Win32,60
,,,,,,,,,,,,,,,,,,,,2,2.150000095,5,4.909000158,1,0,1200,808,1,1199,violinist,11113,2019-10-21_17h03.34.918,SurveyExpMetaMem,3.2.3,Win32,60
,,,,,,,,,,,,,,,,,,,,7,2.849000216,7,2.646000147,1,0,1200,443,1,1199,incorrect,11113,2019-10-21_17h03.34.918,SurveyExpMetaMem,3.2.3,Win32,60
,,,,,,,,,,,,,,,,,,,,7,18.35300016,2,1.164999962,1,0,1200,972,1,1199,homicide,11113,2019-10-21_17h03.34.918,SurveyExpMetaMem,3.2.3,Win32,60
,,,,,,,,,,,,,,,,,,,,7,2.522000074,2,0.246999979,1,0,1200,940,1,1199,war,11113,2019-10-21_17h03.34.918,SurveyExpMetaMem,3.2.3,Win32,60
,,,,,,,,,,,,,,,,,,,,5,5.463999987,5,7.045000076,1,0,1200,754,1,1199,reflection,11113,2019-10-21_17h03.34.918,SurveyExpMetaMem,3.2.3,Win32,60
,,,,,,,,,,,,,,,,,,,,7,4.57400012,7,7.661000013,1,0,1200,86,1,1199,talent,11113,2019-10-21_17h03.34.918,SurveyExpMetaMem,3.2.3,Win32,60
,,,,,,,,,,,,,,,,,,,,7,12.02600002,7,1.555000067,1,0,1200,271,1,1199,applaud,11113,2019-10-21_17h03.34.918,SurveyExpMetaMem,3.2.3,Win32,60
,,,,,,,,,,,,,,,,,,,,7,11.52200007,7,1.680000067,1,0,1200,133,1,1199,prosperous,11113,2019-10-21_17h03.34.918,SurveyExpMetaMem,3.2.3,Win32,60
,,,,,,,,,,,,,,,,,,,,3,10.20200014,4,1.559000015,1,0,1200,305,1,1199,frown,11113,2019-10-21_17h03.34.918,SurveyExpMetaMem,3.2.3,Win32,60
,,,,,,,,,,,,,,,,,,,,1,2.521999836,5,1.192000151,1,0,1200,602,1,1199,vegetable,11113,2019-10-21_17h03.34.918,SurveyExpMetaMem,3.2.3,Win32,60
,,,,,,,,,,,,,,,,,,,,2,4.254000187,5,4.562000036,1,0,1200,526,1,1199,dry,11113,2019-10-21_17h03.34.918,SurveyExpMetaMem,3.2.3,Win32,60
,,,,,,,,,,,,,,,,,,,,1,9.726999998,5,0.778000116,1,0,1200,632,1,1199,avenue,11113,2019-10-21_17h03.34.918,SurveyExpMetaMem,3.2.3,Win32,60
,,,,,,,,,,,,,,,,,,,,3,2.125999928,3,1.495000124,1,0,1200,1059,1,1199,harsh,11113,2019-10-21_17h03.34.918,SurveyExpMetaMem,3.2.3,Win32,60
,,,,,,,,,,,,,,,,,,,,7,2.375,8,1.111999989,1,0,1200,186,1,1199,holiday,11113,2019-10-21_17h03.34.918,SurveyExpMetaMem,3.2.3,Win32,60
,,,,,,,,,,,,,,,,,,,,7,10.40400004,7,1.51300025,1,0,1200,647,1,1199,accord,11113,2019-10-21_17h03.34.918,SurveyExpMetaMem,3.2.3,Win32,60
,,,,,,,,,,,,,,,,,,,,6,2.447000027,7,1.392000198,1,0,1200,877,1,1199,bless,11113,2019-10-21_17h03.34.918,SurveyExpMetaMem,3.2.3,Win32,60
,,,,,,,,,,,,,,,,,,,,7,2.898000002,3,1.575000048,1,0,1200,1035,1,1199,expel,11113,2019-10-21_17h03.34.918,SurveyExpMetaMem,3.2.3,Win32,60
,,,,,,,,,,,,,,,,,,,,7,4.247000217,7,1.435000181,1,0,1200,899,1,1199,relax,11113,2019-10-21_17h03.34.918,SurveyExpMetaMem,3.2.3,Win32,60
,,,,,,,,,,,,,,,,,,,,1,3.59100008,5,0.212000132,1,0,1200,496,1,1199,slow,11113,2019-10-21_17h03.34.918,SurveyExpMetaMem,3.2.3,Win32,60
,,,,,,,,,,,,,,,,,,,,3,11.93600011,5,2.405999899,1,0,1200,380,1,1199,expire,11113,2019-10-21_17h03.34.918,SurveyExpMetaMem,3.2.3,Win32,60
,,,,,,,,,,,,,,,,,,,,1,1.575999975,5,0.243999958,1,0,1200,1146,1,1199,bug,11113,2019-10-21_17h03.34.918,SurveyExpMetaMem,3.2.3,Win32,60
,,,,,,,,,,,,,,,,,,,,7,4.038000107,2,1.273999929,1,0,1200,302,1,1199,loneliness,11113,2019-10-21_17h03.34.918,SurveyExpMetaMem,3.2.3,Win32,60
,,,,,,,,,,,,,,,,,,,,7,11.19099998,7,6.963000059,1,0,1200,29,1,1199,life,11113,2019-10-21_17h03.34.918,SurveyExpMetaMem,3.2.3,Win32,60
,,,,,,,,,,,,,,,,,,,,7,6.887000084,7,1.629000187,1,0,1200,1112,1,1199,pressure,11113,2019-10-21_17h03.34.918,SurveyExpMetaMem,3.2.3,Win32,60
,,,,,,,,,,,,,,,,,,,,8,1.422999859,8,1.575999975,1,0,1200,59,1,1199,sports,11113,2019-10-21_17h03.34.918,SurveyExpMetaMem,3.2.3,Win32,60
,,,,,,,,,,,,,,,,,,,,7,3.160000086,7,2.48300004,1,0,1200,274,1,1199,song,11113,2019-10-21_17h03.34.918,SurveyExpMetaMem,3.2.3,Win32,60
,,,,,,,,,,,,,,,,,,,,7,17.58399987,6,14.09700012,1,0,1200,757,1,1199,sentiment,11113,2019-10-21_17h03.34.918,SurveyExpMetaMem,3.2.3,Win32,60
,,,,,,,,,,,,,,,,,,,,1,9.503000021,4,2.59800005,1,0,1200,642,1,1199,newspaper,11113,2019-10-21_17h03.34.918,SurveyExpMetaMem,3.2.3,Win32,60
,,,,,,,,,,,,,,,,,,,,6,3.491999865,4,3.502000093,1,0,1200,154,1,1199,race,11113,2019-10-21_17h03.34.918,SurveyExpMetaMem,3.2.3,Win32,60
,,,,,,,,,,,,,,,,,,,,7,2.190999985,8,1.670000076,1,0,1200,896,1,1199,cuddle,11113,2019-10-21_17h03.34.918,SurveyExpMetaMem,3.2.3,Win32,60
,,,,,,,,,,,,,,,,,,,,7,24.17400002,2,1.875999928,1,0,1200,911,1,1199,rejection,11113,2019-10-21_17h03.34.918,SurveyExpMetaMem,3.2.3,Win32,60
,,,,,,,,,,,,,,,,,,,,7,2.707000017,1,3.542999983,1,0,1200,921,1,1199,humiliation,11113,2019-10-21_17h03.34.918,SurveyExpMetaMem,3.2.3,Win32,60
,,,,,,,,,,,,,,,,,,,,8,4.196000099,6,5.360000134,1,0,1200,208,1,1199,wild,11113,2019-10-21_17h03.34.918,SurveyExpMetaMem,3.2.3,Win32,60
,,,,,,,,,,,,,,,,,,,,8,5.979000092,8,2.0400002,1,0,1200,149,1,1199,loved,11113,2019-10-21_17h03.34.918,SurveyExpMetaMem,3.2.3,Win32,60
,,,,,,,,,,,,,,,,,,,,7,15.03500009,2,0.799000025,1,0,1200,483,1,1199,condescension,11113,2019-10-21_17h03.34.918,SurveyExpMetaMem,3.2.3,Win32,60
,,,,,,,,,,,,,,,,,,,,6,3.804000139,2,2.411000013,1,0,1200,381,1,1199,sloppy,11113,2019-10-21_17h03.34.918,SurveyExpMetaMem,3.2.3,Win32,60
,,,,,,,,,,,,,,,,,,,,5,2.769000053,3,6.611999989,1,0,1200,1051,1,1199,insane,11113,2019-10-21_17h03.34.918,SurveyExpMetaMem,3.2.3,Win32,60
,,,,,,,,,,,,,,,,,,,,2,3.67200017,4,1.697000027,1,0,1200,677,1,1199,handwriting,11113,2019-10-21_17h03.34.918,SurveyExpMetaMem,3.2.3,Win32,60
,,,,,,,,,,,,,,,,,,,,4,32.69199991,5,2.011999846,1,0,1200,452,1,1199,scapegoat,11113,2019-10-21_17h03.34.918,SurveyExpMetaMem,3.2.3,Win32,60
,,,,,,,,,,,,,,,,,,,,1,2.571000099,5,0.726000071,1,0,1200,814,1,1199,dress,11113,2019-10-21_17h03.34.918,SurveyExpMetaMem,3.2.3,Win32,60
,,,,,,,,,,,,,,,,,,,,1,6.195000172,5,0.362999916,1,0,1200,657,1,1199,peanut,11113,2019-10-21_17h03.34.918,SurveyExpMetaMem,3.2.3,Win32,60
,,,,,,,,,,,,,,,,,,,,4,3.088999987,7,2.161000013,1,0,1200,41,1,1199,progress,11113,2019-10-21_17h03.34.918,SurveyExpMetaMem,3.2.3,Win32,60
,,,,,,,,,,,,,,,,,,,,1,11.85000014,5,0.857000113,1,0,1200,694,1,1199,pecan,11113,2019-10-21_17h03.34.918,SurveyExpMetaMem,3.2.3,Win32,60
,,,,,,,,,,,,,,,,,,,,3,2.147000074,3,1.379999876,1,0,1200,952,1,1199,troubled,11113,2019-10-21_17h03.34.918,SurveyExpMetaMem,3.2.3,Win32,60
,,,,,,,,,,,,,,,,,,,,5,14.68200016,3,1.622999907,1,0,1200,333,1,1199,weak,11113,2019-10-21_17h03.34.918,SurveyExpMetaMem,3.2.3,Win32,60
,,,,,,,,,,,,,,,,,,,,5,2.530999899,3,1.138999939,1,0,1200,314,1,1199,hopeless,11113,2019-10-21_17h03.34.918,SurveyExpMetaMem,3.2.3,Win32,60
,,,,,,,,,,,,,,,,,,,,5,10.80699992,4,2.138000011,1,0,1200,1148,1,1199,suspicious,11113,2019-10-21_17h03.34.918,SurveyExpMetaMem,3.2.3,Win32,60
,,,,,,,,,,,,,,,,,,,,8,3.24000001,1,1.324999809,1,0,1200,1049,1,1199,electrocute,11113,2019-10-21_17h03.34.918,SurveyExpMetaMem,3.2.3,Win32,60
,,,,,,,,,,,,,,,,,,,,6,3.309999943,4,1.59800005,1,0,1200,1179,1,1199,nerves,11113,2019-10-21_17h03.34.918,SurveyExpMetaMem,3.2.3,Win32,60
,,,,,,,,,,,,,,,,,,,,5,9.003000021,3,2.330999851,1,0,1200,583,1,1199,obey,11113,2019-10-21_17h03.34.918,SurveyExpMetaMem,3.2.3,Win32,60
,,,,,,,,,,,,,,,,,,,,7,8.052000046,7,6.994000196,1,0,1200,283,1,1199,elated,11113,2019-10-21_17h03.34.918,SurveyExpMetaMem,3.2.3,Win32,60
,,,,,,,,,,,,,,,,,,,,1,2.359999895,5,0.368999958,1,0,1200,734,1,1199,piano,11113,2019-10-21_17h03.34.918,SurveyExpMetaMem,3.2.3,Win32,60
,,,,,,,,,,,,,,,,,,,,1,3.911000013,5,0.56400013,1,0,1200,682,1,1199,camel,11113,2019-10-21_17h03.34.918,SurveyExpMetaMem,3.2.3,Win32,60
,,,,,,,,,,,,,,,,,,,,1,9.745000124,5,1.378000021,1,0,1200,462,1,1199,shallow,11113,2019-10-21_17h03.34.918,SurveyExpMetaMem,3.2.3,Win32,60
,,,,,,,,,,,,,,,,,,,,7,2.542000055,6,2.174000025,1,0,1200,207,1,1199,erect,11113,2019-10-21_17h03.34.918,SurveyExpMetaMem,3.2.3,Win32,60
,,,,,,,,,,,,,,,,,,,,1,1.782999992,5,2.794000149,1,0,1200,1108,1,1199,spider,11113,2019-10-21_17h03.34.918,SurveyExpMetaMem,3.2.3,Win32,60
,,,,,,,,,,,,,,,,,,,,4,3.855999947,4,2.894000053,1,0,1200,1168,1,1199,financial,11113,2019-10-21_17h03.34.918,SurveyExpMetaMem,3.2.3,Win32,60
,,,,,,,,,,,,,,,,,,,,3,2.621999979,5,1.383000135,1,0,1200,102,1,1199,motorcycle,11113,2019-10-21_17h03.34.918,SurveyExpMetaMem,3.2.3,Win32,60
,,,,,,,,,,,,,,,,,,,,5,3.914999962,4,2.342000008,1,0,1200,363,1,1199,dumb,11113,2019-10-21_17h03.34.918,SurveyExpMetaMem,3.2.3,Win32,60
,,,,,,,,,,,,,,,,,,,,7,12.33899999,3,1.540999889,1,0,1200,998,1,1199,virus,11113,2019-10-21_17h03.34.918,SurveyExpMetaMem,3.2.3,Win32,60
,,,,,,,,,,,,,,,,,,,,1,8.657000065,5,20.68600011,1,0,1200,830,1,1199,pear,11113,2019-10-21_17h03.34.918,SurveyExpMetaMem,3.2.3,Win32,60
,,,,,,,,,,,,,,,,,,,,7,2.937000036,7,1.254000187,1,0,1200,93,1,1199,smiling,11113,2019-10-21_17h03.34.918,SurveyExpMetaMem,3.2.3,Win32,60
,,,,,,,,,,,,,,,,,,,,6,0.019999981,5,11.49000025,1,0,1200,756,1,1199,plant,11113,2019-10-21_17h03.34.918,SurveyExpMetaMem,3.2.3,Win32,60
,,,,,,,,,,,,,,,,,,,,7,5.299999952,2,2.304000139,1,0,1200,912,1,1199,rabies,11113,2019-10-21_17h03.34.918,SurveyExpMetaMem,3.2.3,Win32,60
,,,,,,,,,,,,,,,,,,,,3,27.55099988,5,3.611999989,1,0,1200,1190,1,1199,clench,11113,2019-10-21_17h03.34.918,SurveyExpMetaMem,3.2.3,Win32,60
,,,,,,,,,,,,,,,,,,,,4,2.373000145,5,1.34100008,1,0,1200,419,1,1199,immature,11113,2019-10-21_17h03.34.918,SurveyExpMetaMem,3.2.3,Win32,60
,,,,,,,,,,,,,,,,,,,,1,16.38800001,5,0.657999992,1,0,1200,669,1,1199,plaza,11113,2019-10-21_17h03.34.918,SurveyExpMetaMem,3.2.3,Win32,60
,,,,,,,,,,,,,,,,,,,,1,9.861999989,5,0.847000122,1,0,1200,652,1,1199,tend,11113,2019-10-21_17h03.34.918,SurveyExpMetaMem,3.2.3,Win32,60
,,,,,,,,,,,,,,,,,,,,1,5.955999851,5,0.362999916,1,0,1200,506,1,1199,lower,11113,2019-10-21_17h03.34.918,SurveyExpMetaMem,3.2.3,Win32,60
,,,,,,,,,,,,,,,,,,,,6,2.368999958,4,1.291000128,1,0,1200,1005,1,1199,pissed,11113,2019-10-21_17h03.34.918,SurveyExpMetaMem,3.2.3,Win32,60
,,,,,,,,,,,,,,,,,,,,2,3.825999975,5,1.40899992,1,0,1200,813,1,1199,walking,11113,2019-10-21_17h03.34.918,SurveyExpMetaMem,3.2.3,Win32,60
,,,,,,,,,,,,,,,,,,,,2,3.459000111,5,1.111999989,1,0,1200,203,1,1199,seal,11113,2019-10-21_17h03.34.918,SurveyExpMetaMem,3.2.3,Win32,60
,,,,,,,,,,,,,,,,,,,,1,11.67400002,5,0.255000114,1,0,1200,648,1,1199,beads,11113,2019-10-21_17h03.34.918,SurveyExpMetaMem,3.2.3,Win32,60
,,,,,,,,,,,,,,,,,,,,1,1.430000067,5,0.29399991,1,0,1200,263,1,1199,answer,11113,2019-10-21_17h03.34.918,SurveyExpMetaMem,3.2.3,Win32,60
,,,,,,,,,,,,,,,,,,,,6,4.328999996,5,1.565000057,1,0,1200,584,1,1199,anus,11113,2019-10-21_17h03.34.918,SurveyExpMetaMem,3.2.3,Win32,60
,,,,,,,,,,,,,,,,,,,,6,9.762000084,5,2.006000042,1,0,1200,1099,1,1199,fire,11113,2019-10-21_17h03.34.918,SurveyExpMetaMem,3.2.3,Win32,60
,,,,,,,,,,,,,,,,,,,,7,2.187000036,7,3.178999901,1,0,1200,196,1,1199,smile,11113,2019-10-21_17h03.34.918,SurveyExpMetaMem,3.2.3,Win32,60
,,,,,,,,,,,,,,,,,,,,3,3.29399991,4,1.875999928,1,0,1200,406,1,1199,tired,11113,2019-10-21_17h03.34.918,SurveyExpMetaMem,3.2.3,Win32,60
,,,,,,,,,,,,,,,,,,,,2,5.486999989,5,1.676000118,1,0,1200,24,1,1199,model,11113,2019-10-21_17h03.34.918,SurveyExpMetaMem,3.2.3,Win32,60
,,,,,,,,,,,,,,,,,,,,7,3.714000225,6,2.207000017,1,0,1200,457,1,1199,confuse,11113,2019-10-21_17h03.34.918,SurveyExpMetaMem,3.2.3,Win32,60
,,,,,,,,,,,,,,,,,,,,1,3.427999973,5,0.365999937,1,0,1200,579,1,1199,bus,11113,2019-10-21_17h03.34.918,SurveyExpMetaMem,3.2.3,Win32,60
,,,,,,,,,,,,,,,,,,,,1,1.437000036,5,0.296000004,1,0,1200,179,1,1199,star,11113,2019-10-21_17h03.34.918,SurveyExpMetaMem,3.2.3,Win32,60
,,,,,,,,,,,,,,,,,,,,1,1.656000137,5,0.325999975,1,0,1200,63,1,1199,clothes,11113,2019-10-21_17h03.34.918,SurveyExpMetaMem,3.2.3,Win32,60
,,,,,,,,,,,,,,,,,,,,6,4.43900013,2,3.31099987,1,0,1200,304,1,1199,depression,11113,2019-10-21_17h03.34.918,SurveyExpMetaMem,3.2.3,Win32,60
,,,,,,,,,,,,,,,,,,,,6,4.254999876,2,4.338999987,1,0,1200,1014,1,1199,destroy,11113,2019-10-21_17h03.34.918,SurveyExpMetaMem,3.2.3,Win32,60
,,,,,,,,,,,,,,,,,,,,7,6.061000109,4,2.523000002,1,0,1200,1158,1,1199,dentist,11113,2019-10-21_17h03.34.918,SurveyExpMetaMem,3.2.3,Win32,60
,,,,,,,,,,,,,,,,,,,,3,5.494999886,7,1.860000134,1,0,1200,878,1,1199,sleep,11113,2019-10-21_17h03.34.918,SurveyExpMetaMem,3.2.3,Win32,60
,,,,,,,,,,,,,,,,,,,,6,2.088999987,3,1.032999992,1,0,1200,1137,1,1199,knife,11113,2019-10-21_17h03.34.918,SurveyExpMetaMem,3.2.3,Win32,60
,,,,,,,,,,,,,,,,,,,,7,8.139999866,3,1.856999874,1,0,1200,1043,1,1199,scold,11113,2019-10-21_17h03.34.918,SurveyExpMetaMem,3.2.3,Win32,60
,,,,,,,,,,,,,,,,,,,,7,6.821000099,5,8.588000059,1,0,1200,250,1,1199,erupt,11113,2019-10-21_17h03.34.918,SurveyExpMetaMem,3.2.3,Win32,60
,,,,,,,,,,,,,,,,,,,,1,1.989000082,5,0.246999979,1,0,1200,544,1,1199,snail,11113,2019-10-21_17h03.34.918,SurveyExpMetaMem,3.2.3,Win32,60
,,,,,,,,,,,,,,,,,,,,4,3.17599988,7,3.393000126,1,0,1200,30,1,1199,impressed,11113,2019-10-21_17h03.34.918,SurveyExpMetaMem,3.2.3,Win32,60
,,,,,,,,,,,,,,,,,,,,7,5.115999937,5,3.157000065,1,0,1200,1024,1,1199,burn,11113,2019-10-21_17h03.34.918,SurveyExpMetaMem,3.2.3,Win32,60
,,,,,,,,,,,,,,,,,,,,6,2.013000011,3,0.64199996,1,0,1200,325,1,1199,disability,11113,2019-10-21_17h03.34.918,SurveyExpMetaMem,3.2.3,Win32,60
,,,,,,,,,,,,,,,,,,,,1,2.055999994,5,0.791000128,1,0,1200,518,1,1199,report,11113,2019-10-21_17h03.34.918,SurveyExpMetaMem,3.2.3,Win32,60
,,,,,,,,,,,,,,,,,,,,3,2.624000072,4,2.332999945,1,0,1200,558,1,1199,punk,11113,2019-10-21_17h03.34.918,SurveyExpMetaMem,3.2.3,Win32,60
,,,,,,,,,,,,,,,,,,,,7,6.496000051,5,9.332000017,1,0,1200,715,1,1199,sheltered,11113,2019-10-21_17h03.34.918,SurveyExpMetaMem,3.2.3,Win32,60
,,,,,,,,,,,,,,,,,,,,1,1.917999983,5,0.417000055,1,0,1200,552,1,1199,shadow,11113,2019-10-21_17h03.34.918,SurveyExpMetaMem,3.2.3,Win32,60
,,,,,,,,,,,,,,,,,,,,4,5.05700016,7,1.60800004,1,0,1200,138,1,1199,blessings,11113,2019-10-21_17h03.34.918,SurveyExpMetaMem,3.2.3,Win32,60
,,,,,,,,,,,,,,,,,,,,1,2.241000175,5,0.473999977,1,0,1200,561,1,1199,plain,11113,2019-10-21_17h03.34.918,SurveyExpMetaMem,3.2.3,Win32,60
,,,,,,,,,,,,,,,,,,,,1,2.243999958,5,0.575000048,1,0,1200,710,1,1199,gender,11113,2019-10-21_17h03.34.918,SurveyExpMetaMem,3.2.3,Win32,60
,,,,,,,,,,,,,,,,,,,,4,3.318000078,2,1.610000134,1,0,1200,966,1,1199,regretful,11113,2019-10-21_17h03.34.918,SurveyExpMetaMem,3.2.3,Win32,60
,,,,,,,,,,,,,,,,,,,,1,14.08900023,5,0.273999929,1,0,1200,697,1,1199,clarinet,11113,2019-10-21_17h03.34.918,SurveyExpMetaMem,3.2.3,Win32,60
,,,,,,,,,,,,,,,,,,,,1,1.068000078,5,0.231000185,1,0,1200,679,1,1199,yellow,11113,2019-10-21_17h03.34.918,SurveyExpMetaMem,3.2.3,Win32,60
,,,,,,,,,,,,,,,,,,,,4,14.22900009,5,1.795000076,1,0,1200,590,1,1199,stool,11113,2019-10-21_17h03.34.918,SurveyExpMetaMem,3.2.3,Win32,60
,,,,,,,,,,,,,,,,,,,,1,3.424999952,5,0.244999886,1,0,1200,834,1,1199,crown,11113,2019-10-21_17h03.34.918,SurveyExpMetaMem,3.2.3,Win32,60
,,,,,,,,,,,,,,,,,,,,2,12.35400009,5,1.468000174,1,0,1200,859,1,1199,serene,11113,2019-10-21_17h03.34.918,SurveyExpMetaMem,3.2.3,Win32,60
,,,,,,,,,,,,,,,,,,,,5,4.104000092,6,1.825999975,1,0,1200,370,1,1199,rodent,11113,2019-10-21_17h03.34.918,SurveyExpMetaMem,3.2.3,Win32,60
,,,,,,,,,,,,,,,,,,,,4,7.122000217,7,2.40199995,1,0,1200,810,1,1199,polite,11113,2019-10-21_17h03.34.918,SurveyExpMetaMem,3.2.3,Win32,60
,,,,,,,,,,,,,,,,,,,,2,4.749000072,5,1.884000063,1,0,1200,717,1,1199,modest,11113,2019-10-21_17h03.34.918,SurveyExpMetaMem,3.2.3,Win32,60
,,,,,,,,,,,,,,,,,,,,7,7.028000116,3,13.66400003,1,0,1200,1017,1,1199,aggravated,11113,2019-10-21_17h03.34.918,SurveyExpMetaMem,3.2.3,Win32,60
,,,,,,,,,,,,,,,,,,,,6,2.922999859,8,3.208000183,1,0,1200,39,1,1199,birth,11113,2019-10-21_17h03.34.918,SurveyExpMetaMem,3.2.3,Win32,60
,,,,,,,,,,,,,,,,,,,,3,3.796000004,6,7.18200016,1,0,1200,22,1,1199,doughnut,11113,2019-10-21_17h03.34.918,SurveyExpMetaMem,3.2.3,Win32,60
,,,,,,,,,,,,,,,,,,,,2,8.291000128,7,12.74300003,1,0,1200,247,1,1199,graduate,11113,2019-10-21_17h03.34.918,SurveyExpMetaMem,3.2.3,Win32,60
,,,,,,,,,,,,,,,,,,,,3,3.852999926,6,1.452000141,1,0,1200,69,1,1199,special,11113,2019-10-21_17h03.34.918,SurveyExpMetaMem,3.2.3,Win32,60
,,,,,,,,,,,,,,,,,,,,1,8.053999901,5,0.497000217,1,0,1200,654,1,1199,brief,11113,2019-10-21_17h03.34.918,SurveyExpMetaMem,3.2.3,Win32,60
,,,,,,,,,,,,,,,,,,,,3,2.237999916,3,1.43200016,1,0,1200,416,1,1199,boring,11113,2019-10-21_17h03.34.918,SurveyExpMetaMem,3.2.3,Win32,60
,,,,,,,,,,,,,,,,,,,,6,2.268000126,7,2.342000008,1,0,1200,1033,1,1199,horror,11113,2019-10-21_17h03.34.918,SurveyExpMetaMem,3.2.3,Win32,60
,,,,,,,,,,,,,,,,,,,,5,2.598999977,5,3.759000063,1,0,1200,719,1,1199,western,11113,2019-10-21_17h03.34.918,SurveyExpMetaMem,3.2.3,Win32,60
,,,,,,,,,,,,,,,,,,,,7,20.43599987,3,1.417000055,1,0,1200,320,1,1199,deformed,11113,2019-10-21_17h03.34.918,SurveyExpMetaMem,3.2.3,Win32,60
,,,,,,,,,,,,,,,,,,,,7,59.70799994,1,2.64199996,1,0,1200,951,1,1199,castrate,11113,2019-10-21_17h03.34.918,SurveyExpMetaMem,3.2.3,Win32,60
,,,,,,,,,,,,,,,,,,,,7,12.99600005,2,0.985000134,1,0,1200,929,1,1199,mutilation,11113,2019-10-21_17h03.34.918,SurveyExpMetaMem,3.2.3,Win32,60
,,,,,,,,,,,,,,,,,,,,3,2.818000078,5,2.482000113,1,0,1200,1186,1,1199,goddamn,11113,2019-10-21_17h03.34.918,SurveyExpMetaMem,3.2.3,Win32,60
,,,,,,,,,,,,,,,,,,,,5,3.601000071,5,3.560000181,1,0,1200,260,1,1199,control,11113,2019-10-21_17h03.34.918,SurveyExpMetaMem,3.2.3,Win32,60
,,,,,,,,,,,,,,,,,,,,6,2.223999977,3,1.394999981,1,0,1200,1031,1,1199,fear,11113,2019-10-21_17h03.34.918,SurveyExpMetaMem,3.2.3,Win32,60
,,,,,,,,,,,,,,,,,,,,3,11.41600013,4,2.578000069,1,0,1200,581,1,1199,dork,11113,2019-10-21_17h03.34.918,SurveyExpMetaMem,3.2.3,Win32,60
,,,,,,,,,,,,,,,,,,,,3,6.041000128,5,1.69900012,1,0,1200,773,1,1199,rational,11113,2019-10-21_17h03.34.918,SurveyExpMetaMem,3.2.3,Win32,60
,,,,,,,,,,,,,,,,,,,,6,3.262000084,7,1.582000017,1,0,1200,171,1,1199,imagination,11113,2019-10-21_17h03.34.918,SurveyExpMetaMem,3.2.3,Win32,60
,,,,,,,,,,,,,,,,,,,,7,8.911000013,7,2.656999826,1,0,1200,49,1,1199,ecstatic,11113,2019-10-21_17h03.34.918,SurveyExpMetaMem,3.2.3,Win32,60
,,,,,,,,,,,,,,,,,,,,6,2.95600009,8,1.273999929,1,0,1200,895,1,1199,peace,11113,2019-10-21_17h03.34.918,SurveyExpMetaMem,3.2.3,Win32,60
,,,,,,,,,,,,,,,,,,,,7,12.84099984,2,1.72300005,1,0,1200,1063,1,1199,quarrel,11113,2019-10-21_17h03.34.918,SurveyExpMetaMem,3.2.3,Win32,60
,,,,,,,,,,,,,,,,,,,,7,3.769999981,5,2.34100008,1,0,1200,1067,1,1199,wicked,11113,2019-10-21_17h03.34.918,SurveyExpMetaMem,3.2.3,Win32,60
,,,,,,,,,,,,,,,,,,,,3,2.974000216,3,9.025000095,1,0,1200,687,1,1199,skinny,11113,2019-10-21_17h03.34.918,SurveyExpMetaMem,3.2.3,Win32,60
,,,,,,,,,,,,,,,,,,,,3,5.279000044,6,1.679999828,1,0,1200,1145,1,1199,officer,11113,2019-10-21_17h03.34.918,SurveyExpMetaMem,3.2.3,Win32,60
,,,,,,,,,,,,,,,,,,,,4,12.954,2,1.101999998,1,0,1200,964,1,1199,grieve,11113,2019-10-21_17h03.34.918,SurveyExpMetaMem,3.2.3,Win32,60
,,,,,,,,,,,,,,,,,,,,1,2.052999973,5,0.853999853,1,0,1200,528,1,1199,dirt,11113,2019-10-21_17h03.34.918,SurveyExpMetaMem,3.2.3,Win32,60
,,,,,,,,,,,,,,,,,,,,6,4.05700016,3,1.249000072,1,0,1200,378,1,1199,dislike,11113,2019-10-21_17h03.34.918,SurveyExpMetaMem,3.2.3,Win32,60
,,,,,,,,,,,,,,,,,,,,7,3.35800004,5,1.653000116,1,0,1200,221,1,1199,sparkle,11113,2019-10-21_17h03.34.918,SurveyExpMetaMem,3.2.3,Win32,60
,,,,,,,,,,,,,,,,,,,,1,8.430000067,5,1.390000105,1,0,1200,637,1,1199,flock,11113,2019-10-21_17h03.34.918,SurveyExpMetaMem,3.2.3,Win32,60
,,,,,,,,,,,,,,,,,,,,6,9.531000137,7,0.914999962,1,0,1200,168,1,1199,mate,11113,2019-10-21_17h03.34.918,SurveyExpMetaMem,3.2.3,Win32,60
,,,,,,,,,,,,,,,,,,,,1,1.168000221,5,0.799999952,1,0,1200,847,1,1199,moon,11113,2019-10-21_17h03.34.918,SurveyExpMetaMem,3.2.3,Win32,60
,,,,,,,,,,,,,,,,,,,,4,2.282999992,5,1.734999895,1,0,1200,215,1,1199,salary,11113,2019-10-21_17h03.34.918,SurveyExpMetaMem,3.2.3,Win32,60
,,,,,,,,,,,,,,,,,,,,1,2.763000011,5,0.39199996,1,0,1200,745,1,1199,inform,11113,2019-10-21_17h03.34.918,SurveyExpMetaMem,3.2.3,Win32,60
,,,,,,,,,,,,,,,,,,,,7,1.904000044,6,0.729000092,1,0,1200,234,1,1199,redeem,11113,2019-10-21_17h03.34.918,SurveyExpMetaMem,3.2.3,Win32,60
,,,,,,,,,,,,,,,,,,,,8,8.440000057,7,1.316999912,1,0,1200,500,1,1199,nosey,11113,2019-10-21_17h03.34.918,SurveyExpMetaMem,3.2.3,Win32,60
,,,,,,,,,,,,,,,,,,,,6,3.954999924,3,1.381999969,1,0,1200,714,1,1199,courtyard,11113,2019-10-21_17h03.34.918,SurveyExpMetaMem,3.2.3,Win32,60
,,,,,,,,,,,,,,,,,,,,2,2.638000011,6,2.994999886,1,0,1200,77,1,1199,adore,11113,2019-10-21_17h03.34.918,SurveyExpMetaMem,3.2.3,Win32,60
,,,,,,,,,,,,,,,,,,,,1,2.384000063,5,0.990999937,1,0,1200,802,1,1199,familiar,11113,2019-10-21_17h03.34.918,SurveyExpMetaMem,3.2.3,Win32,60
,,,,,,,,,,,,,,,,,,,,2,4.180000067,5,0.979000092,1,0,1200,712,1,1199,harvest,11113,2019-10-21_17h03.34.918,SurveyExpMetaMem,3.2.3,Win32,60
,,,,,,,,,,,,,,,,,,,,8,3.032999992,8,0.97300005,1,0,1200,195,1,1199,laughing,11113,2019-10-21_17h03.34.918,SurveyExpMetaMem,3.2.3,Win32,60
,,,,,,,,,,,,,,,,,,,,7,21.64299989,3,0.864000082,1,0,1200,1153,1,1199,mangle,11113,2019-10-21_17h03.34.918,SurveyExpMetaMem,3.2.3,Win32,60
,,,,,,,,,,,,,,,,,,,,6,11.00800014,3,1.223999977,1,0,1200,934,1,1199,sob,11113,2019-10-21_17h03.34.918,SurveyExpMetaMem,3.2.3,Win32,60
,,,,,,,,,,,,,,,,,,,,7,2.235000134,8,0.617000103,1,0,1200,294,1,1199,confident,11113,2019-10-21_17h03.34.918,SurveyExpMetaMem,3.2.3,Win32,60
,,,,,,,,,,,,,,,,,,,,1,1.417999983,5,0.207000017,1,0,1200,617,1,1199,tomato,11113,2019-10-21_17h03.34.918,SurveyExpMetaMem,3.2.3,Win32,60
,,,,,,,,,,,,,,,,,,,,4,2.469000101,3,1.150000095,1,0,1200,1041,1,1199,sin,11113,2019-10-21_17h03.34.918,SurveyExpMetaMem,3.2.3,Win32,60
,,,,,,,,,,,,,,,,,,,,1,2.125,5,0.292000055,1,0,1200,1195,1,1199,speech,11113,2019-10-21_17h03.34.918,SurveyExpMetaMem,3.2.3,Win32,60
,,,,,,,,,,,,,,,,,,,,4,3.832000017,3,1.406000137,1,0,1200,1072,1,1199,bothered,11113,2019-10-21_17h03.34.918,SurveyExpMetaMem,3.2.3,Win32,60
,,,,,,,,,,,,,,,,,,,,8,5.959000111,7,1.907999992,1,0,1200,19,1,1199,firefighter,11113,2019-10-21_17h03.34.918,SurveyExpMetaMem,3.2.3,Win32,60
,,,,,,,,,,,,,,,,,,,,3,2.867000103,3,0.952000141,1,0,1200,559,1,1199,lazy,11113,2019-10-21_17h03.34.918,SurveyExpMetaMem,3.2.3,Win32,60
,,,,,,,,,,,,,,,,,,,,6,2.140000105,5,3.451999903,1,0,1200,494,1,1199,butcher,11113,2019-10-21_17h03.34.918,SurveyExpMetaMem,3.2.3,Win32,60
,,,,,,,,,,,,,,,,,,,,3,4.523999929,5,2.096999884,1,0,1200,824,1,1199,favor,11113,2019-10-21_17h03.34.918,SurveyExpMetaMem,3.2.3,Win32,60
,,,,,,,,,,,,,,,,,,,,3,5.008000135,5,2.483999968,1,0,1200,280,1,1199,cookout,11113,2019-10-21_17h03.34.918,SurveyExpMetaMem,3.2.3,Win32,60
,,,,,,,,,,,,,,,,,,,,6,4.213000059,3,1.94900012,1,0,1200,337,1,1199,stinks,11113,2019-10-21_17h03.34.918,SurveyExpMetaMem,3.2.3,Win32,60
,,,,,,,,,,,,,,,,,,,,6,5.595000029,3,1.33100009,1,0,1200,441,1,1199,prohibit,11113,2019-10-21_17h03.34.918,SurveyExpMetaMem,3.2.3,Win32,60
,,,,,,,,,,,,,,,,,,,,1,1.892999887,5,1.322999954,1,0,1200,112,1,1199,jaguar,11113,2019-10-21_17h03.34.918,SurveyExpMetaMem,3.2.3,Win32,60
,,,,,,,,,,,,,,,,,,,,6,2.781000137,3,0.844000101,1,0,1200,525,1,1199,stagnant,11113,2019-10-21_17h03.34.918,SurveyExpMetaMem,3.2.3,Win32,60
,,,,,,,,,,,,,,,,,,,,1,9.299000025,5,1.384000063,1,0,1200,466,1,1199,gnaw,11113,2019-10-21_17h03.34.918,SurveyExpMetaMem,3.2.3,Win32,60
,,,,,,,,,,,,,,,,,,,,7,2.761000156,6,1.618000031,1,0,1200,1027,1,1199,criticism,11113,2019-10-21_17h03.34.918,SurveyExpMetaMem,3.2.3,Win32,60
,,,,,,,,,,,,,,,,,,,,6,6.707000017,4,1.950999975,1,0,1200,440,1,1199,forgot,11113,2019-10-21_17h03.34.918,SurveyExpMetaMem,3.2.3,Win32,60
,,,,,,,,,,,,,,,,,,,,1,2.588000059,6,2.495000124,1,0,1200,737,1,1199,lamb,11113,2019-10-21_17h03.34.918,SurveyExpMetaMem,3.2.3,Win32,60
,,,,,,,,,,,,,,,,,,,,1,16.04900002,6,1.599999905,1,0,1200,750,1,1199,porpoise,11113,2019-10-21_17h03.34.918,SurveyExpMetaMem,3.2.3,Win32,60
,,,,,,,,,,,,,,,,,,,,3,2.416000128,4,1.497999907,1,0,1200,574,1,1199,distracted,11113,2019-10-21_17h03.34.918,SurveyExpMetaMem,3.2.3,Win32,60
,,,,,,,,,,,,,,,,,,,,4,9.687000036,5,1.5400002,1,0,1200,532,1,1199,recede,11113,2019-10-21_17h03.34.918,SurveyExpMetaMem,3.2.3,Win32,60
,,,,,,,,,,,,,,,,,,,,7,2.677999973,7,0.938999891,1,0,1200,287,1,1199,optimistic,11113,2019-10-21_17h03.34.918,SurveyExpMetaMem,3.2.3,Win32,60
,,,,,,,,,,,,,,,,,,,,4,20.65499997,5,1.825999975,1,0,1200,461,1,1199,ail,11113,2019-10-21_17h03.34.918,SurveyExpMetaMem,3.2.3,Win32,60
,,,,,,,,,,,,,,,,,,,,7,11.90499997,2,1.529999971,1,0,1200,955,1,1199,drown,11113,2019-10-21_17h03.34.918,SurveyExpMetaMem,3.2.3,Win32,60
,,,,,,,,,,,,,,,,,,,,2,17.454,6,1.743000031,1,0,1200,838,1,1199,nestle,11113,2019-10-21_17h03.34.918,SurveyExpMetaMem,3.2.3,Win32,60
,,,,,,,,,,,,,,,,,,,,6,1.953999996,6,0.125,1,0,1200,148,1,1199,victory,11113,2019-10-21_17h03.34.918,SurveyExpMetaMem,3.2.3,Win32,60
,,,,,,,,,,,,,,,,,,,,3,25.49099994,4,0.933000088,1,0,1200,368,1,1199,dreary,11113,2019-10-21_17h03.34.918,SurveyExpMetaMem,3.2.3,Win32,60
,,,,,,,,,,,,,,,,,,,,1,2.902999878,5,1.128999949,1,0,1200,723,1,1199,cinnamon,11113,2019-10-21_17h03.34.918,SurveyExpMetaMem,3.2.3,Win32,60
,,,,,,,,,,,,,,,,,,,,7,9.684999943,3,0.767000198,1,0,1200,1010,1,1199,arson,11113,2019-10-21_17h03.34.918,SurveyExpMetaMem,3.2.3,Win32,60
,,,,,,,,,,,,,,,,,,,,7,2.766000032,7,0.697999954,1,0,1200,72,1,1199,attract,11113,2019-10-21_17h03.34.918,SurveyExpMetaMem,3.2.3,Win32,60
,,,,,,,,,,,,,,,,,,,,5,5.619000196,4,3.406000137,1,0,1200,448,1,1199,depart,11113,2019-10-21_17h03.34.918,SurveyExpMetaMem,3.2.3,Win32,60
,,,,,,,,,,,,,,,,,,,,7,3.077000141,3,0.861999989,1,0,1200,936,1,1199,assault,11113,2019-10-21_17h03.34.918,SurveyExpMetaMem,3.2.3,Win32,60
,,,,,,,,,,,,,,,,,,,,2,2.72300005,7,10.82600021,1,0,1200,527,1,1199,passive,11113,2019-10-21_17h03.34.918,SurveyExpMetaMem,3.2.3,Win32,60
,,,,,,,,,,,,,,,,,,,,1,11.40799999,5,0.680000067,1,0,1200,629,1,1199,barn,11113,2019-10-21_17h03.34.918,SurveyExpMetaMem,3.2.3,Win32,60
,,,,,,,,,,,,,,,,,,,,6,4.171000004,5,1.698999882,1,0,1200,547,1,1199,cellar,11113,2019-10-21_17h03.34.918,SurveyExpMetaMem,3.2.3,Win32,60
,,,,,,,,,,,,,,,,,,,,7,3.264999866,3,1.114000082,1,0,1200,992,1,1199,addict,11113,2019-10-21_17h03.34.918,SurveyExpMetaMem,3.2.3,Win32,60
,,,,,,,,,,,,,,,,,,,,1,18.08599997,5,1.835000038,1,0,1200,276,1,1199,pastry,11113,2019-10-21_17h03.34.918,SurveyExpMetaMem,3.2.3,Win32,60
,,,,,,,,,,,,,,,,,,,,4,5.07799983,4,1.296000004,1,0,1200,312,1,1199,stench,11113,2019-10-21_17h03.34.918,SurveyExpMetaMem,3.2.3,Win32,60
,,,,,,,,,,,,,,,,,,,,8,9.041000128,2,1.875999928,1,0,1200,901,1,1199,rape,11113,2019-10-21_17h03.34.918,SurveyExpMetaMem,3.2.3,Win32,60
,,,,,,,,,,,,,,,,,,,,2,6.411999941,5,2.491000175,1,0,1200,818,1,1199,priest,11113,2019-10-21_17h03.34.918,SurveyExpMetaMem,3.2.3,Win32,60
,,,,,,,,,,,,,,,,,,,,6,10.45900011,3,0.812999964,1,0,1200,560,1,1199,spurn,11113,2019-10-21_17h03.34.918,SurveyExpMetaMem,3.2.3,Win32,60
,,,,,,,,,,,,,,,,,,,,7,2.568000078,2,3.00999999,1,0,1200,978,1,1199,starving,11113,2019-10-21_17h03.34.918,SurveyExpMetaMem,3.2.3,Win32,60
,,,,,,,,,,,,,,,,,,,,3,4.726999998,9,11.99100018,1,0,1200,897,1,1199,peaceful,11113,2019-10-21_17h03.34.918,SurveyExpMetaMem,3.2.3,Win32,60
,,,,,,,,,,,,,,,,,,,,1,6.894000053,5,0.844000101,1,0,1200,743,1,1199,herbal,11113,2019-10-21_17h03.34.918,SurveyExpMetaMem,3.2.3,Win32,60
,,,,,,,,,,,,,,,,,,,,8,5.048000097,5,2.432999849,1,0,1200,1161,1,1199,shock,11113,2019-10-21_17h03.34.918,SurveyExpMetaMem,3.2.3,Win32,60
,,,,,,,,,,,,,,,,,,,,3,13.50800014,7,1.69900012,1,0,1200,232,1,1199,prosper,11113,2019-10-21_17h03.34.918,SurveyExpMetaMem,3.2.3,Win32,60
,,,,,,,,,,,,,,,,,,,,1,9.618000031,5,0.599999905,1,0,1200,759,1,1199,prefer,11113,2019-10-21_17h03.34.918,SurveyExpMetaMem,3.2.3,Win32,60
,,,,,,,,,,,,,,,,,,,,7,8.154999971,2,2.357000113,1,0,1200,1004,1,1199,burglar,11113,2019-10-21_17h03.34.918,SurveyExpMetaMem,3.2.3,Win32,60
,,,,,,,,,,,,,,,,,,,,6,2.423000097,4,1.174000025,1,0,1200,1143,1,1199,arrogant,11113,2019-10-21_17h03.34.918,SurveyExpMetaMem,3.2.3,Win32,60
,,,,,,,,,,,,,,,,,,,,4,3.31099987,3,1.332000017,1,0,1200,369,1,1199,blind,11113,2019-10-21_17h03.34.918,SurveyExpMetaMem,3.2.3,Win32,60
,,,,,,,,,,,,,,,,,,,,6,11.63599992,4,1.427000046,1,0,1200,364,1,1199,stink,11113,2019-10-21_17h03.34.918,SurveyExpMetaMem,3.2.3,Win32,60
,,,,,,,,,,,,,,,,,,,,7,2.59100008,2,1.815000057,1,0,1200,353,1,1199,blister,11113,2019-10-21_17h03.34.918,SurveyExpMetaMem,3.2.3,Win32,60
,,,,,,,,,,,,,,,,,,,,2,16.75699997,5,0.623999834,1,0,1200,1085,1,1199,sever,11113,2019-10-21_17h03.34.918,SurveyExpMetaMem,3.2.3,Win32,60
,,,,,,,,,,,,,,,,,,,,4,2.292999983,7,1.755000114,1,0,1200,828,1,1199,cooperative,11113,2019-10-21_17h03.34.918,SurveyExpMetaMem,3.2.3,Win32,60
,,,,,,,,,,,,,,,,,,,,1,1.818000078,5,1.262000084,1,0,1200,660,1,1199,rock,11113,2019-10-21_17h03.34.918,SurveyExpMetaMem,3.2.3,Win32,60
,,,,,,,,,,,,,,,,,,,,2,10.773,5,1.217999935,1,0,1200,778,1,1199,adorn,11113,2019-10-21_17h03.34.918,SurveyExpMetaMem,3.2.3,Win32,60
,,,,,,,,,,,,,,,,,,,,4,3.553000212,5,3.410000086,1,0,1200,400,1,1199,urine,11113,2019-10-21_17h03.34.918,SurveyExpMetaMem,3.2.3,Win32,60
,,,,,,,,,,,,,,,,,,,,3,3.78000021,5,1.726999998,1,0,1200,71,1,1199,spirit,11113,2019-10-21_17h03.34.918,SurveyExpMetaMem,3.2.3,Win32,60
,,,,,,,,,,,,,,,,,,,,6,3.967000008,3,1.151000023,1,0,1200,933,1,1199,afraid,11113,2019-10-21_17h03.34.918,SurveyExpMetaMem,3.2.3,Win32,60
,,,,,,,,,,,,,,,,,,,,2,4.062999964,7,3.988000154,1,0,1200,893,1,1199,nature,11113,2019-10-21_17h03.34.918,SurveyExpMetaMem,3.2.3,Win32,60
,,,,,,,,,,,,,,,,,,,,7,3.890000105,7,1.137000084,1,0,1200,239,1,1199,compassionate,11113,2019-10-21_17h03.34.918,SurveyExpMetaMem,3.2.3,Win32,60
,,,,,,,,,,,,,,,,,,,,1,4.144999981,7,2.15899992,1,0,1200,640,1,1199,cabin,11113,2019-10-21_17h03.34.918,SurveyExpMetaMem,3.2.3,Win32,60
,,,,,,,,,,,,,,,,,,,,2,6.454999924,7,1.63499999,1,0,1200,864,1,1199,blanket,11113,2019-10-21_17h03.34.918,SurveyExpMetaMem,3.2.3,Win32,60
,,,,,,,,,,,,,,,,,,,,3,3.622999907,5,1.424999952,1,0,1200,620,1,1199,spray,11113,2019-10-21_17h03.34.918,SurveyExpMetaMem,3.2.3,Win32,60
,,,,,,,,,,,,,,,,,,,,8,2.388000011,8,1.414999962,1,0,1200,226,1,1199,prize,11113,2019-10-21_17h03.34.918,SurveyExpMetaMem,3.2.3,Win32,60
,,,,,,,,,,,,,,,,,,,,1,1.957000017,8,3.342000246,1,0,1200,841,1,1199,bathtub,11113,2019-10-21_17h03.34.918,SurveyExpMetaMem,3.2.3,Win32,60
,,,,,,,,,,,,,,,,,,,,1,4.80700016,5,1.094000101,1,0,1200,883,1,1199,sky,11113,2019-10-21_17h03.34.918,SurveyExpMetaMem,3.2.3,Win32,60
,,,,,,,,,,,,,,,,,,,,7,2.679000139,3,0.748000145,1,0,1200,1131,1,1199,envious,11113,2019-10-21_17h03.34.918,SurveyExpMetaMem,3.2.3,Win32,60
,,,,,,,,,,,,,,,,,,,,3,7.902000189,3,0.910000086,1,0,1200,531,1,1199,omit,11113,2019-10-21_17h03.34.918,SurveyExpMetaMem,3.2.3,Win32,60
,,,,,,,,,,,,,,,,,,,,4,4.142999887,3,3.227999926,1,0,1200,999,1,1199,burdened,11113,2019-10-21_17h03.34.918,SurveyExpMetaMem,3.2.3,Win32,60
,,,,,,,,,,,,,,,,,,,,6,4.128000021,7,1.174000025,1,0,1200,211,1,1199,surfer,11113,2019-10-21_17h03.34.918,SurveyExpMetaMem,3.2.3,Win32,60
,,,,,,,,,,,,,,,,,,,,7,30.96200013,5,9.289999962,1,0,1200,670,1,1199,urinate,11113,2019-10-21_17h03.34.918,SurveyExpMetaMem,3.2.3,Win32,60
,,,,,,,,,,,,,,,,,,,,7,13.46800017,3,1.696000099,1,0,1200,1114,1,1199,foe,11113,2019-10-21_17h03.34.918,SurveyExpMetaMem,3.2.3,Win32,60
,,,,,,,,,,,,,,,,,,,,5,3.345999956,4,1.39199996,1,0,1200,422,1,1199,doubtful,11113,2019-10-21_17h03.34.918,SurveyExpMetaMem,3.2.3,Win32,60
,,,,,,,,,,,,,,,,,,,,6,8.724999905,3,2.567000151,1,0,1200,556,1,1199,allege,11113,2019-10-21_17h03.34.918,SurveyExpMetaMem,3.2.3,Win32,60
,,,,,,,,,,,,,,,,,,,,1,19.70500016,6,1.692000151,1,0,1200,673,1,1199,bedspread,11113,2019-10-21_17h03.34.918,SurveyExpMetaMem,3.2.3,Win32,60
,,,,,,,,,,,,,,,,,,,,2,17.24100018,4,1.468999863,1,0,1200,374,1,1199,sluggish,11113,2019-10-21_17h03.34.918,SurveyExpMetaMem,3.2.3,Win32,60
,,,,,,,,,,,,,,,,,,,,1,1.899000168,5,0.644999981,1,0,1200,630,1,1199,website,11113,2019-10-21_17h03.34.918,SurveyExpMetaMem,3.2.3,Win32,60
,,,,,,,,,,,,,,,,,,,,2,3.64199996,5,1.148000002,1,0,1200,787,1,1199,dawn,11113,2019-10-21_17h03.34.918,SurveyExpMetaMem,3.2.3,Win32,60
,,,,,,,,,,,,,,,,,,,,3,5.460999966,7,1.432999849,1,0,1200,191,1,1199,compassion,11113,2019-10-21_17h03.34.918,SurveyExpMetaMem,3.2.3,Win32,60
,,,,,,,,,,,,,,,,,,,,3,2.312000036,5,1.348999977,1,0,1200,534,1,1199,rules,11113,2019-10-21_17h03.34.918,SurveyExpMetaMem,3.2.3,Win32,60
,,,,,,,,,,,,,,,,,,,,7,3.197000027,6,7.342000008,1,0,1200,158,1,1199,engage,11113,2019-10-21_17h03.34.918,SurveyExpMetaMem,3.2.3,Win32,60
,,,,,,,,,,,,,,,,,,,,3,4.234999895,5,1.00999999,1,0,1200,25,1,1199,charisma,11113,2019-10-21_17h03.34.918,SurveyExpMetaMem,3.2.3,Win32,60
,,,,,,,,,,,,,,,,,,,,1,2.445999861,5,1.752000093,1,0,1200,782,1,1199,open,11113,2019-10-21_17h03.34.918,SurveyExpMetaMem,3.2.3,Win32,60
,,,,,,,,,,,,,,,,,,,,7,5.075999975,8,1.292000055,1,0,1200,36,1,1199,puppy,11113,2019-10-21_17h03.34.918,SurveyExpMetaMem,3.2.3,Win32,60
,,,,,,,,,,,,,,,,,,,,8,3.423000097,7,2.292999983,1,0,1200,206,1,1199,comet,11113,2019-10-21_17h03.34.918,SurveyExpMetaMem,3.2.3,Win32,60
,,,,,,,,,,,,,,,,,,,,1,4.169000149,5,1.036000013,1,0,1200,625,1,1199,hat,11113,2019-10-21_17h03.34.918,SurveyExpMetaMem,3.2.3,Win32,60
,,,,,,,,,,,,,,,,,,,,8,15.43400002,3,1.637000084,1,0,1200,1068,1,1199,riot,11113,2019-10-21_17h03.34.918,SurveyExpMetaMem,3.2.3,Win32,60
,,,,,,,,,,,,,,,,,,,,3,1.911000013,5,1.690000057,1,0,1200,557,1,1199,class,11113,2019-10-21_17h03.34.918,SurveyExpMetaMem,3.2.3,Win32,60
,,,,,,,,,,,,,,,,,,,,8,6.687000036,2,0.901000023,1,0,1200,971,1,1199,crash,11113,2019-10-21_17h03.34.918,SurveyExpMetaMem,3.2.3,Win32,60
,,,,,,,,,,,,,,,,,,,,3,9.609999895,3,0.815000057,1,0,1200,403,1,1199,wither,11113,2019-10-21_17h03.34.918,SurveyExpMetaMem,3.2.3,Win32,60
,,,,,,,,,,,,,,,,,,,,5,10.27200007,3,1.389999866,1,0,1200,947,1,1199,shame,11113,2019-10-21_17h03.34.918,SurveyExpMetaMem,3.2.3,Win32,60
,,,,,,,,,,,,,,,,,,,,3,25.05999994,5,5.150000095,1,0,1200,157,1,1199,reveal,11113,2019-10-21_17h03.34.918,SurveyExpMetaMem,3.2.3,Win32,60
,,,,,,,,,,,,,,,,,,,,3,14.70700002,3,1.633000135,1,0,1200,340,1,1199,coward,11113,2019-10-21_17h03.34.918,SurveyExpMetaMem,3.2.3,Win32,60
,,,,,,,,,,,,,,,,,,,,5,2.898000002,5,1.065000057,1,0,1200,570,1,1199,muddy,11113,2019-10-21_17h03.34.918,SurveyExpMetaMem,3.2.3,Win32,60
,,,,,,,,,,,,,,,,,,,,7,10.39900017,6,1.398999929,1,0,1200,599,1,1199,obstinate,11113,2019-10-21_17h03.34.918,SurveyExpMetaMem,3.2.3,Win32,60
,,,,,,,,,,,,,,,,,,,,2,8.230000019,3,1.486000061,1,0,1200,379,1,1199,slob,11113,2019-10-21_17h03.34.918,SurveyExpMetaMem,3.2.3,Win32,60
,,,,,,,,,,,,,,,,,,,,7,1.927000046,3,1.395999908,1,0,1200,927,1,1199,jail,11113,2019-10-21_17h03.34.918,SurveyExpMetaMem,3.2.3,Win32,60
,,,,,,,,,,,,,,,,,,,,3,29.296,5,0.279999971,1,0,1200,578,1,1199,govern,11113,2019-10-21_17h03.34.918,SurveyExpMetaMem,3.2.3,Win32,60
,,,,,,,,,,,,,,,,,,,,6,4.759000063,2,2.49000001,1,0,1200,1023,1,1199,disorder,11113,2019-10-21_17h03.34.918,SurveyExpMetaMem,3.2.3,Win32,60
,,,,,,,,,,,,,,,,,,,,3,2.69900012,3,0.962000132,1,0,1200,359,1,1199,bored,11113,2019-10-21_17h03.34.918,SurveyExpMetaMem,3.2.3,Win32,60
,,,,,,,,,,,,,,,,,,,,8,3.907000065,3,1.628000021,1,0,1200,1090,1,1199,destruction,11113,2019-10-21_17h03.34.918,SurveyExpMetaMem,3.2.3,Win32,60
,,,,,,,,,,,,,,,,,,,,2,4.69299984,7,1.727999926,1,0,1200,189,1,1199,thoughtful,11113,2019-10-21_17h03.34.918,SurveyExpMetaMem,3.2.3,Win32,60
,,,,,,,,,,,,,,,,,,,,1,6.152999878,7,1.853000164,1,0,1200,817,1,1199,countryside,11113,2019-10-21_17h03.34.918,SurveyExpMetaMem,3.2.3,Win32,60
,,,,,,,,,,,,,,,,,,,,4,3.538000107,2,1.104000092,1,0,1200,350,1,1199,inadequate,11113,2019-10-21_17h03.34.918,SurveyExpMetaMem,3.2.3,Win32,60
,,,,,,,,,,,,,,,,,,,,1,1.726999998,5,0.965000153,1,0,1200,624,1,1199,tower,11113,2019-10-21_17h03.34.918,SurveyExpMetaMem,3.2.3,Win32,60
,,,,,,,,,,,,,,,,,,,,1,8.540999889,5,0.273000002,1,0,1200,619,1,1199,pulpit,11113,2019-10-21_17h03.34.918,SurveyExpMetaMem,3.2.3,Win32,60
,,,,,,,,,,,,,,,,,,,,2,3.188999891,6,1.508000135,1,0,1200,229,1,1199,heaven,11113,2019-10-21_17h03.34.918,SurveyExpMetaMem,3.2.3,Win32,60
,,,,,,,,,,,,,,,,,,,,7,17.2980001,7,1.32400012,1,0,1200,14,1,1199,attain,11113,2019-10-21_17h03.34.918,SurveyExpMetaMem,3.2.3,Win32,60
,,,,,,,,,,,,,,,,,,,,7,2.627000093,2,0.628000021,1,0,1200,925,1,1199,disloyal,11113,2019-10-21_17h03.34.918,SurveyExpMetaMem,3.2.3,Win32,60
,,,,,,,,,,,,,,,,,,,,6,6.156000137,6,0.895999908,1,0,1200,848,1,1199,graceful,11113,2019-10-21_17h03.34.918,SurveyExpMetaMem,3.2.3,Win32,60
,,,,,,,,,,,,,,,,,,,,8,2.743000031,8,2.118000031,1,0,1200,8,1,1199,extreme,11113,2019-10-21_17h03.34.918,SurveyExpMetaMem,3.2.3,Win32,60
,,,,,,,,,,,,,,,,,,,,3,14.18199992,5,6.398000002,1,0,1200,1091,1,1199,cram,11113,2019-10-21_17h03.34.918,SurveyExpMetaMem,3.2.3,Win32,60
,,,,,,,,,,,,,,,,,,,,6,3.281000137,3,0.825999975,1,0,1200,1016,1,1199,awful,11113,2019-10-21_17h03.34.918,SurveyExpMetaMem,3.2.3,Win32,60
,,,,,,,,,,,,,,,,,,,,7,2.980999947,2,1.743999958,1,0,1200,985,1,1199,pollution,11113,2019-10-21_17h03.34.918,SurveyExpMetaMem,3.2.3,Win32,60
,,,,,,,,,,,,,,,,,,,,3,2.654999971,4,1.657000065,1,0,1200,797,1,1199,hamburger,11113,2019-10-21_17h03.34.918,SurveyExpMetaMem,3.2.3,Win32,60
,,,,,,,,,,,,,,,,,,,,4,6.037999868,7,1.631999969,1,0,1200,146,1,1199,congratulations,11113,2019-10-21_17h03.34.918,SurveyExpMetaMem,3.2.3,Win32,60
,,,,,,,,,,,,,,,,,,,,6,5.003000021,7,1.59800005,1,0,1200,21,1,1199,game,11113,2019-10-21_17h03.34.918,SurveyExpMetaMem,3.2.3,Win32,60
,,,,,,,,,,,,,,,,,,,,7,2.041000128,3,1.279999971,1,0,1200,470,1,1199,cynical,11113,2019-10-21_17h03.34.918,SurveyExpMetaMem,3.2.3,Win32,60
,,,,,,,,,,,,,,,,,,,,2,11.82500005,4,6.092999935,1,0,1200,567,1,1199,folly,11113,2019-10-21_17h03.34.918,SurveyExpMetaMem,3.2.3,Win32,60
,,,,,,,,,,,,,,,,,,,,5,9.789000034,5,1.209000111,1,0,1200,490,1,1199,detached,11113,2019-10-21_17h03.34.918,SurveyExpMetaMem,3.2.3,Win32,60
,,,,,,,,,,,,,,,,,,,,2,6.171000004,5,8.630999804,1,0,1200,768,1,1199,trait,11113,2019-10-21_17h03.34.918,SurveyExpMetaMem,3.2.3,Win32,60
,,,,,,,,,,,,,,,,,,,,2,10.36399984,6,1.444999933,1,0,1200,868,1,1199,grace,11113,2019-10-21_17h03.34.918,SurveyExpMetaMem,3.2.3,Win32,60
,,,,,,,,,,,,,,,,,,,,2,2.217000008,7,0.882999897,1,0,1200,882,1,1199,gentle,11113,2019-10-21_17h03.34.918,SurveyExpMetaMem,3.2.3,Win32,60
,,,,,,,,,,,,,,,,,,,,8,1.901000023,2,0.44900012,1,0,1200,916,1,1199,starvation,11113,2019-10-21_17h03.34.918,SurveyExpMetaMem,3.2.3,Win32,60
,,,,,,,,,,,,,,,,,,,,6,8.684000015,3,1.985999823,1,0,1200,540,1,1199,derelict,11113,2019-10-21_17h03.34.918,SurveyExpMetaMem,3.2.3,Win32,60
,,,,,,,,,,,,,,,,,,,,5,8.480999947,3,5.948999882,1,0,1200,1040,1,1199,communism,11113,2019-10-21_17h03.34.918,SurveyExpMetaMem,3.2.3,Win32,60
,,,,,,,,,,,,,,,,,,,,6,1.756999969,3,3.194999933,1,0,1200,451,1,1199,lame,11113,2019-10-21_17h03.34.918,SurveyExpMetaMem,3.2.3,Win32,60
,,,,,,,,,,,,,,,,,,,,3,14.4059999,6,7.883999825,1,0,1200,498,1,1199,alimony,11113,2019-10-21_17h03.34.918,SurveyExpMetaMem,3.2.3,Win32,60
,,,,,,,,,,,,,,,,,,,,6,6.381999969,2,8.641000032,1,0,1200,957,1,1199,debt,11113,2019-10-21_17h03.34.918,SurveyExpMetaMem,3.2.3,Win32,60
,,,,,,,,,,,,,,,,,,,,2,1.913000107,5,2.295000076,1,0,1200,789,1,1199,green,11113,2019-10-21_17h03.34.918,SurveyExpMetaMem,3.2.3,Win32,60
,,,,,,,,,,,,,,,,,,,,8,5.580000162,1,2.072000027,1,0,1200,1028,1,1199,terror,11113,2019-10-21_17h03.34.918,SurveyExpMetaMem,3.2.3,Win32,60
,,,,,,,,,,,,,,,,,,,,7,9.47300005,5,2.725000143,1,0,1200,537,1,1199,absurd,11113,2019-10-21_17h03.34.918,SurveyExpMetaMem,3.2.3,Win32,60
,,,,,,,,,,,,,,,,,,,,7,2.578000069,7,2.279999971,1,0,1200,225,1,1199,strong,11113,2019-10-21_17h03.34.918,SurveyExpMetaMem,3.2.3,Win32,60
,,,,,,,,,,,,,,,,,,,,7,5.173000097,2,4.608999968,1,0,1200,968,1,1199,insult,11113,2019-10-21_17h03.34.918,SurveyExpMetaMem,3.2.3,Win32,60
,,,,,,,,,,,,,,,,,,,,7,11,2,1.180000067,1,0,1200,1089,1,1199,ridicule,11113,2019-10-21_17h03.34.918,SurveyExpMetaMem,3.2.3,Win32,60
,,,,,,,,,,,,,,,,,,,,2,2.039000034,5,1.714999914,1,0,1200,1077,1,1199,unsure,11113,2019-10-21_17h03.34.918,SurveyExpMetaMem,3.2.3,Win32,60
,,,,,,,,,,,,,,,,,,,,8,2.053999901,3,1.891000032,1,0,1200,990,1,1199,enraged,11113,2019-10-21_17h03.34.918,SurveyExpMetaMem,3.2.3,Win32,60
,,,,,,,,,,,,,,,,,,,,2,1.819999933,7,2.127000093,1,0,1200,857,1,1199,thankful,11113,2019-10-21_17h03.34.918,SurveyExpMetaMem,3.2.3,Win32,60
,,,,,,,,,,,,,,,,,,,,2,144.1670001,7,2.334000111,1,0,1200,288,1,1199,tasty,11113,2019-10-21_17h03.34.918,SurveyExpMetaMem,3.2.3,Win32,60
,,,,,,,,,,,,,,,,,,,,7,1.975999832,2,1.434000015,1,0,1200,1171,1,1199,chaos,11113,2019-10-21_17h03.34.918,SurveyExpMetaMem,3.2.3,Win32,60
,,,,,,,,,,,,,,,,,,,,7,6.949999809,6,1.815999985,1,0,1200,404,1,1199,nuisance,11113,2019-10-21_17h03.34.918,SurveyExpMetaMem,3.2.3,Win32,60
,,,,,,,,,,,,,,,,,,,,1,2.945999861,5,1.715000153,1,0,1200,4,1,1199,night,11113,2019-10-21_17h03.34.918,SurveyExpMetaMem,3.2.3,Win32,60
,,,,,,,,,,,,,,,,,,,,6,2.327000141,7,1.28399992,1,0,1200,887,1,1199,elegant,11113,2019-10-21_17h03.34.918,SurveyExpMetaMem,3.2.3,Win32,60
,,,,,,,,,,,,,,,,,,,,2,2.830000162,5,1.391000032,1,0,1200,201,1,1199,gorilla,11113,2019-10-21_17h03.34.918,SurveyExpMetaMem,3.2.3,Win32,60
,,,,,,,,,,,,,,,,,,,,5,8.305000067,7,1.787000179,1,0,1200,282,1,1199,luck,11113,2019-10-21_17h03.34.918,SurveyExpMetaMem,3.2.3,Win32,60
,,,,,,,,,,,,,,,,,,,,8,2.174999952,1,1.080999851,1,0,1200,905,1,1199,suffocate,11113,2019-10-21_17h03.34.918,SurveyExpMetaMem,3.2.3,Win32,60
,,,,,,,,,,,,,,,,,,,,2,60.12700009,5,1.665999889,1,0,1200,812,1,1199,harp,11113,2019-10-21_17h03.34.918,SurveyExpMetaMem,3.2.3,Win32,60
,,,,,,,,,,,,,,,,,,,,7,10.73099995,8,1.148999929,1,0,1200,281,1,1199,summer,11113,2019-10-21_17h03.34.918,SurveyExpMetaMem,3.2.3,Win32,60
,,,,,,,,,,,,,,,,,,,,5,2265.333,3,1.900000095,1,0,1200,358,1,1199,waste,11113,2019-10-21_17h03.34.918,SurveyExpMetaMem,3.2.3,Win32,60
,,,,,,,,,,,,,,,,,,,,5,2.616999865,5,1.208000183,1,0,1200,535,1,1199,ramble,11113,2019-10-21_17h03.34.918,SurveyExpMetaMem,3.2.3,Win32,60
,,,,,,,,,,,,,,,,,,,,2,12.51300001,3,3.34800005,1,0,1200,1074,1,1199,detain,11113,2019-10-21_17h03.34.918,SurveyExpMetaMem,3.2.3,Win32,60
,,,,,,,,,,,,,,,,,,,,6,3.217999935,5,1.980000019,1,0,1200,216,1,1199,vigorous,11113,2019-10-21_17h03.34.918,SurveyExpMetaMem,3.2.3,Win32,60
,,,,,,,,,,,,,,,,,,,,1,2.403000116,5,0.847000122,1,0,1200,725,1,1199,checkerboard,11113,2019-10-21_17h03.34.918,SurveyExpMetaMem,3.2.3,Win32,60
,,,,,,,,,,,,,,,,,,,,6,2.059999943,7,1.026000023,1,0,1200,35,1,1199,bright,11113,2019-10-21_17h03.34.918,SurveyExpMetaMem,3.2.3,Win32,60
,,,,,,,,,,,,,,,,,,,,7,1.542000055,7,0.414000034,1,0,1200,48,1,1199,excellence,11113,2019-10-21_17h03.34.918,SurveyExpMetaMem,3.2.3,Win32,60
,,,,,,,,,,,,,,,,,,,,7,1.688999891,3,0.840000153,1,0,1200,928,1,1199,cruel,11113,2019-10-21_17h03.34.918,SurveyExpMetaMem,3.2.3,Win32,60
,,,,,,,,,,,,,,,,,,,,1,2.548000097,5,0.985000134,1,0,1200,775,1,1199,pancakes,11113,2019-10-21_17h03.34.918,SurveyExpMetaMem,3.2.3,Win32,60
,,,,,,,,,,,,,,,,,,,,2,440.1389999,6,1.514999866,1,0,1200,524,1,1199,sigh,11113,2019-10-21_17h03.34.918,SurveyExpMetaMem,3.2.3,Win32,60
,,,,,,,,,,,,,,,,,,,,7,1.400000095,6,0.039000034,1,0,1200,577,1,1199,retreat,11113,2019-10-21_17h03.34.918,SurveyExpMetaMem,3.2.3,Win32,60
,,,,,,,,,,,,,,,,,,,,4,8.145000219,6,0.980999947,1,0,1200,120,1,1199,imaginative,11113,2019-10-21_17h03.34.918,SurveyExpMetaMem,3.2.3,Win32,60
,,,,,,,,,,,,,,,,,,,,1,1.292999983,7,1.573999882,1,0,1200,706,1,1199,cat,11113,2019-10-21_17h03.34.918,SurveyExpMetaMem,3.2.3,Win32,60
,,,,,,,,,,,,,,,,,,,,7,1.837000132,3,0.790999889,1,0,1200,402,1,1199,dismissive,11113,2019-10-21_17h03.34.918,SurveyExpMetaMem,3.2.3,Win32,60
,,,,,,,,,,,,,,,,,,,,5,5.794000149,7,1.364000082,1,0,1200,228,1,1199,suite,11113,2019-10-21_17h03.34.918,SurveyExpMetaMem,3.2.3,Win32,60
,,,,,,,,,,,,,,,,,,,,4,4.220000029,5,1.430000067,1,0,1200,257,1,1199,cockpit,11113,2019-10-21_17h03.34.918,SurveyExpMetaMem,3.2.3,Win32,60
,,,,,,,,,,,,,,,,,,,,3,2.697000027,6,1.414999962,1,0,1200,285,1,1199,gold,11113,2019-10-21_17h03.34.918,SurveyExpMetaMem,3.2.3,Win32,60
,,,,,,,,,,,,,,,,,,,,7,1.98300004,7,1.819000006,1,0,1200,193,1,1199,party,11113,2019-10-21_17h03.34.918,SurveyExpMetaMem,3.2.3,Win32,60
,,,,,,,,,,,,,,,,,,,,7,2.674000025,2,0.444999933,1,0,1200,326,1,1199,scam,11113,2019-10-21_17h03.34.918,SurveyExpMetaMem,3.2.3,Win32,60
,,,,,,,,,,,,,,,,,,,,6,2.679000139,2,0.967999935,1,0,1200,969,1,1199,whore,11113,2019-10-21_17h03.34.918,SurveyExpMetaMem,3.2.3,Win32,60
,,,,,,,,,,,,,,,,,,,,5,12.86199999,5,2.058000088,1,0,1200,503,1,1199,sludge,11113,2019-10-21_17h03.34.918,SurveyExpMetaMem,3.2.3,Win32,60
,,,,,,,,,,,,,,,,,,,,7,3.714000225,3,1.07400012,1,0,1200,1115,1,1199,invade,11113,2019-10-21_17h03.34.918,SurveyExpMetaMem,3.2.3,Win32,60
,,,,,,,,,,,,,,,,,,,,5,13.83999991,6,1.360000134,1,0,1200,1162,1,1199,baffle,11113,2019-10-21_17h03.34.918,SurveyExpMetaMem,3.2.3,Win32,60
,,,,,,,,,,,,,,,,,,,,1,2.806000233,5,0.312000036,1,0,1200,613,1,1199,cup,11113,2019-10-21_17h03.34.918,SurveyExpMetaMem,3.2.3,Win32,60
,,,,,,,,,,,,,,,,,,,,6,1.673000097,4,2.430000067,1,0,1200,499,1,1199,stop,11113,2019-10-21_17h03.34.918,SurveyExpMetaMem,3.2.3,Win32,60
,,,,,,,,,,,,,,,,,,,,5,2.302000046,5,0.677999973,1,0,1200,800,1,1199,authentic,11113,2019-10-21_17h03.34.918,SurveyExpMetaMem,3.2.3,Win32,60
,,,,,,,,,,,,,,,,,,,,6,9.514000177,4,8.473999977,1,0,1200,1159,1,1199,rifle,11113,2019-10-21_17h03.34.918,SurveyExpMetaMem,3.2.3,Win32,60
,,,,,,,,,,,,,,,,,,,,7,3.85800004,7,3.02699995,1,0,1200,184,1,1199,surprised,11113,2019-10-21_17h03.34.918,SurveyExpMetaMem,3.2.3,Win32,60
,,,,,,,,,,,,,,,,,,,,6,2.295000076,5,0.568000078,1,0,1200,1191,1,1199,evade,11113,2019-10-21_17h03.34.918,SurveyExpMetaMem,3.2.3,Win32,60
,,,,,,,,,,,,,,,,,,,,7,2.847000122,3,0.922999859,1,0,1200,533,1,1199,busy,11113,2019-10-21_17h03.34.918,SurveyExpMetaMem,3.2.3,Win32,60
,,,,,,,,,,,,,,,,,,,,8,2.767000198,8,1.118000031,1,0,1200,885,1,1199,cozy,11113,2019-10-21_17h03.34.918,SurveyExpMetaMem,3.2.3,Win32,60
,,,,,,,,,,,,,,,,,,,,6,1.986999989,6,1.478999853,1,0,1200,278,1,1199,king,11113,2019-10-21_17h03.34.918,SurveyExpMetaMem,3.2.3,Win32,60
,,,,,,,,,,,,,,,,,,,,2,2.215000153,5,2.789000034,1,0,1200,850,1,1199,lake,11113,2019-10-21_17h03.34.918,SurveyExpMetaMem,3.2.3,Win32,60
,,,,,,,,,,,,,,,,,,,,7,11.59600019,3,0.9150002,1,0,1200,1087,1,1199,affair,11113,2019-10-21_17h03.34.918,SurveyExpMetaMem,3.2.3,Win32,60
,,,,,,,,,,,,,,,,,,,,2,3.023999929,5,1.296999931,1,0,1200,475,1,1199,nameless,11113,2019-10-21_17h03.34.918,SurveyExpMetaMem,3.2.3,Win32,60
,,,,,,,,,,,,,,,,,,,,6,4.470999956,4,1.346999884,1,0,1200,566,1,1199,obscure,11113,2019-10-21_17h03.34.918,SurveyExpMetaMem,3.2.3,Win32,60
,,,,,,,,,,,,,,,,,,,,5,4.114000082,5,1.190999985,1,0,1200,1165,1,1199,revolt,11113,2019-10-21_17h03.34.918,SurveyExpMetaMem,3.2.3,Win32,60
,,,,,,,,,,,,,,,,,,,,6,12.329,4,0.974999905,1,0,1200,315,1,1199,zit,11113,2019-10-21_17h03.34.918,SurveyExpMetaMem,3.2.3,Win32,60
,,,,,,,,,,,,,,,,,,,,2,5.262000084,5,0.573000193,1,0,1200,609,1,1199,candlestick,11113,2019-10-21_17h03.34.918,SurveyExpMetaMem,3.2.3,Win32,60
,,,,,,,,,,,,,,,,,,,,7,1.811000109,7,1.132999897,1,0,1200,97,1,1199,enthusiastic,11113,2019-10-21_17h03.34.918,SurveyExpMetaMem,3.2.3,Win32,60
,,,,,,,,,,,,,,,,,,,,6,2.941999912,3,0.389999866,1,0,1200,313,1,1199,rotten,11113,2019-10-21_17h03.34.918,SurveyExpMetaMem,3.2.3,Win32,60
,,,,,,,,,,,,,,,,,,,,1,2.381000042,6,1.416000128,1,0,1200,840,1,1199,cuisine,11113,2019-10-21_17h03.34.918,SurveyExpMetaMem,3.2.3,Win32,60
,,,,,,,,,,,,,,,,,,,,4,3.753000021,4,1.777999878,1,0,1200,329,1,1199,worse,11113,2019-10-21_17h03.34.918,SurveyExpMetaMem,3.2.3,Win32,60
,,,,,,,,,,,,,,,,,,,,2,2.129000187,5,0.981999874,1,0,1200,796,1,1199,rose,11113,2019-10-21_17h03.34.918,SurveyExpMetaMem,3.2.3,Win32,60
,,,,,,,,,,,,,,,,,,,,4,1.897000074,4,1.129999876,1,0,1200,442,1,1199,foolish,11113,2019-10-21_17h03.34.918,SurveyExpMetaMem,3.2.3,Win32,60
,,,,,,,,,,,,,,,,,,,,7,2.104000092,2,1.319000006,1,0,1200,943,1,1199,trauma,11113,2019-10-21_17h03.34.918,SurveyExpMetaMem,3.2.3,Win32,60
,,,,,,,,,,,,,,,,,,,,6,16.15600014,3,0.806999922,1,0,1200,471,1,1199,chump,11113,2019-10-21_17h03.34.918,SurveyExpMetaMem,3.2.3,Win32,60
,,,,,,,,,,,,,,,,,,,,1,3.544000149,5,0.598999977,1,0,1200,774,1,1199,leaves,11113,2019-10-21_17h03.34.918,SurveyExpMetaMem,3.2.3,Win32,60
,,,,,,,,,,,,,,,,,,,,1,1.821000099,5,0.122999907,1,0,1200,807,1,1199,person,11113,2019-10-21_17h03.34.918,SurveyExpMetaMem,3.2.3,Win32,60
,,,,,,,,,,,,,,,,,,,,4,2.92599988,5,0.929000139,1,0,1200,708,1,1199,nursery,11113,2019-10-21_17h03.34.918,SurveyExpMetaMem,3.2.3,Win32,60
,,,,,,,,,,,,,,,,,,,,7,6.730999947,2,0.917000055,1,0,1200,444,1,1199,mold,11113,2019-10-21_17h03.34.918,SurveyExpMetaMem,3.2.3,Win32,60
,,,,,,,,,,,,,,,,,,,,6,5.561000109,4,1.359999895,1,0,1200,1113,1,1199,dagger,11113,2019-10-21_17h03.34.918,SurveyExpMetaMem,3.2.3,Win32,60
,,,,,,,,,,,,,,,,,,,,1,7.620999813,5,0.462000132,1,0,1200,472,1,1199,bald,11113,2019-10-21_17h03.34.918,SurveyExpMetaMem,3.2.3,Win32,60
,,,,,,,,,,,,,,,,,,,,2,6.121999979,6,4.330000162,1,0,1200,762,1,1199,orchestra,11113,2019-10-21_17h03.34.918,SurveyExpMetaMem,3.2.3,Win32,60
,,,,,,,,,,,,,,,,,,,,1,2.176000118,5,0.364000082,1,0,1200,553,1,1199,corner,11113,2019-10-21_17h03.34.918,SurveyExpMetaMem,3.2.3,Win32,60
,,,,,,,,,,,,,,,,,,,,2,4.129999876,6,1.924000025,1,0,1200,631,1,1199,delicate,11113,2019-10-21_17h03.34.918,SurveyExpMetaMem,3.2.3,Win32,60
,,,,,,,,,,,,,,,,,,,,6,2.144000053,3,1.114000082,1,0,1200,355,1,1199,graveyard,11113,2019-10-21_17h03.34.918,SurveyExpMetaMem,3.2.3,Win32,60
,,,,,,,,,,,,,,,,,,,,2,3.496000051,5,1.052000046,1,0,1200,27,1,1199,gourmet,11113,2019-10-21_17h03.34.918,SurveyExpMetaMem,3.2.3,Win32,60
,,,,,,,,,,,,,,,,,,,,4,4.305000067,3,2.546000004,1,0,1200,1174,1,1199,beast,11113,2019-10-21_17h03.34.918,SurveyExpMetaMem,3.2.3,Win32,60
,,,,,,,,,,,,,,,,,,,,2,15.90700006,7,1.17200017,1,0,1200,231,1,1199,cherish,11113,2019-10-21_17h03.34.918,SurveyExpMetaMem,3.2.3,Win32,60
,,,,,,,,,,,,,,,,,,,,4,6.42200017,3,0.713000059,1,0,1200,413,1,1199,deficient,11113,2019-10-21_17h03.34.918,SurveyExpMetaMem,3.2.3,Win32,60
,,,,,,,,,,,,,,,,,,,,8,3.66899991,3,10.34200001,1,0,1200,948,1,1199,pain,11113,2019-10-21_17h03.34.918,SurveyExpMetaMem,3.2.3,Win32,60
,,,,,,,,,,,,,,,,,,,,2,3.428999901,5,3.064999819,1,0,1200,562,1,1199,average,11113,2019-10-21_17h03.34.918,SurveyExpMetaMem,3.2.3,Win32,60
,,,,,,,,,,,,,,,,,,,,6,3.586000204,7,2.039000034,1,0,1200,237,1,1199,beautiful,11113,2019-10-21_17h03.34.918,SurveyExpMetaMem,3.2.3,Win32,60
,,,,,,,,,,,,,,,,,,,,7,1.789000034,5,2.486000061,1,0,1200,1150,1,1199,forceful,11113,2019-10-21_17h03.34.918,SurveyExpMetaMem,3.2.3,Win32,60
,,,,,,,,,,,,,,,,,,,,7,2.423000097,1,1.291000128,1,0,1200,903,1,1199,cancer,11113,2019-10-21_17h03.34.918,SurveyExpMetaMem,3.2.3,Win32,60
,,,,,,,,,,,,,,,,,,,,1,1.694000006,5,0.812999964,1,0,1200,761,1,1199,corn,11113,2019-10-21_17h03.34.918,SurveyExpMetaMem,3.2.3,Win32,60
,,,,,,,,,,,,,,,,,,,,2,10.67299986,5,0.934999943,1,0,1200,510,1,1199,excuse,11113,2019-10-21_17h03.34.918,SurveyExpMetaMem,3.2.3,Win32,60
,,,,,,,,,,,,,,,,,,,,6,4.988000154,7,0.985000134,1,0,1200,261,1,1199,windsurfers,11113,2019-10-21_17h03.34.918,SurveyExpMetaMem,3.2.3,Win32,60
,,,,,,,,,,,,,,,,,,,,2,4.075000048,5,0.327000141,1,0,1200,162,1,1199,royalty,11113,2019-10-21_17h03.34.918,SurveyExpMetaMem,3.2.3,Win32,60
,,,,,,,,,,,,,,,,,,,,6,2.067000151,3,2.227000237,1,0,1200,1021,1,1199,attack,11113,2019-10-21_17h03.34.918,SurveyExpMetaMem,3.2.3,Win32,60
,,,,,,,,,,,,,,,,,,,,6,5.257999897,3,0.957999945,1,0,1200,1026,1,1199,crisis,11113,2019-10-21_17h03.34.918,SurveyExpMetaMem,3.2.3,Win32,60
,,,,,,,,,,,,,,,,,,,,1,2.977999926,5,0.210999966,1,0,1200,716,1,1199,blouse,11113,2019-10-21_17h03.34.918,SurveyExpMetaMem,3.2.3,Win32,60
,,,,,,,,,,,,,,,,,,,,3,2.190000057,6,2.779000044,1,0,1200,127,1,1199,glamorous,11113,2019-10-21_17h03.34.918,SurveyExpMetaMem,3.2.3,Win32,60
,,,,,,,,,,,,,,,,,,,,7,1.986000061,2,1.832999945,1,0,1200,926,1,1199,dead,11113,2019-10-21_17h03.34.918,SurveyExpMetaMem,3.2.3,Win32,60
,,,,,,,,,,,,,,,,,,,,7,1.974000216,7,0.236999989,1,0,1200,15,1,1199,curiosity,11113,2019-10-21_17h03.34.918,SurveyExpMetaMem,3.2.3,Win32,60
,,,,,,,,,,,,,,,,,,,,3,3.430000067,3,1.546000004,1,0,1200,565,1,1199,frozen,11113,2019-10-21_17h03.34.918,SurveyExpMetaMem,3.2.3,Win32,60
,,,,,,,,,,,,,,,,,,,,7,2.542000055,3,0.920000076,1,0,1200,1009,1,1199,frightened,11113,2019-10-21_17h03.34.918,SurveyExpMetaMem,3.2.3,Win32,60
,,,,,,,,,,,,,,,,,,,,6,4.775000095,3,2.789999962,1,0,1200,958,1,1199,traitor,11113,2019-10-21_17h03.34.918,SurveyExpMetaMem,3.2.3,Win32,60
,,,,,,,,,,,,,,,,,,,,2,4.36500001,5,3.542999983,1,0,1200,1119,1,1199,confusion,11113,2019-10-21_17h03.34.918,SurveyExpMetaMem,3.2.3,Win32,60
,,,,,,,,,,,,,,,,,,,,7,2.23300004,3,0.743000031,1,0,1200,946,1,1199,amputate,11113,2019-10-21_17h03.34.918,SurveyExpMetaMem,3.2.3,Win32,60
,,,,,,,,,,,,,,,,,,,,7,18.74699998,2,1.494999886,1,0,1200,907,1,1199,terrorist,11113,2019-10-21_17h03.34.918,SurveyExpMetaMem,3.2.3,Win32,60
,,,,,,,,,,,,,,,,,,,,7,5.498000145,2,1.802000046,1,0,1200,997,1,1199,injury,11113,2019-10-21_17h03.34.918,SurveyExpMetaMem,3.2.3,Win32,60
,,,,,,,,,,,,,,,,,,,,1,8.259000063,5,0.299999952,1,0,1200,501,1,1199,dustpan,11113,2019-10-21_17h03.34.918,SurveyExpMetaMem,3.2.3,Win32,60
,,,,,,,,,,,,,,,,,,,,6,8.490999937,3,1.112999916,1,0,1200,1020,1,1199,malice,11113,2019-10-21_17h03.34.918,SurveyExpMetaMem,3.2.3,Win32,60
,,,,,,,,,,,,,,,,,,,,3,4.455000162,5,1.35800004,1,0,1200,479,1,1199,period,11113,2019-10-21_17h03.34.918,SurveyExpMetaMem,3.2.3,Win32,60
,,,,,,,,,,,,,,,,,,,,2,4.039000034,5,1.860999823,1,0,1200,10,1,1199,cheerleader,11113,2019-10-21_17h03.34.918,SurveyExpMetaMem,3.2.3,Win32,60
,,,,,,,,,,,,,,,,,,,,3,4.414000034,5,0.681999922,1,0,1200,572,1,1199,cast,11113,2019-10-21_17h03.34.918,SurveyExpMetaMem,3.2.3,Win32,60
,,,,,,,,,,,,,,,,,,,,2,18.75200009,5,1.172999859,1,0,1200,729,1,1199,velvet,11113,2019-10-21_17h03.34.918,SurveyExpMetaMem,3.2.3,Win32,60
,,,,,,,,,,,,,,,,,,,,2,2.796000004,5,0.818000078,1,0,1200,530,1,1199,erase,11113,2019-10-21_17h03.34.918,SurveyExpMetaMem,3.2.3,Win32,60
,,,,,,,,,,,,,,,,,,,,7,11.24300003,3,1.35800004,1,0,1200,476,1,1199,warden,11113,2019-10-21_17h03.34.918,SurveyExpMetaMem,3.2.3,Win32,60
,,,,,,,,,,,,,,,,,,,,1,4.236000061,5,0.243999958,1,0,1200,633,1,1199,cattle,11113,2019-10-21_17h03.34.918,SurveyExpMetaMem,3.2.3,Win32,60
,,,,,,,,,,,,,,,,,,,,6,2.325999975,2,0.776000023,1,0,1200,1038,1,1199,pervert,11113,2019-10-21_17h03.34.918,SurveyExpMetaMem,3.2.3,Win32,60
,,,,,,,,,,,,,,,,,,,,8,4.659000158,3,1.529999971,1,0,1200,1096,1,1199,flood,11113,2019-10-21_17h03.34.918,SurveyExpMetaMem,3.2.3,Win32,60
,,,,,,,,,,,,,,,,,,,,8,4.146000147,2,0.391000032,1,0,1200,961,1,1199,crucify,11113,2019-10-21_17h03.34.918,SurveyExpMetaMem,3.2.3,Win32,60
,,,,,,,,,,,,,,,,,,,,6,6.832000017,6,2.950999975,1,0,1200,129,1,1199,fly,11113,2019-10-21_17h03.34.918,SurveyExpMetaMem,3.2.3,Win32,60
,,,,,,,,,,,,,,,,,,,,4,2.899999857,7,1.578999996,1,0,1200,64,1,1199,brain,11113,2019-10-21_17h03.34.918,SurveyExpMetaMem,3.2.3,Win32,60
,,,,,,,,,,,,,,,,,,,,3,4.55099988,6,1.288000107,1,0,1200,125,1,1199,dancing,11113,2019-10-21_17h03.34.918,SurveyExpMetaMem,3.2.3,Win32,60
,,,,,,,,,,,,,,,,,,,,6,0.055000067,5,14.06799984,1,0,1200,623,1,1199,suburban,11113,2019-10-21_17h03.34.918,SurveyExpMetaMem,3.2.3,Win32,60
,,,,,,,,,,,,,,,,,,,,1,4.561000109,5,0.185000181,1,0,1200,594,1,1199,moss,11113,2019-10-21_17h03.34.918,SurveyExpMetaMem,3.2.3,Win32,60
,,,,,,,,,,,,,,,,,,,,6,7.492000103,5,2.69299984,1,0,1200,1155,1,1199,tangle,11113,2019-10-21_17h03.34.918,SurveyExpMetaMem,3.2.3,Win32,60
,,,,,,,,,,,,,,,,,,,,1,6.618000031,5,0.661000013,1,0,1200,606,1,1199,easel,11113,2019-10-21_17h03.34.918,SurveyExpMetaMem,3.2.3,Win32,60
,,,,,,,,,,,,,,,,,,,,7,1.877000093,2,0.374000072,1,0,1200,983,1,1199,demonic,11113,2019-10-21_17h03.34.918,SurveyExpMetaMem,3.2.3,Win32,60
,,,,,,,,,,,,,,,,,,,,2,3.302000046,4,1.633000135,1,0,1200,167,1,1199,casino,11113,2019-10-21_17h03.34.918,SurveyExpMetaMem,3.2.3,Win32,60
,,,,,,,,,,,,,,,,,,,,1,2.414999962,5,0.225000143,1,0,1200,653,1,1199,detail,11113,2019-10-21_17h03.34.918,SurveyExpMetaMem,3.2.3,Win32,60
,,,,,,,,,,,,,,,,,,,,7,6.335999966,2,3.029000044,1,0,1200,1057,1,1199,deceit,11113,2019-10-21_17h03.34.918,SurveyExpMetaMem,3.2.3,Win32,60
,,,,,,,,,,,,,,,,,,,,2,20.48799992,5,2.008000135,1,0,1200,366,1,1199,fatigue,11113,2019-10-21_17h03.34.918,SurveyExpMetaMem,3.2.3,Win32,60
,,,,,,,,,,,,,,,,,,,,1,2.222000122,5,0.197999954,1,0,1200,730,1,1199,slogan,11113,2019-10-21_17h03.34.918,SurveyExpMetaMem,3.2.3,Win32,60
,,,,,,,,,,,,,,,,,,,,8,2.823999882,1,0.121999979,1,0,1200,915,1,1199,abuse,11113,2019-10-21_17h03.34.918,SurveyExpMetaMem,3.2.3,Win32,60
,,,,,,,,,,,,,,,,,,,,1,2.277999878,5,0.167000055,1,0,1200,1187,1,1199,drill,11113,2019-10-21_17h03.34.918,SurveyExpMetaMem,3.2.3,Win32,60
,,,,,,,,,,,,,,,,,,,,1,1.427000046,5,0.107000113,1,0,1200,690,1,1199,similar,11113,2019-10-21_17h03.34.918,SurveyExpMetaMem,3.2.3,Win32,60
,,,,,,,,,,,,,,,,,,,,7,4.392999887,3,0.201999903,1,0,1200,342,1,1199,alienation,11113,2019-10-21_17h03.34.918,SurveyExpMetaMem,3.2.3,Win32,60
,,,,,,,,,,,,,,,,,,,,7,9.874000072,2,0.31099987,1,0,1200,913,1,1199,ulcer,11113,2019-10-21_17h03.34.918,SurveyExpMetaMem,3.2.3,Win32,60
,,,,,,,,,,,,,,,,,,,,1,20.18499994,6,0.942000151,1,0,1200,23,1,1199,earn,11113,2019-10-21_17h03.34.918,SurveyExpMetaMem,3.2.3,Win32,60
,,,,,,,,,,,,,,,,,,,,7,5.078000069,3,0.785000086,1,0,1200,1124,1,1199,seize,11113,2019-10-21_17h03.34.918,SurveyExpMetaMem,3.2.3,Win32,60
,,,,,,,,,,,,,,,,,,,,7,13.00099993,2,0.683000088,1,0,1200,354,1,1199,cowardice,11113,2019-10-21_17h03.34.918,SurveyExpMetaMem,3.2.3,Win32,60
,,,,,,,,,,,,,,,,,,,,7,10.829,2,0.928000212,1,0,1200,1034,1,1199,pester,11113,2019-10-21_17h03.34.918,SurveyExpMetaMem,3.2.3,Win32,60
,,,,,,,,,,,,,,,,,,,,2,2.603000164,7,3.200000048,1,0,1200,888,1,1199,refreshment,11113,2019-10-21_17h03.34.918,SurveyExpMetaMem,3.2.3,Win32,60
,,,,,,,,,,,,,,,,,,,,2,3.583000183,2,1.315999985,1,0,1200,931,1,1199,overweight,11113,2019-10-21_17h03.34.918,SurveyExpMetaMem,3.2.3,Win32,60
,,,,,,,,,,,,,,,,,,,,7,2.610000134,4,1.73300004,1,0,1200,465,1,1199,void,11113,2019-10-21_17h03.34.918,SurveyExpMetaMem,3.2.3,Win32,60
,,,,,,,,,,,,,,,,,,,,7,1.651000023,7,0.197000027,1,0,1200,296,1,1199,awesome,11113,2019-10-21_17h03.34.918,SurveyExpMetaMem,3.2.3,Win32,60
,,,,,,,,,,,,,,,,,,,,7,2.588000059,8,1.039000034,1,0,1200,135,1,1199,applause,11113,2019-10-21_17h03.34.918,SurveyExpMetaMem,3.2.3,Win32,60
,,,,,,,,,,,,,,,,,,,,3,3.289000034,6,1.397000074,1,0,1200,267,1,1199,bold,11113,2019-10-21_17h03.34.918,SurveyExpMetaMem,3.2.3,Win32,60
,,,,,,,,,,,,,,,,,,,,5,10.79999995,5,0.191999912,1,0,1200,585,1,1199,tatter,11113,2019-10-21_17h03.34.918,SurveyExpMetaMem,3.2.3,Win32,60
,,,,,,,,,,,,,,,,,,,,1,2.647000074,6,1.529000044,1,0,1200,111,1,1199,band,11113,2019-10-21_17h03.34.918,SurveyExpMetaMem,3.2.3,Win32,60
,,,,,,,,,,,,,,,,,,,,5,2.108999968,4,2.167000055,1,0,1200,376,1,1199,incompetent,11113,2019-10-21_17h03.34.918,SurveyExpMetaMem,3.2.3,Win32,60
,,,,,,,,,,,,,,,,,,,,7,2.618999958,3,1.532999992,1,0,1200,922,1,1199,nightmare,11113,2019-10-21_17h03.34.918,SurveyExpMetaMem,3.2.3,Win32,60
,,,,,,,,,,,,,,,,,,,,1,1.789999962,5,0.254000187,1,0,1200,675,1,1199,golfer,11113,2019-10-21_17h03.34.918,SurveyExpMetaMem,3.2.3,Win32,60
,,,,,,,,,,,,,,,,,,,,1,10.30400014,6,1.727000237,1,0,1200,856,1,1199,leisurely,11113,2019-10-21_17h03.34.918,SurveyExpMetaMem,3.2.3,Win32,60
,,,,,,,,,,,,,,,,,,,,2,8.603999853,5,1.549999952,1,0,1200,1136,1,1199,appall,11113,2019-10-21_17h03.34.918,SurveyExpMetaMem,3.2.3,Win32,60
,,,,,,,,,,,,,,,,,,,,2,2.621000051,5,1.465999842,1,0,1200,488,1,1199,rusty,11113,2019-10-21_17h03.34.918,SurveyExpMetaMem,3.2.3,Win32,60
,,,,,,,,,,,,,,,,,,,,2,9.54399991,7,1.095000029,1,0,1200,872,1,1199,dignified,11113,2019-10-21_17h03.34.918,SurveyExpMetaMem,3.2.3,Win32,60
,,,,,,,,,,,,,,,,,,,,1,3.621999979,5,4.00999999,1,0,1200,726,1,1199,crackers,11113,2019-10-21_17h03.34.918,SurveyExpMetaMem,3.2.3,Win32,60
,,,,,,,,,,,,,,,,,,,,2,2.041999817,6,1.768999815,1,0,1200,94,1,1199,engaged,11113,2019-10-21_17h03.34.918,SurveyExpMetaMem,3.2.3,Win32,60
,,,,,,,,,,,,,,,,,,,,7,2.502000093,2,0.975999832,1,0,1200,941,1,1199,leprosy,11113,2019-10-21_17h03.34.918,SurveyExpMetaMem,3.2.3,Win32,60
,,,,,,,,,,,,,,,,,,,,1,2.444000006,5,1.117000103,1,0,1200,618,1,1199,ceiling,11113,2019-10-21_17h03.34.918,SurveyExpMetaMem,3.2.3,Win32,60
,,,,,,,,,,,,,,,,,,,,2,36.77399993,6,1.196000099,1,0,1200,580,1,1199,fur,11113,2019-10-21_17h03.34.918,SurveyExpMetaMem,3.2.3,Win32,60
,,,,,,,,,,,,,,,,,,,,6,2.98300004,3,1.305000067,1,0,1200,446,1,1199,greedy,11113,2019-10-21_17h03.34.918,SurveyExpMetaMem,3.2.3,Win32,60
,,,,,,,,,,,,,,,,,,,,4,3.685000181,4,10.31500006,1,0,1200,1084,1,1199,uneasy,11113,2019-10-21_17h03.34.918,SurveyExpMetaMem,3.2.3,Win32,60
,,,,,,,,,,,,,,,,,,,,1,1.462999821,5,0.709000111,1,0,1200,643,1,1199,library,11113,2019-10-21_17h03.34.918,SurveyExpMetaMem,3.2.3,Win32,60
,,,,,,,,,,,,,,,,,,,,8,2.565999985,7,1.074999809,1,0,1200,292,1,1199,birthday,11113,2019-10-21_17h03.34.918,SurveyExpMetaMem,3.2.3,Win32,60
,,,,,,,,,,,,,,,,,,,,6,4.815000057,4,1.562000036,1,0,1200,996,1,1199,sting,11113,2019-10-21_17h03.34.918,SurveyExpMetaMem,3.2.3,Win32,60
,,,,,,,,,,,,,,,,,,,,6,3.417000055,3,0.411999941,1,0,1200,989,1,1199,banish,11113,2019-10-21_17h03.34.918,SurveyExpMetaMem,3.2.3,Win32,60
,,,,,,,,,,,,,,,,,,,,1,45.65199995,5,0.467000008,1,0,1200,678,1,1199,lightbulb,11113,2019-10-21_17h03.34.918,SurveyExpMetaMem,3.2.3,Win32,60
,,,,,,,,,,,,,,,,,,,,7,2.078000069,3,0.919000149,1,0,1200,1128,1,1199,fighting,11113,2019-10-21_17h03.34.918,SurveyExpMetaMem,3.2.3,Win32,60
,,,,,,,,,,,,,,,,,,,,4,5.496999979,5,1.444999933,1,0,1200,52,1,1199,dare,11113,2019-10-21_17h03.34.918,SurveyExpMetaMem,3.2.3,Win32,60
,,,,,,,,,,,,,,,,,,,,6,2.335999966,4,1.638999939,1,0,1200,970,1,1199,worry,11113,2019-10-21_17h03.34.918,SurveyExpMetaMem,3.2.3,Win32,60
,,,,,,,,,,,,,,,,,,,,1,1.930000067,5,0.828000069,1,0,1200,843,1,1199,garden,11113,2019-10-21_17h03.34.918,SurveyExpMetaMem,3.2.3,Win32,60
,,,,,,,,,,,,,,,,,,,,1,1.311000109,7,0.565000057,1,0,1200,136,1,1199,dog,11113,2019-10-21_17h03.34.918,SurveyExpMetaMem,3.2.3,Win32,60
,,,,,,,,,,,,,,,,,,,,1,1.803999901,5,0.422999859,1,0,1200,616,1,1199,coat,11113,2019-10-21_17h03.34.918,SurveyExpMetaMem,3.2.3,Win32,60
,,,,,,,,,,,,,,,,,,,,1,1.312000036,5,0.312999964,1,0,1200,749,1,1199,glasses,11113,2019-10-21_17h03.34.918,SurveyExpMetaMem,3.2.3,Win32,60
,,,,,,,,,,,,,,,,,,,,2,12.39300013,5,0.376000166,1,0,1200,1160,1,1199,enlist,11113,2019-10-21_17h03.34.918,SurveyExpMetaMem,3.2.3,Win32,60
,,,,,,,,,,,,,,,,,,,,1,1.393999815,7,0.963999987,1,0,1200,110,1,1199,animal,11113,2019-10-21_17h03.34.918,SurveyExpMetaMem,3.2.3,Win32,60
,,,,,,,,,,,,,,,,,,,,3,3.045000076,4,1.615999937,1,0,1200,1001,1,1199,rude,11113,2019-10-21_17h03.34.918,SurveyExpMetaMem,3.2.3,Win32,60
,,,,,,,,,,,,,,,,,,,,2,2.34100008,5,1.700000048,1,0,1200,703,1,1199,book,11113,2019-10-21_17h03.34.918,SurveyExpMetaMem,3.2.3,Win32,60
,,,,,,,,,,,,,,,,,,,,7,10.35800004,3,1.647000074,1,0,1200,1070,1,1199,bleed,11113,2019-10-21_17h03.34.918,SurveyExpMetaMem,3.2.3,Win32,60
,,,,,,,,,,,,,,,,,,,,4,1.85800004,3,1.953000069,1,0,1200,973,1,1199,anger,11113,2019-10-21_17h03.34.918,SurveyExpMetaMem,3.2.3,Win32,60
,,,,,,,,,,,,,,,,,,,,7,1.903999805,2,1.430999994,1,0,1200,346,1,1199,alcoholism,11113,2019-10-21_17h03.34.918,SurveyExpMetaMem,3.2.3,Win32,60
,,,,,,,,,,,,,,,,,,,,7,2.542999983,3,1.414000034,1,0,1200,967,1,1199,horrible,11113,2019-10-21_17h03.34.918,SurveyExpMetaMem,3.2.3,Win32,60
,,,,,,,,,,,,,,,,,,,,7,3.259000063,3,1.367000103,1,0,1200,365,1,1199,discouraged,11113,2019-10-21_17h03.34.918,SurveyExpMetaMem,3.2.3,Win32,60
,,,,,,,,,,,,,,,,,,,,7,2.667000055,3,1.29399991,1,0,1200,343,1,1199,fever,11113,2019-10-21_17h03.34.918,SurveyExpMetaMem,3.2.3,Win32,60
,,,,,,,,,,,,,,,,,,,,7,2.292999983,7,1.17599988,1,0,1200,40,1,1199,kissing,11113,2019-10-21_17h03.34.918,SurveyExpMetaMem,3.2.3,Win32,60
,,,,,,,,,,,,,,,,,,,,3,2.810000181,4,3.232000113,1,0,1200,377,1,1199,complain,11113,2019-10-21_17h03.34.918,SurveyExpMetaMem,3.2.3,Win32,60
,,,,,,,,,,,,,,,,,,,,4,3.303999901,4,1.013999939,1,0,1200,924,1,1199,terrible,11113,2019-10-21_17h03.34.918,SurveyExpMetaMem,3.2.3,Win32,60
,,,,,,,,,,,,,,,,,,,,2,14.72799993,6,1.330999851,1,0,1200,123,1,1199,favorite,11113,2019-10-21_17h03.34.918,SurveyExpMetaMem,3.2.3,Win32,60
,,,,,,,,,,,,,,,,,,,,2,3.036000013,5,1.083999872,1,0,1200,455,1,1199,chubby,11113,2019-10-21_17h03.34.918,SurveyExpMetaMem,3.2.3,Win32,60
,,,,,,,,,,,,,,,,,,,,6,2.470000029,3,0.928999901,1,0,1200,1055,1,1199,alarm,11113,2019-10-21_17h03.34.918,SurveyExpMetaMem,3.2.3,Win32,60
,,,,,,,,,,,,,,,,,,,,2,6.528000116,6,1.878000021,1,0,1200,784,1,1199,logical,11113,2019-10-21_17h03.34.918,SurveyExpMetaMem,3.2.3,Win32,60
,,,,,,,,,,,,,,,,,,,,1,15.97900009,5,0.372999907,1,0,1200,816,1,1199,hippotamus,11113,2019-10-21_17h03.34.918,SurveyExpMetaMem,3.2.3,Win32,60
,,,,,,,,,,,,,,,,,,,,4,2.608999968,4,0.588999987,1,0,1200,371,1,1199,weakness,11113,2019-10-21_17h03.34.918,SurveyExpMetaMem,3.2.3,Win32,60
,,,,,,,,,,,,,,,,,,,,4,4.636000156,4,0.845000029,1,0,1200,362,1,1199,despair,11113,2019-10-21_17h03.34.918,SurveyExpMetaMem,3.2.3,Win32,60
,,,,,,,,,,,,,,,,,,,,1,1.610999823,5,0.388000011,1,0,1200,651,1,1199,bathroom,11113,2019-10-21_17h03.34.918,SurveyExpMetaMem,3.2.3,Win32,60
,,,,,,,,,,,,,,,,,,,,6,2.423000097,7,2.003000021,1,0,1200,147,1,1199,cure,11113,2019-10-21_17h03.34.918,SurveyExpMetaMem,3.2.3,Win32,60
,,,,,,,,,,,,,,,,,,,,4,3.95600009,5,1.596000195,1,0,1200,387,1,1199,tax,11113,2019-10-21_17h03.34.918,SurveyExpMetaMem,3.2.3,Win32,60
,,,,,,,,,,,,,,,,,,,,1,11.44799995,5,1.164000034,1,0,1200,822,1,1199,clearer,11113,2019-10-21_17h03.34.918,SurveyExpMetaMem,3.2.3,Win32,60
,,,,,,,,,,,,,,,,,,,,6,4.279999971,4,0.292000055,1,0,1200,460,1,1199,rag,11113,2019-10-21_17h03.34.918,SurveyExpMetaMem,3.2.3,Win32,60
,,,,,,,,,,,,,,,,,,,,1,9.085000038,5,0.196000099,1,0,1200,626,1,1199,pan,11113,2019-10-21_17h03.34.918,SurveyExpMetaMem,3.2.3,Win32,60
,,,,,,,,,,,,,,,,,,,,1,2.34100008,5,0.179999828,1,0,1200,699,1,1199,leg,11113,2019-10-21_17h03.34.918,SurveyExpMetaMem,3.2.3,Win32,60
,,,,,,,,,,,,,,,,,,,,3,2.259000063,6,1.012000084,1,0,1200,799,1,1199,precise,11113,2019-10-21_17h03.34.918,SurveyExpMetaMem,3.2.3,Win32,60
,,,,,,,,,,,,,,,,,,,,6,12.30800009,4,1.15199995,1,0,1200,349,1,1199,mope,11113,2019-10-21_17h03.34.918,SurveyExpMetaMem,3.2.3,Win32,60
,,,,,,,,,,,,,,,,,,,,7,2.276000023,3,0.846000195,1,0,1200,923,1,1199,punish,11113,2019-10-21_17h03.34.918,SurveyExpMetaMem,3.2.3,Win32,60
,,,,,,,,,,,,,,,,,,,,2,5.282999992,5,0.674999952,1,0,1200,519,1,1199,listless,11113,2019-10-21_17h03.34.918,SurveyExpMetaMem,3.2.3,Win32,60
,,,,,,,,,,,,,,,,,,,,1,1.568000078,5,0.160000086,1,0,1200,860,1,1199,silk,11113,2019-10-21_17h03.34.918,SurveyExpMetaMem,3.2.3,Win32,60
,,,,,,,,,,,,,,,,,,,,5,17.39499998,5,0.407999992,1,0,1200,410,1,1199,tarnish,11113,2019-10-21_17h03.34.918,SurveyExpMetaMem,3.2.3,Win32,60
,,,,,,,,,,,,,,,,,,,,2,1.728000164,5,0.15899992,1,0,1200,213,1,1199,fair,11113,2019-10-21_17h03.34.918,SurveyExpMetaMem,3.2.3,Win32,60
,,,,,,,,,,,,,,,,,,,,6,2.041000128,6,0.832000017,1,0,1200,268,1,1199,tickle,11113,2019-10-21_17h03.34.918,SurveyExpMetaMem,3.2.3,Win32,60
,,,,,,,,,,,,,,,,,,,,6,15.22300005,3,0.430999994,1,0,1200,435,1,1199,grovel,11113,2019-10-21_17h03.34.918,SurveyExpMetaMem,3.2.3,Win32,60
,,,,,,,,,,,,,,,,,,,,1,5.24000001,5,0.335000038,1,0,1200,659,1,1199,hair,11113,2019-10-21_17h03.34.918,SurveyExpMetaMem,3.2.3,Win32,60
,,,,,,,,,,,,,,,,,,,,6,1.888000011,6,0.85800004,1,0,1200,224,1,1199,strengthen,11113,2019-10-21_17h03.34.918,SurveyExpMetaMem,3.2.3,Win32,60
,,,,,,,,,,,,,,,,,,,,6,2.316999912,3,0.638000011,1,0,1200,464,1,1199,tick,11113,2019-10-21_17h03.34.918,SurveyExpMetaMem,3.2.3,Win32,60
,,,,,,,,,,,,,,,,,,,,6,12.02699995,3,0.561000109,1,0,1200,935,1,1199,despise,11113,2019-10-21_17h03.34.918,SurveyExpMetaMem,3.2.3,Win32,60
,,,,,,,,,,,,,,,,,,,,3,10.32999992,4,1.292000055,1,0,1200,426,1,1199,con,11113,2019-10-21_17h03.34.918,SurveyExpMetaMem,3.2.3,Win32,60
,,,,,,,,,,,,,,,,,,,,6,2.353000164,6,0.737999916,1,0,1200,732,1,1199,humble,11113,2019-10-21_17h03.34.918,SurveyExpMetaMem,3.2.3,Win32,60
,,,,,,,,,,,,,,,,,,,,3,2.980999947,6,2.244000196,1,0,1200,832,1,1199,candy,11113,2019-10-21_17h03.34.918,SurveyExpMetaMem,3.2.3,Win32,60
,,,,,,,,,,,,,,,,,,,,7,3.808000088,3,3.11500001,1,0,1200,334,1,1199,trash,11113,2019-10-21_17h03.34.918,SurveyExpMetaMem,3.2.3,Win32,60
,,,,,,,,,,,,,,,,,,,,6,2.987999916,6,0.720000029,1,0,1200,246,1,1199,complete,11113,2019-10-21_17h03.34.918,SurveyExpMetaMem,3.2.3,Win32,60
,,,,,,,,,,,,,,,,,,,,1,6.177000046,5,0.116000175,1,0,1200,122,1,1199,prince,11113,2019-10-21_17h03.34.918,SurveyExpMetaMem,3.2.3,Win32,60
,,,,,,,,,,,,,,,,,,,,6,6.087000132,2,1.190999985,1,0,1200,1188,1,1199,swear,11113,2019-10-21_17h03.34.918,SurveyExpMetaMem,3.2.3,Win32,60
,,,,,,,,,,,,,,,,,,,,6,7.187999964,2,0.209000111,1,0,1200,328,1,1199,disgrace,11113,2019-10-21_17h03.34.918,SurveyExpMetaMem,3.2.3,Win32,60
,,,,,,,,,,,,,,,,,,,,3,11.27399993,5,1.157000065,1,0,1200,522,1,1199,cleft,11113,2019-10-21_17h03.34.918,SurveyExpMetaMem,3.2.3,Win32,60
,,,,,,,,,,,,,,,,,,,,5,2.111999989,5,0.208999872,1,0,1200,79,1,1199,dazzle,11113,2019-10-21_17h03.34.918,SurveyExpMetaMem,3.2.3,Win32,60
,,,,,,,,,,,,,,,,,,,,1,1.048000097,5,0.186000109,1,0,1200,738,1,1199,horse,11113,2019-10-21_17h03.34.918,SurveyExpMetaMem,3.2.3,Win32,60
,,,,,,,,,,,,,,,,,,,,6,2.369999886,5,0.31799984,1,0,1200,143,1,1199,weekend,11113,2019-10-21_17h03.34.918,SurveyExpMetaMem,3.2.3,Win32,60
,,,,,,,,,,,,,,,,,,,,8,10.54399991,1,0.134000063,1,0,1200,1029,1,1199,abduction,11113,2019-10-21_17h03.34.918,SurveyExpMetaMem,3.2.3,Win32,60
,,,,,,,,,,,,,,,,,,,,7,2.27699995,7,0.940000057,1,0,1200,164,1,1199,marry,11113,2019-10-21_17h03.34.918,SurveyExpMetaMem,3.2.3,Win32,60
,,,,,,,,,,,,,,,,,,,,3,4.039999962,5,0.250999928,1,0,1200,550,1,1199,fart,11113,2019-10-21_17h03.34.918,SurveyExpMetaMem,3.2.3,Win32,60
,,,,,,,,,,,,,,,,,,,,1,1.17200017,5,0.362999916,1,0,1200,605,1,1199,year,11113,2019-10-21_17h03.34.918,SurveyExpMetaMem,3.2.3,Win32,60
,,,,,,,,,,,,,,,,,,,,1,5.079999924,5,0.166000128,1,0,1200,53,1,1199,lotion,11113,2019-10-21_17h03.34.918,SurveyExpMetaMem,3.2.3,Win32,60
,,,,,,,,,,,,,,,,,,,,6,1.372999907,6,1.582999945,1,0,1200,20,1,1199,climax,11113,2019-10-21_17h03.34.918,SurveyExpMetaMem,3.2.3,Win32,60
,,,,,,,,,,,,,,,,,,,,6,2.226000071,3,0.164999962,1,0,1200,1054,1,1199,jealous,11113,2019-10-21_17h03.34.918,SurveyExpMetaMem,3.2.3,Win32,60
,,,,,,,,,,,,,,,,,,,,7,3.480000019,7,0.830000162,1,0,1200,217,1,1199,bravery,11113,2019-10-21_17h03.34.918,SurveyExpMetaMem,3.2.3,Win32,60
,,,,,,,,,,,,,,,,,,,,7,1.677000046,2,0.310000181,1,0,1200,977,1,1199,choke,11113,2019-10-21_17h03.34.918,SurveyExpMetaMem,3.2.3,Win32,60
,,,,,,,,,,,,,,,,,,,,1,13.2249999,5,0.149999857,1,0,1200,549,1,1199,beet,11113,2019-10-21_17h03.34.918,SurveyExpMetaMem,3.2.3,Win32,60
,,,,,,,,,,,,,,,,,,,,8,2.674999952,3,0.382999897,1,0,1200,1141,1,1199,shark,11113,2019-10-21_17h03.34.918,SurveyExpMetaMem,3.2.3,Win32,60
,,,,,,,,,,,,,,,,,,,,7,3.10800004,3,1.346000195,1,0,1200,447,1,1199,dishes,11113,2019-10-21_17h03.34.918,SurveyExpMetaMem,3.2.3,Win32,60
,,,,,,,,,,,,,,,,,,,,1,2.800000191,5,1.523999929,1,0,1200,664,1,1199,quiet,11113,2019-10-21_17h03.34.918,SurveyExpMetaMem,3.2.3,Win32,60
,,,,,,,,,,,,,,,,,,,,7,2.108999968,4,0.345999956,1,0,1200,1110,1,1199,bastard,11113,2019-10-21_17h03.34.918,SurveyExpMetaMem,3.2.3,Win32,60
,,,,,,,,,,,,,,,,,,,,5,2.569999933,3,0.855999947,1,0,1200,480,1,1199,hinder,11113,2019-10-21_17h03.34.918,SurveyExpMetaMem,3.2.3,Win32,60
,,,,,,,,,,,,,,,,,,,,6,3.312000036,3,0.74000001,1,0,1200,1095,1,1199,fright,11113,2019-10-21_17h03.34.918,SurveyExpMetaMem,3.2.3,Win32,60
,,,,,,,,,,,,,,,,,,,,8,3.860999823,2,1.247000217,1,0,1200,1019,1,1199,fraud,11113,2019-10-21_17h03.34.918,SurveyExpMetaMem,3.2.3,Win32,60
,,,,,,,,,,,,,,,,,,,,2,6.104000092,6,1.226999998,1,0,1200,713,1,1199,mobile,11113,2019-10-21_17h03.34.918,SurveyExpMetaMem,3.2.3,Win32,60
,,,,,,,,,,,,,,,,,,,,7,1.756999969,7,0.579999924,1,0,1200,11,1,1199,astonished,11113,2019-10-21_17h03.34.918,SurveyExpMetaMem,3.2.3,Win32,60
,,,,,,,,,,,,,,,,,,,,2,4.046000004,6,0.811000109,1,0,1200,709,1,1199,ancestor,11113,2019-10-21_17h03.34.918,SurveyExpMetaMem,3.2.3,Win32,60
,,,,,,,,,,,,,,,,,,,,3,9.00999999,4,1.467999935,1,0,1200,487,1,1199,junk,11113,2019-10-21_17h03.34.918,SurveyExpMetaMem,3.2.3,Win32,60
,,,,,,,,,,,,,,,,,,,,1,2.289000034,5,0.334000111,1,0,1200,485,1,1199,pinch,11113,2019-10-21_17h03.34.918,SurveyExpMetaMem,3.2.3,Win32,60
,,,,,,,,,,,,,,,,,,,,6,2.905999899,5,4.750999928,1,0,1200,837,1,1199,responsible,11113,2019-10-21_17h03.34.918,SurveyExpMetaMem,3.2.3,Win32,60
,,,,,,,,,,,,,,,,,,,,6,2.90899992,6,1.307999849,1,0,1200,892,1,1199,untroubled,11113,2019-10-21_17h03.34.918,SurveyExpMetaMem,3.2.3,Win32,60
,,,,,,,,,,,,,,,,,,,,6,11.08299994,7,0.499000072,1,0,1200,765,1,1199,candid,11113,2019-10-21_17h03.34.918,SurveyExpMetaMem,3.2.3,Win32,60
,,,,,,,,,,,,,,,,,,,,6,7.874000072,3,0.713999987,1,0,1200,489,1,1199,timid,11113,2019-10-21_17h03.34.918,SurveyExpMetaMem,3.2.3,Win32,60
,,,,,,,,,,,,,,,,,,,,6,13.89499998,3,0.994000196,1,0,1200,1050,1,1199,scorn,11113,2019-10-21_17h03.34.918,SurveyExpMetaMem,3.2.3,Win32,60
,,,,,,,,,,,,,,,,,,,,5,2.756000042,5,0.340999842,1,0,1200,481,1,1199,melancholy,11113,2019-10-21_17h03.34.918,SurveyExpMetaMem,3.2.3,Win32,60
,,,,,,,,,,,,,,,,,,,,2,10.17900014,7,1.279999971,1,0,1200,876,1,1199,politeness,11113,2019-10-21_17h03.34.918,SurveyExpMetaMem,3.2.3,Win32,60
,,,,,,,,,,,,,,,,,,,,1,2.312000036,5,0.356000185,1,0,1200,879,1,1199,bird,11113,2019-10-21_17h03.34.918,SurveyExpMetaMem,3.2.3,Win32,60
,,,,,,,,,,,,,,,,,,,,6,1.90199995,3,1.111000061,1,0,1200,1011,1,1199,robber,11113,2019-10-21_17h03.34.918,SurveyExpMetaMem,3.2.3,Win32,60
,,,,,,,,,,,,,,,,,,,,2,7.258000135,5,1.150000095,1,0,1200,792,1,1199,moral,11113,2019-10-21_17h03.34.918,SurveyExpMetaMem,3.2.3,Win32,60
,,,,,,,,,,,,,,,,,,,,7,1.730999947,2,0.335999966,1,0,1200,976,1,1199,tumor,11113,2019-10-21_17h03.34.918,SurveyExpMetaMem,3.2.3,Win32,60
,,,,,,,,,,,,,,,,,,,,2,12.42299986,5,1.470000029,1,0,1200,995,1,1199,cult,11113,2019-10-21_17h03.34.918,SurveyExpMetaMem,3.2.3,Win32,60
,,,,,,,,,,,,,,,,,,,,2,14.704,6,0.598999977,1,0,1200,607,1,1199,greyhound,11113,2019-10-21_17h03.34.918,SurveyExpMetaMem,3.2.3,Win32,60
,,,,,,,,,,,,,,,,,,,,7,3.062000036,6,1.349000216,1,0,1200,82,1,1199,stunning,11113,2019-10-21_17h03.34.918,SurveyExpMetaMem,3.2.3,Win32,60
,,,,,,,,,,,,,,,,,,,,5,2.95299983,4,1.979000092,1,0,1200,1106,1,1199,pushy,11113,2019-10-21_17h03.34.918,SurveyExpMetaMem,3.2.3,Win32,60
,,,,,,,,,,,,,,,,,,,,5,4.894000053,5,1.391000032,1,0,1200,418,1,1199,cheapskate,11113,2019-10-21_17h03.34.918,SurveyExpMetaMem,3.2.3,Win32,60
,,,,,,,,,,,,,,,,,,,,6,4.512000084,7,0.762000084,1,0,1200,293,1,1199,succeed,11113,2019-10-21_17h03.34.918,SurveyExpMetaMem,3.2.3,Win32,60
,,,,,,,,,,,,,,,,,,,,6,4.108999968,7,3.560000181,1,0,1200,156,1,1199,gym,11113,2019-10-21_17h03.34.918,SurveyExpMetaMem,3.2.3,Win32,60
,,,,,,,,,,,,,,,,,,,,8,11.28900003,3,1.209000111,1,0,1200,1144,1,1199,yelp,11113,2019-10-21_17h03.34.918,SurveyExpMetaMem,3.2.3,Win32,60
,,,,,,,,,,,,,,,,,,,,2,2.044999838,6,1.180999994,1,0,1200,65,1,1199,restaurant,11113,2019-10-21_17h03.34.918,SurveyExpMetaMem,3.2.3,Win32,60
,,,,,,,,,,,,,,,,,,,,2,2.278000116,4,2.576999903,1,0,1200,635,1,1199,sensitive,11113,2019-10-21_17h03.34.918,SurveyExpMetaMem,3.2.3,Win32,60
,,,,,,,,,,,,,,,,,,,,1,3.381000042,5,0.22300005,1,0,1200,656,1,1199,number,11113,2019-10-21_17h03.34.918,SurveyExpMetaMem,3.2.3,Win32,60
,,,,,,,,,,,,,,,,,,,,7,2.016000032,3,0.512000084,1,0,1200,937,1,1199,prison,11113,2019-10-21_17h03.34.918,SurveyExpMetaMem,3.2.3,Win32,60
,,,,,,,,,,,,,,,,,,,,3,4.359999895,6,1.528999805,1,0,1200,70,1,1199,cartoon,11113,2019-10-21_17h03.34.918,SurveyExpMetaMem,3.2.3,Win32,60
,,,,,,,,,,,,,,,,,,,,2,6.34100008,5,0.495000124,1,0,1200,200,1,1199,preach,11113,2019-10-21_17h03.34.918,SurveyExpMetaMem,3.2.3,Win32,60
,,,,,,,,,,,,,,,,,,,,3,3.212000132,5,0.970000029,1,0,1200,58,1,1199,boost,11113,2019-10-21_17h03.34.918,SurveyExpMetaMem,3.2.3,Win32,60
,,,,,,,,,,,,,,,,,,,,7,10.80700016,3,0.378000021,1,0,1200,322,1,1199,widow,11113,2019-10-21_17h03.34.918,SurveyExpMetaMem,3.2.3,Win32,60
,,,,,,,,,,,,,,,,,,,,6,2.957000017,4,1.372000217,1,0,1200,431,1,1199,itch,11113,2019-10-21_17h03.34.918,SurveyExpMetaMem,3.2.3,Win32,60
,,,,,,,,,,,,,,,,,,,,2,5.107000113,5,1.855999947,1,0,1200,781,1,1199,emerald,11113,2019-10-21_17h03.34.918,SurveyExpMetaMem,3.2.3,Win32,60
,,,,,,,,,,,,,,,,,,,,3,4.275000095,6,1.560000181,1,0,1200,731,1,1199,decency,11113,2019-10-21_17h03.34.918,SurveyExpMetaMem,3.2.3,Win32,60
,,,,,,,,,,,,,,,,,,,,2,12.42000008,6,0.150000095,1,0,1200,805,1,1199,autumn,11113,2019-10-21_17h03.34.918,SurveyExpMetaMem,3.2.3,Win32,60
,,,,,,,,,,,,,,,,,,,,7,2.671999931,3,0.137000084,1,0,1200,987,1,1199,disgusted,11113,2019-10-21_17h03.34.918,SurveyExpMetaMem,3.2.3,Win32,60
,,,,,,,,,,,,,,,,,,,,1,1.680999994,5,0.161000013,1,0,1200,16,1,1199,sing,11113,2019-10-21_17h03.34.918,SurveyExpMetaMem,3.2.3,Win32,60
,,,,,,,,,,,,,,,,,,,,1,5.023000002,5,0.112999916,1,0,1200,672,1,1199,ketchup,11113,2019-10-21_17h03.34.918,SurveyExpMetaMem,3.2.3,Win32,60
,,,,,,,,,,,,,,,,,,,,1,3.079000235,5,0.168000221,1,0,1200,646,1,1199,wear,11113,2019-10-21_17h03.34.918,SurveyExpMetaMem,3.2.3,Win32,60
,,,,,,,,,,,,,,,,,,,,3,2.72300005,6,1.025000095,1,0,1200,80,1,1199,wonderful,11113,2019-10-21_17h03.34.918,SurveyExpMetaMem,3.2.3,Win32,60
,,,,,,,,,,,,,,,,,,,,7,7.673000097,3,1.032000065,1,0,1200,1008,1,1199,gang,11113,2019-10-21_17h03.34.918,SurveyExpMetaMem,3.2.3,Win32,60
,,,,,,,,,,,,,,,,,,,,7,2.839000225,3,1.785000086,1,0,1200,1120,1,1199,gun,11113,2019-10-21_17h03.34.918,SurveyExpMetaMem,3.2.3,Win32,60
,,,,,,,,,,,,,,,,,,,,4,2.337000132,6,2.111000061,1,0,1200,84,1,1199,eat,11113,2019-10-21_17h03.34.918,SurveyExpMetaMem,3.2.3,Win32,60
,,,,,,,,,,,,,,,,,,,,4,4.79399991,6,2.473999977,1,0,1200,166,1,1199,unite,11113,2019-10-21_17h03.34.918,SurveyExpMetaMem,3.2.3,Win32,60
,,,,,,,,,,,,,,,,,,,,6,5.636000156,4,1.395999908,1,0,1200,311,1,1199,discomfort,11113,2019-10-21_17h03.34.918,SurveyExpMetaMem,3.2.3,Win32,60
,,,,,,,,,,,,,,,,,,,,7,2.791000128,2,0.934999943,1,0,1200,906,1,1199,syphilis,11113,2019-10-21_17h03.34.918,SurveyExpMetaMem,3.2.3,Win32,60
,,,,,,,,,,,,,,,,,,,,6,3.528000116,3,0.480000019,1,0,1200,1094,1,1199,disruptive,11113,2019-10-21_17h03.34.918,SurveyExpMetaMem,3.2.3,Win32,60
,,,,,,,,,,,,,,,,,,,,1,1.823000193,5,0.295000076,1,0,1200,680,1,1199,candle,11113,2019-10-21_17h03.34.918,SurveyExpMetaMem,3.2.3,Win32,60
,,,,,,,,,,,,,,,,,,,,1,2.274000168,1,0.035000086,1,0,1200,124,1,1199,honeymoon,11113,2019-10-21_17h03.34.918,SurveyExpMetaMem,3.2.3,Win32,60
,,,,,,,,,,,,,,,,,,,,1,21.88199997,5,0.133999825,1,0,1200,846,1,1199,able,11113,2019-10-21_17h03.34.918,SurveyExpMetaMem,3.2.3,Win32,60
,,,,,,,,,,,,,,,,,,,,2,3.993999958,7,0.271999836,1,0,1200,835,1,1199,helpful,11113,2019-10-21_17h03.34.918,SurveyExpMetaMem,3.2.3,Win32,60
,,,,,,,,,,,,,,,,,,,,1,1.677999973,5,0.249000072,1,0,1200,634,1,1199,glacier,11113,2019-10-21_17h03.34.918,SurveyExpMetaMem,3.2.3,Win32,60
,,,,,,,,,,,,,,,,,,,,3,2.343999863,6,1.330000162,1,0,1200,74,1,1199,explore,11113,2019-10-21_17h03.34.918,SurveyExpMetaMem,3.2.3,Win32,60
,,,,,,,,,,,,,,,,,,,,2,9.453000069,5,0.911000013,1,0,1200,511,1,1199,slouch,11113,2019-10-21_17h03.34.918,SurveyExpMetaMem,3.2.3,Win32,60
,,,,,,,,,,,,,,,,,,,,1,5.788000107,5,1.568000078,1,0,1200,667,1,1199,dew,11113,2019-10-21_17h03.34.918,SurveyExpMetaMem,3.2.3,Win32,60
,,,,,,,,,,,,,,,,,,,,2,1.809999943,5,1.014999866,1,0,1200,695,1,1199,teacher,11113,2019-10-21_17h03.34.918,SurveyExpMetaMem,3.2.3,Win32,60
,,,,,,,,,,,,,,,,,,,,4,2.660000086,4,1.758999825,1,0,1200,430,1,1199,cancel,11113,2019-10-21_17h03.34.918,SurveyExpMetaMem,3.2.3,Win32,60
,,,,,,,,,,,,,,,,,,,,5,3.121000051,5,3.826999903,1,0,1200,115,1,1199,sexual,11113,2019-10-21_17h03.34.918,SurveyExpMetaMem,3.2.3,Win32,60
,,,,,,,,,,,,,,,,,,,,4,17.54100013,5,1.676000118,1,0,1200,593,1,1199,errand,11113,2019-10-21_17h03.34.918,SurveyExpMetaMem,3.2.3,Win32,60
,,,,,,,,,,,,,,,,,,,,3,7.84800005,4,1.390000105,1,0,1200,722,1,1199,consoled,11113,2019-10-21_17h03.34.918,SurveyExpMetaMem,3.2.3,Win32,60
,,,,,,,,,,,,,,,,,,,,1,1.745000124,5,0.323999882,1,0,1200,704,1,1199,flute,11113,2019-10-21_17h03.34.918,SurveyExpMetaMem,3.2.3,Win32,60
,,,,,,,,,,,,,,,,,,,,5,9.691999912,3,0.829999924,1,0,1200,516,1,1199,smug,11113,2019-10-21_17h03.34.918,SurveyExpMetaMem,3.2.3,Win32,60
,,,,,,,,,,,,,,,,,,,,4,3.407999992,6,1.173000097,1,0,1200,258,1,1199,children,11113,2019-10-21_17h03.34.918,SurveyExpMetaMem,3.2.3,Win32,60
,,,,,,,,,,,,,,,,,,,,3,20.02000022,5,1.057999849,1,0,1200,636,1,1199,refine,11113,2019-10-21_17h03.34.918,SurveyExpMetaMem,3.2.3,Win32,60
,,,,,,,,,,,,,,,,,,,,1,13.17799997,5,1.02699995,1,0,1200,696,1,1199,rink,11113,2019-10-21_17h03.34.918,SurveyExpMetaMem,3.2.3,Win32,60
,,,,,,,,,,,,,,,,,,,,6,2.188999891,3,1.006000042,1,0,1200,914,1,1199,fail,11113,2019-10-21_17h03.34.918,SurveyExpMetaMem,3.2.3,Win32,60
,,,,,,,,,,,,,,,,,,,,3,2.692000151,5,1.321000099,1,0,1200,880,1,1199,security,11113,2019-10-21_17h03.34.918,SurveyExpMetaMem,3.2.3,Win32,60
,,,,,,,,,,,,,,,,,,,,6,1.642999887,3,0.795000076,1,0,1200,1064,1,1199,sinful,11113,2019-10-21_17h03.34.918,SurveyExpMetaMem,3.2.3,Win32,60
,,,,,,,,,,,,,,,,,,,,2,2.090000153,6,3.190999985,1,0,1200,31,1,1199,brownie,11113,2019-10-21_17h03.34.918,SurveyExpMetaMem,3.2.3,Win32,60
,,,,,,,,,,,,,,,,,,,,1,3.975000143,6,1.388999939,1,0,1200,735,1,1199,tea,11113,2019-10-21_17h03.34.918,SurveyExpMetaMem,3.2.3,Win32,60
,,,,,,,,,,,,,,,,,,,,8,13.76100016,2,0.125,1,0,1200,1103,1,1199,mob,11113,2019-10-21_17h03.34.918,SurveyExpMetaMem,3.2.3,Win32,60
,,,,,,,,,,,,,,,,,,,,5,10.78800011,4,1.491999865,1,0,1200,427,1,1199,doubt,11113,2019-10-21_17h03.34.918,SurveyExpMetaMem,3.2.3,Win32,60
,,,,,,,,,,,,,,,,,,,,7,9.5400002,4,0.940000057,1,0,1200,1118,1,1199,frantic,11113,2019-10-21_17h03.34.918,SurveyExpMetaMem,3.2.3,Win32,60
,,,,,,,,,,,,,,,,,,,,2,10.43799996,3,0.881999969,1,0,1200,513,1,1199,bland,11113,2019-10-21_17h03.34.918,SurveyExpMetaMem,3.2.3,Win32,60
,,,,,,,,,,,,,,,,,,,,8,7.272000074,7,1.826999903,1,0,1200,190,1,1199,rescue,11113,2019-10-21_17h03.34.918,SurveyExpMetaMem,3.2.3,Win32,60
,,,,,,,,,,,,,,,,,,,,7,3.488999844,2,0.758000135,1,0,1200,1048,1,1199,paranoid,11113,2019-10-21_17h03.34.918,SurveyExpMetaMem,3.2.3,Win32,60
,,,,,,,,,,,,,,,,,,,,1,1.546000004,5,0.213000059,1,0,1200,75,1,1199,actor,11113,2019-10-21_17h03.34.918,SurveyExpMetaMem,3.2.3,Win32,60
,,,,,,,,,,,,,,,,,,,,6,15.13800001,7,0.979000092,1,0,1200,865,1,1199,bliss,11113,2019-10-21_17h03.34.918,SurveyExpMetaMem,3.2.3,Win32,60
,,,,,,,,,,,,,,,,,,,,6,11.35699987,3,1.128000021,1,0,1200,473,1,1199,senseless,11113,2019-10-21_17h03.34.918,SurveyExpMetaMem,3.2.3,Win32,60
,,,,,,,,,,,,,,,,,,,,1,3.986999989,5,0.574999809,1,0,1200,61,1,1199,zoom,11113,2019-10-21_17h03.34.918,SurveyExpMetaMem,3.2.3,Win32,60
,,,,,,,,,,,,,,,,,,,,3,12.37700009,5,1.411000013,1,0,1200,159,1,1199,teenager,11113,2019-10-21_17h03.34.918,SurveyExpMetaMem,3.2.3,Win32,60
,,,,,,,,,,,,,,,,,,,,5,4.505000114,3,1.191999912,1,0,1200,984,1,1199,despairing,11113,2019-10-21_17h03.34.918,SurveyExpMetaMem,3.2.3,Win32,60
,,,,,,,,,,,,,,,,,,,,7,15.33800006,5,0.160000086,1,0,1200,866,1,1199,haven,11113,2019-10-21_17h03.34.918,SurveyExpMetaMem,3.2.3,Win32,60
,,,,,,,,,,,,,,,,,,,,2,4.358999968,5,1.131000042,1,0,1200,650,1,1199,native,11113,2019-10-21_17h03.34.918,SurveyExpMetaMem,3.2.3,Win32,60
,,,,,,,,,,,,,,,,,,,,4,4.453000069,3,0.882999897,1,0,1200,1109,1,1199,germ,11113,2019-10-21_17h03.34.918,SurveyExpMetaMem,3.2.3,Win32,60
,,,,,,,,,,,,,,,,,,,,4,2.592000008,3,0.772000074,1,0,1200,1066,1,1199,annoy,11113,2019-10-21_17h03.34.918,SurveyExpMetaMem,3.2.3,Win32,60
,,,,,,,,,,,,,,,,,,,,6,2.438000202,4,0.407999992,1,0,1200,478,1,1199,numb,11113,2019-10-21_17h03.34.918,SurveyExpMetaMem,3.2.3,Win32,60
,,,,,,,,,,,,,,,,,,,,5,4.424999952,3,1.213000059,1,0,1200,991,1,1199,harass,11113,2019-10-21_17h03.34.918,SurveyExpMetaMem,3.2.3,Win32,60
,,,,,,,,,,,,,,,,,,,,2,3.105000019,6,1.005999804,1,0,1200,862,1,1199,ease,11113,2019-10-21_17h03.34.918,SurveyExpMetaMem,3.2.3,Win32,60
,,,,,,,,,,,,,,,,,,,,5,12.23400021,5,1.561000109,1,0,1200,467,1,1199,FALSE,11113,2019-10-21_17h03.34.918,SurveyExpMetaMem,3.2.3,Win32,60
,,,,,,,,,,,,,,,,,,,,1,1.760000229,5,0.710999966,1,0,1200,663,1,1199,trout,11113,2019-10-21_17h03.34.918,SurveyExpMetaMem,3.2.3,Win32,60
,,,,,,,,,,,,,,,,,,,,2,7.792999983,5,0.207000017,1,0,1200,769,1,1199,relate,11113,2019-10-21_17h03.34.918,SurveyExpMetaMem,3.2.3,Win32,60
,,,,,,,,,,,,,,,,,,,,2,1.674999952,6,0.220000029,1,0,1200,852,1,1199,caring,11113,2019-10-21_17h03.34.918,SurveyExpMetaMem,3.2.3,Win32,60
,,,,,,,,,,,,,,,,,,,,4,2.940999985,4,0.944000006,1,0,1200,486,1,1199,fool,11113,2019-10-21_17h03.34.918,SurveyExpMetaMem,3.2.3,Win32,60
,,,,,,,,,,,,,,,,,,,,1,7.727999926,5,0.128000021,1,0,1200,597,1,1199,drool,11113,2019-10-21_17h03.34.918,SurveyExpMetaMem,3.2.3,Win32,60
,,,,,,,,,,,,,,,,,,,,8,4.126000166,3,0.106000185,1,0,1200,1058,1,1199,bloody,11113,2019-10-21_17h03.34.918,SurveyExpMetaMem,3.2.3,Win32,60
