mouse_4.x,mouse_4.y,mouse_4.leftButton,mouse_4.midButton,mouse_4.rightButton,mouse.x,mouse.y,mouse.leftButton,mouse.midButton,mouse.rightButton,mouse_2.x,mouse_2.y,mouse_2.leftButton,mouse_2.midButton,mouse_2.rightButton,mouse_3.x,mouse_3.y,mouse_3.leftButton,mouse_3.midButton,mouse_3.rightButton,A_key_resp.keys,A_key_resp.rt,key_resp.keys,key_resp.rt,trials.thisRepN,trials.thisTrialN,trials.thisN,trials.thisIndex,trials.ran,trials.order,word,ParticipantID,date,expName,psychopyVersion,OS,frameRate
-0.057777778,-0.091111111,1,0,0,-0.057777778,-0.096666667,1,0,0,0.05,-0.015555556,1,0,0,0.053333333,-0.001111111,1,0,0,7,5.717000008,5,4.881000042,1,0,1200,614,1,1199,crossword,11127,2019-10-21_16h50.11.527,SurveyExpMetaMem,3.2.3,MacIntel,60
,,,,,,,,,,,,,,,,,,,,8,7.600999832,5,4.036999941,1,0,1200,261,1,1199,windsurfers,11127,2019-10-21_16h50.11.527,SurveyExpMetaMem,3.2.3,MacIntel,60
,,,,,,,,,,,,,,,,,,,,2,4.586999893,5,4.412999868,1,0,1200,699,1,1199,leg,11127,2019-10-21_16h50.11.527,SurveyExpMetaMem,3.2.3,MacIntel,60
,,,,,,,,,,,,,,,,,,,,4,5.470999956,7,12.05699992,1,0,1200,1197,1,1199,command,11127,2019-10-21_16h50.11.527,SurveyExpMetaMem,3.2.3,MacIntel,60
,,,,,,,,,,,,,,,,,,,,9,3.904999971,2,3.907000065,1,0,1200,686,1,1199,phone,11127,2019-10-21_16h50.11.527,SurveyExpMetaMem,3.2.3,MacIntel,60
,,,,,,,,,,,,,,,,,,,,9,3.420000076,9,1.024999857,1,0,1200,31,1,1199,brownie,11127,2019-10-21_16h50.11.527,SurveyExpMetaMem,3.2.3,MacIntel,60
,,,,,,,,,,,,,,,,,,,,6,5.853999853,3,4.891000032,1,0,1200,562,1,1199,average,11127,2019-10-21_16h50.11.527,SurveyExpMetaMem,3.2.3,MacIntel,60
,,,,,,,,,,,,,,,,,,,,7,6.227999926,8,2.157000065,1,0,1200,118,1,1199,conquer,11127,2019-10-21_16h50.11.527,SurveyExpMetaMem,3.2.3,MacIntel,60
,,,,,,,,,,,,,,,,,,,,7,15.3829999,8,28.1329999,1,0,1200,236,1,1199,amaze,11127,2019-10-21_16h50.11.527,SurveyExpMetaMem,3.2.3,MacIntel,60
,,,,,,,,,,,,,,,,,,,,8,2.700999975,6,2.068000078,1,0,1200,1103,1,1199,mob,11127,2019-10-21_16h50.11.527,SurveyExpMetaMem,3.2.3,MacIntel,60
,,,,,,,,,,,,,,,,,,,,9,2.816999912,2,27.57500005,1,0,1200,1031,1,1199,fear,11127,2019-10-21_16h50.11.527,SurveyExpMetaMem,3.2.3,MacIntel,60
,,,,,,,,,,,,,,,,,,,,2,2.519000053,9,2.687000036,1,0,1200,139,1,1199,generosity,11127,2019-10-21_16h50.11.527,SurveyExpMetaMem,3.2.3,MacIntel,60
,,,,,,,,,,,,,,,,,,,,5,3.785000086,5,0.470000029,1,0,1200,539,1,1199,novice,11127,2019-10-21_16h50.11.527,SurveyExpMetaMem,3.2.3,MacIntel,60
,,,,,,,,,,,,,,,,,,,,9,2.200999975,1,1.63499999,1,0,1200,939,1,1199,vomit,11127,2019-10-21_16h50.11.527,SurveyExpMetaMem,3.2.3,MacIntel,60
,,,,,,,,,,,,,,,,,,,,8,13.44199991,8,2.085999966,1,0,1200,1192,1,1199,startled,11127,2019-10-21_16h50.11.527,SurveyExpMetaMem,3.2.3,MacIntel,60
,,,,,,,,,,,,,,,,,,,,5,4.684999943,2,2.650999784,1,0,1200,943,1,1199,trauma,11127,2019-10-21_16h50.11.527,SurveyExpMetaMem,3.2.3,MacIntel,60
,,,,,,,,,,,,,,,,,,,,8,2.536999941,7,2.485000134,1,0,1200,608,1,1199,carrot,11127,2019-10-21_16h50.11.527,SurveyExpMetaMem,3.2.3,MacIntel,60
,,,,,,,,,,,,,,,,,,,,8,18.66699982,8,2.753999949,1,0,1200,605,1,1199,year,11127,2019-10-21_16h50.11.527,SurveyExpMetaMem,3.2.3,MacIntel,60
,,,,,,,,,,,,,,,,,,,,2,7.021999836,1,1.217000008,1,0,1200,880,1,1199,security,11127,2019-10-21_16h50.11.527,SurveyExpMetaMem,3.2.3,MacIntel,60
,,,,,,,,,,,,,,,,,,,,7,1.821000099,7,2.296999693,1,0,1200,221,1,1199,sparkle,11127,2019-10-21_16h50.11.527,SurveyExpMetaMem,3.2.3,MacIntel,60
,,,,,,,,,,,,,,,,,,,,9,2.56099987,1,0.947999954,1,0,1200,1038,1,1199,pervert,11127,2019-10-21_16h50.11.527,SurveyExpMetaMem,3.2.3,MacIntel,60
,,,,,,,,,,,,,,,,,,,,7,4.552999735,7,1.472999811,1,0,1200,704,1,1199,flute,11127,2019-10-21_16h50.11.527,SurveyExpMetaMem,3.2.3,MacIntel,60
,,,,,,,,,,,,,,,,,,,,8,7.227999926,1,1.485999823,1,0,1200,367,1,1199,pathetic,11127,2019-10-21_16h50.11.527,SurveyExpMetaMem,3.2.3,MacIntel,60
,,,,,,,,,,,,,,,,,,,,7,2.20299983,5,2.68599987,1,0,1200,177,1,1199,frosting,11127,2019-10-21_16h50.11.527,SurveyExpMetaMem,3.2.3,MacIntel,60
,,,,,,,,,,,,,,,,,,,,8,20.44599986,7,1.471999884,1,0,1200,130,1,1199,great,11127,2019-10-21_16h50.11.527,SurveyExpMetaMem,3.2.3,MacIntel,60
,,,,,,,,,,,,,,,,,,,,8,3.000999928,4,1.917999983,1,0,1200,464,1,1199,tick,11127,2019-10-21_16h50.11.527,SurveyExpMetaMem,3.2.3,MacIntel,60
,,,,,,,,,,,,,,,,,,,,7,3.779000044,3,1.509999752,1,0,1200,1120,1,1199,gun,11127,2019-10-21_16h50.11.527,SurveyExpMetaMem,3.2.3,MacIntel,60
,,,,,,,,,,,,,,,,,,,,2,5.736000061,7,2.395999908,1,0,1200,800,1,1199,authentic,11127,2019-10-21_16h50.11.527,SurveyExpMetaMem,3.2.3,MacIntel,60
,,,,,,,,,,,,,,,,,,,,3,3.203999996,2,2.125999928,1,0,1200,396,1,1199,unpopular,11127,2019-10-21_16h50.11.527,SurveyExpMetaMem,3.2.3,MacIntel,60
,,,,,,,,,,,,,,,,,,,,1,3.823999882,3,2.822999716,1,0,1200,366,1,1199,fatigue,11127,2019-10-21_16h50.11.527,SurveyExpMetaMem,3.2.3,MacIntel,60
,,,,,,,,,,,,,,,,,,,,8,2.476999998,1,2.960999966,1,0,1200,167,1,1199,casino,11127,2019-10-21_16h50.11.527,SurveyExpMetaMem,3.2.3,MacIntel,60
,,,,,,,,,,,,,,,,,,,,5,14.04299998,5,0.24000001,1,0,1200,667,1,1199,dew,11127,2019-10-21_16h50.11.527,SurveyExpMetaMem,3.2.3,MacIntel,60
,,,,,,,,,,,,,,,,,,,,7,2.875999928,4,2.012999773,1,0,1200,383,1,1199,messy,11127,2019-10-21_16h50.11.527,SurveyExpMetaMem,3.2.3,MacIntel,60
,,,,,,,,,,,,,,,,,,,,7,9.707000017,2,1.494999886,1,0,1200,584,1,1199,anus,11127,2019-10-21_16h50.11.527,SurveyExpMetaMem,3.2.3,MacIntel,60
,,,,,,,,,,,,,,,,,,,,8,1.924000025,7,1.25999999,1,0,1200,558,1,1199,punk,11127,2019-10-21_16h50.11.527,SurveyExpMetaMem,3.2.3,MacIntel,60
,,,,,,,,,,,,,,,,,,,,7,19.06999993,7,1.943999767,1,0,1200,174,1,1199,snow,11127,2019-10-21_16h50.11.527,SurveyExpMetaMem,3.2.3,MacIntel,60
,,,,,,,,,,,,,,,,,,,,2,9.177000046,7,3.625,1,0,1200,732,1,1199,humble,11127,2019-10-21_16h50.11.527,SurveyExpMetaMem,3.2.3,MacIntel,60
,,,,,,,,,,,,,,,,,,,,5,38.523,5,0.154999971,1,0,1200,912,1,1199,rabies,11127,2019-10-21_16h50.11.527,SurveyExpMetaMem,3.2.3,MacIntel,60
,,,,,,,,,,,,,,,,,,,,7,25.08599997,5,4.177999973,1,0,1200,79,1,1199,dazzle,11127,2019-10-21_16h50.11.527,SurveyExpMetaMem,3.2.3,MacIntel,60
,,,,,,,,,,,,,,,,,,,,5,17.11399984,5,0.138999939,1,0,1200,165,1,1199,sizzle,11127,2019-10-21_16h50.11.527,SurveyExpMetaMem,3.2.3,MacIntel,60
,,,,,,,,,,,,,,,,,,,,7,8.137000084,3,0.953999996,1,0,1200,651,1,1199,bathroom,11127,2019-10-21_16h50.11.527,SurveyExpMetaMem,3.2.3,MacIntel,60
,,,,,,,,,,,,,,,,,,,,5,3.482999802,5,0.302000046,1,0,1200,815,1,1199,apple,11127,2019-10-21_16h50.11.527,SurveyExpMetaMem,3.2.3,MacIntel,60
,,,,,,,,,,,,,,,,,,,,9,3.342000008,9,0.853999853,1,0,1200,29,1,1199,life,11127,2019-10-21_16h50.11.527,SurveyExpMetaMem,3.2.3,MacIntel,60
,,,,,,,,,,,,,,,,,,,,9,2.733999968,9,0.35199976,1,0,1200,26,1,1199,inspired,11127,2019-10-21_16h50.11.527,SurveyExpMetaMem,3.2.3,MacIntel,60
,,,,,,,,,,,,,,,,,,,,9,2.31799984,4,2.085000038,1,0,1200,1090,1,1199,destruction,11127,2019-10-21_16h50.11.527,SurveyExpMetaMem,3.2.3,MacIntel,60
,,,,,,,,,,,,,,,,,,,,5,3.221999884,2,1.36899972,1,0,1200,455,1,1199,chubby,11127,2019-10-21_16h50.11.527,SurveyExpMetaMem,3.2.3,MacIntel,60
,,,,,,,,,,,,,,,,,,,,8,3.443000078,2,0.621000051,1,0,1200,1156,1,1199,weapon,11127,2019-10-21_16h50.11.527,SurveyExpMetaMem,3.2.3,MacIntel,60
,,,,,,,,,,,,,,,,,,,,8,3.900999784,1,0.91899991,1,0,1200,1004,1,1199,burglar,11127,2019-10-21_16h50.11.527,SurveyExpMetaMem,3.2.3,MacIntel,60
,,,,,,,,,,,,,,,,,,,,7,1.804999828,7,1.386999846,1,0,1200,286,1,1199,superstar,11127,2019-10-21_16h50.11.527,SurveyExpMetaMem,3.2.3,MacIntel,60
,,,,,,,,,,,,,,,,,,,,2,6.838000059,8,3.95299983,1,0,1200,751,1,1199,listen,11127,2019-10-21_16h50.11.527,SurveyExpMetaMem,3.2.3,MacIntel,60
,,,,,,,,,,,,,,,,,,,,4,5.751999855,8,2.036999702,1,0,1200,854,1,1199,river,11127,2019-10-21_16h50.11.527,SurveyExpMetaMem,3.2.3,MacIntel,60
,,,,,,,,,,,,,,,,,,,,8,2.465999842,8,1.445999861,1,0,1200,288,1,1199,tasty,11127,2019-10-21_16h50.11.527,SurveyExpMetaMem,3.2.3,MacIntel,60
,,,,,,,,,,,,,,,,,,,,8,2.036999941,8,2.004999876,1,0,1200,823,1,1199,nourish,11127,2019-10-21_16h50.11.527,SurveyExpMetaMem,3.2.3,MacIntel,60
,,,,,,,,,,,,,,,,,,,,2,4.628999949,8,2.579999924,1,0,1200,705,1,1199,tolerant,11127,2019-10-21_16h50.11.527,SurveyExpMetaMem,3.2.3,MacIntel,60
,,,,,,,,,,,,,,,,,,,,2,2.966999769,7,1.887999773,1,0,1200,634,1,1199,glacier,11127,2019-10-21_16h50.11.527,SurveyExpMetaMem,3.2.3,MacIntel,60
,,,,,,,,,,,,,,,,,,,,8,4,4,2.618999958,1,0,1200,148,1,1199,victory,11127,2019-10-21_16h50.11.527,SurveyExpMetaMem,3.2.3,MacIntel,60
,,,,,,,,,,,,,,,,,,,,1,10.18099999,9,1.578999996,1,0,1200,803,1,1199,tidy,11127,2019-10-21_16h50.11.527,SurveyExpMetaMem,3.2.3,MacIntel,60
,,,,,,,,,,,,,,,,,,,,5,2.26699996,5,0.351000071,1,0,1200,602,1,1199,vegetable,11127,2019-10-21_16h50.11.527,SurveyExpMetaMem,3.2.3,MacIntel,60
,,,,,,,,,,,,,,,,,,,,8,40.69300008,8,0.335999966,1,0,1200,789,1,1199,green,11127,2019-10-21_16h50.11.527,SurveyExpMetaMem,3.2.3,MacIntel,60
,,,,,,,,,,,,,,,,,,,,9,2.513000011,7,0.93599987,1,0,1200,1002,1,1199,wounds,11127,2019-10-21_16h50.11.527,SurveyExpMetaMem,3.2.3,MacIntel,60
,,,,,,,,,,,,,,,,,,,,2,4.904999971,2,1.036000013,1,0,1200,369,1,1199,blind,11127,2019-10-21_16h50.11.527,SurveyExpMetaMem,3.2.3,MacIntel,60
,,,,,,,,,,,,,,,,,,,,5,1.717999935,5,0.234999895,1,0,1200,388,1,1199,mildew,11127,2019-10-21_16h50.11.527,SurveyExpMetaMem,3.2.3,MacIntel,60
,,,,,,,,,,,,,,,,,,,,9,1.894999743,2,0.578999758,1,0,1200,456,1,1199,piss,11127,2019-10-21_16h50.11.527,SurveyExpMetaMem,3.2.3,MacIntel,60
,,,,,,,,,,,,,,,,,,,,9,2.072999954,5,1.869999886,1,0,1200,1094,1,1199,disruptive,11127,2019-10-21_16h50.11.527,SurveyExpMetaMem,3.2.3,MacIntel,60
,,,,,,,,,,,,,,,,,,,,2,4.200999975,1,0.662999868,1,0,1200,209,1,1199,husband,11127,2019-10-21_16h50.11.527,SurveyExpMetaMem,3.2.3,MacIntel,60
,,,,,,,,,,,,,,,,,,,,9,2.951999903,8,1.720999956,1,0,1200,290,1,1199,enthusiasm,11127,2019-10-21_16h50.11.527,SurveyExpMetaMem,3.2.3,MacIntel,60
,,,,,,,,,,,,,,,,,,,,5,3.269999743,5,0.41899991,1,0,1200,398,1,1199,handicapped,11127,2019-10-21_16h50.11.527,SurveyExpMetaMem,3.2.3,MacIntel,60
,,,,,,,,,,,,,,,,,,,,7,3.625999928,7,1.568999767,1,0,1200,131,1,1199,treat,11127,2019-10-21_16h50.11.527,SurveyExpMetaMem,3.2.3,MacIntel,60
,,,,,,,,,,,,,,,,,,,,5,15.33999991,5,0.271999836,1,0,1200,633,1,1199,cattle,11127,2019-10-21_16h50.11.527,SurveyExpMetaMem,3.2.3,MacIntel,60
,,,,,,,,,,,,,,,,,,,,8,4.320999861,2,2.386999846,1,0,1200,1003,1,1199,jealousy,11127,2019-10-21_16h50.11.527,SurveyExpMetaMem,3.2.3,MacIntel,60
,,,,,,,,,,,,,,,,,,,,3,3.198999882,1,1.828999996,1,0,1200,314,1,1199,hopeless,11127,2019-10-21_16h50.11.527,SurveyExpMetaMem,3.2.3,MacIntel,60
,,,,,,,,,,,,,,,,,,,,9,1.651999712,8,1.072999954,1,0,1200,199,1,1199,laughter,11127,2019-10-21_16h50.11.527,SurveyExpMetaMem,3.2.3,MacIntel,60
,,,,,,,,,,,,,,,,,,,,5,1.784999847,5,0.646999836,1,0,1200,696,1,1199,rink,11127,2019-10-21_16h50.11.527,SurveyExpMetaMem,3.2.3,MacIntel,60
,,,,,,,,,,,,,,,,,,,,5,6.696000099,2,1.506999969,1,0,1200,475,1,1199,nameless,11127,2019-10-21_16h50.11.527,SurveyExpMetaMem,3.2.3,MacIntel,60
,,,,,,,,,,,,,,,,,,,,5,4.437999964,5,0.32400012,1,0,1200,1017,1,1199,aggravated,11127,2019-10-21_16h50.11.527,SurveyExpMetaMem,3.2.3,MacIntel,60
,,,,,,,,,,,,,,,,,,,,8,31.15399981,8,1.237999916,1,0,1200,282,1,1199,luck,11127,2019-10-21_16h50.11.527,SurveyExpMetaMem,3.2.3,MacIntel,60
,,,,,,,,,,,,,,,,,,,,1,2.950999975,1,0.394999981,1,0,1200,877,1,1199,bless,11127,2019-10-21_16h50.11.527,SurveyExpMetaMem,3.2.3,MacIntel,60
,,,,,,,,,,,,,,,,,,,,6,3.456999779,9,1.235999823,1,0,1200,509,1,1199,ash,11127,2019-10-21_16h50.11.527,SurveyExpMetaMem,3.2.3,MacIntel,60
,,,,,,,,,,,,,,,,,,,,1,1.996999979,2,1.402999878,1,0,1200,333,1,1199,weak,11127,2019-10-21_16h50.11.527,SurveyExpMetaMem,3.2.3,MacIntel,60
,,,,,,,,,,,,,,,,,,,,8,1.993999958,5,2.540999889,1,0,1200,1142,1,1199,disturb,11127,2019-10-21_16h50.11.527,SurveyExpMetaMem,3.2.3,MacIntel,60
,,,,,,,,,,,,,,,,,,,,9,2.268999815,8,0.388000011,1,0,1200,472,1,1199,bald,11127,2019-10-21_16h50.11.527,SurveyExpMetaMem,3.2.3,MacIntel,60
,,,,,,,,,,,,,,,,,,,,1,2.527999878,1,1.443000078,1,0,1200,742,1,1199,window,11127,2019-10-21_16h50.11.527,SurveyExpMetaMem,3.2.3,MacIntel,60
,,,,,,,,,,,,,,,,,,,,8,7.111000061,1,1.401000023,1,0,1200,243,1,1199,fame,11127,2019-10-21_16h50.11.527,SurveyExpMetaMem,3.2.3,MacIntel,60
,,,,,,,,,,,,,,,,,,,,5,2.75999999,3,0.836999893,1,0,1200,1148,1,1199,suspicious,11127,2019-10-21_16h50.11.527,SurveyExpMetaMem,3.2.3,MacIntel,60
,,,,,,,,,,,,,,,,,,,,7,2.872999907,3,0.544999838,1,0,1200,935,1,1199,despise,11127,2019-10-21_16h50.11.527,SurveyExpMetaMem,3.2.3,MacIntel,60
,,,,,,,,,,,,,,,,,,,,5,3.184999943,5,0.237999916,1,0,1200,306,1,1199,gloom,11127,2019-10-21_16h50.11.527,SurveyExpMetaMem,3.2.3,MacIntel,60
,,,,,,,,,,,,,,,,,,,,8,2.042000055,8,0.535999775,1,0,1200,214,1,1199,revive,11127,2019-10-21_16h50.11.527,SurveyExpMetaMem,3.2.3,MacIntel,60
,,,,,,,,,,,,,,,,,,,,3,1.847999811,7,0.417999744,1,0,1200,647,1,1199,accord,11127,2019-10-21_16h50.11.527,SurveyExpMetaMem,3.2.3,MacIntel,60
,,,,,,,,,,,,,,,,,,,,5,2.354999781,5,0.31799984,1,0,1200,698,1,1199,oven,11127,2019-10-21_16h50.11.527,SurveyExpMetaMem,3.2.3,MacIntel,60
,,,,,,,,,,,,,,,,,,,,8,2.018000126,8,0.518000126,1,0,1200,1184,1,1199,reckless,11127,2019-10-21_16h50.11.527,SurveyExpMetaMem,3.2.3,MacIntel,60
,,,,,,,,,,,,,,,,,,,,5,2.088999748,5,0.284999847,1,0,1200,1114,1,1199,foe,11127,2019-10-21_16h50.11.527,SurveyExpMetaMem,3.2.3,MacIntel,60
,,,,,,,,,,,,,,,,,,,,7,2.805000067,6,0.618000031,1,0,1200,469,1,1199,resent,11127,2019-10-21_16h50.11.527,SurveyExpMetaMem,3.2.3,MacIntel,60
,,,,,,,,,,,,,,,,,,,,1,10.53399992,1,1.766000032,1,0,1200,827,1,1199,saint,11127,2019-10-21_16h50.11.527,SurveyExpMetaMem,3.2.3,MacIntel,60
,,,,,,,,,,,,,,,,,,,,7,4.506999969,6,1.950999975,1,0,1200,1193,1,1199,damn,11127,2019-10-21_16h50.11.527,SurveyExpMetaMem,3.2.3,MacIntel,60
,,,,,,,,,,,,,,,,,,,,4,6.866999865,8,0.753999949,1,0,1200,192,1,1199,pleased,11127,2019-10-21_16h50.11.527,SurveyExpMetaMem,3.2.3,MacIntel,60
,,,,,,,,,,,,,,,,,,,,5,3.411999941,5,1.446999788,1,0,1200,1155,1,1199,tangle,11127,2019-10-21_16h50.11.527,SurveyExpMetaMem,3.2.3,MacIntel,60
,,,,,,,,,,,,,,,,,,,,8,27.43999982,3,0.609999895,1,0,1200,485,1,1199,pinch,11127,2019-10-21_16h50.11.527,SurveyExpMetaMem,3.2.3,MacIntel,60
,,,,,,,,,,,,,,,,,,,,8,2.65199995,3,0.398999929,1,0,1200,964,1,1199,grieve,11127,2019-10-21_16h50.11.527,SurveyExpMetaMem,3.2.3,MacIntel,60
,,,,,,,,,,,,,,,,,,,,7,1.671999931,8,1.334000111,1,0,1200,168,1,1199,mate,11127,2019-10-21_16h50.11.527,SurveyExpMetaMem,3.2.3,MacIntel,60
,,,,,,,,,,,,,,,,,,,,2,2.277999878,8,1.252999783,1,0,1200,1191,1,1199,evade,11127,2019-10-21_16h50.11.527,SurveyExpMetaMem,3.2.3,MacIntel,60
,,,,,,,,,,,,,,,,,,,,5,1.63499999,5,0.42599988,1,0,1200,480,1,1199,hinder,11127,2019-10-21_16h50.11.527,SurveyExpMetaMem,3.2.3,MacIntel,60
,,,,,,,,,,,,,,,,,,,,8,1.098999977,2,1.400999784,1,0,1200,650,1,1199,native,11127,2019-10-21_16h50.11.527,SurveyExpMetaMem,3.2.3,MacIntel,60
,,,,,,,,,,,,,,,,,,,,2,1.753000021,2,2.348999977,1,0,1200,402,1,1199,dismissive,11127,2019-10-21_16h50.11.527,SurveyExpMetaMem,3.2.3,MacIntel,60
,,,,,,,,,,,,,,,,,,,,8,1.06099987,2,0.620000124,1,0,1200,1139,1,1199,scare,11127,2019-10-21_16h50.11.527,SurveyExpMetaMem,3.2.3,MacIntel,60
,,,,,,,,,,,,,,,,,,,,2,2.116999865,8,1.370999813,1,0,1200,6,1,1199,chest,11127,2019-10-21_16h50.11.527,SurveyExpMetaMem,3.2.3,MacIntel,60
,,,,,,,,,,,,,,,,,,,,3,6.74399972,2,0.987999916,1,0,1200,530,1,1199,erase,11127,2019-10-21_16h50.11.527,SurveyExpMetaMem,3.2.3,MacIntel,60
,,,,,,,,,,,,,,,,,,,,7,1.710000038,3,0.910000086,1,0,1200,448,1,1199,depart,11127,2019-10-21_16h50.11.527,SurveyExpMetaMem,3.2.3,MacIntel,60
,,,,,,,,,,,,,,,,,,,,5,1.924999952,5,0.232999802,1,0,1200,339,1,1199,chore,11127,2019-10-21_16h50.11.527,SurveyExpMetaMem,3.2.3,MacIntel,60
,,,,,,,,,,,,,,,,,,,,1,2.023999929,3,1.674999952,1,0,1200,505,1,1199,exhaust,11127,2019-10-21_16h50.11.527,SurveyExpMetaMem,3.2.3,MacIntel,60
,,,,,,,,,,,,,,,,,,,,8,4.816999912,8,1.214999914,1,0,1200,43,1,1199,diamond,11127,2019-10-21_16h50.11.527,SurveyExpMetaMem,3.2.3,MacIntel,60
,,,,,,,,,,,,,,,,,,,,5,7.552999735,3,2.006000042,1,0,1200,1081,1,1199,damage,11127,2019-10-21_16h50.11.527,SurveyExpMetaMem,3.2.3,MacIntel,60
,,,,,,,,,,,,,,,,,,,,5,1.402999878,5,0.204999924,1,0,1200,498,1,1199,alimony,11127,2019-10-21_16h50.11.527,SurveyExpMetaMem,3.2.3,MacIntel,60
,,,,,,,,,,,,,,,,,,,,8,8.900999784,8,0.428999901,1,0,1200,293,1,1199,succeed,11127,2019-10-21_16h50.11.527,SurveyExpMetaMem,3.2.3,MacIntel,60
,,,,,,,,,,,,,,,,,,,,8,2.763999939,1,1.072999716,1,0,1200,1119,1,1199,confusion,11127,2019-10-21_16h50.11.527,SurveyExpMetaMem,3.2.3,MacIntel,60
,,,,,,,,,,,,,,,,,,,,1,2.518000126,1,1.454999924,1,0,1200,428,1,1199,end,11127,2019-10-21_16h50.11.527,SurveyExpMetaMem,3.2.3,MacIntel,60
,,,,,,,,,,,,,,,,,,,,8,2.885999918,7,1.023000002,1,0,1200,198,1,1199,comedy,11127,2019-10-21_16h50.11.527,SurveyExpMetaMem,3.2.3,MacIntel,60
,,,,,,,,,,,,,,,,,,,,8,1.868000031,5,1.335999727,1,0,1200,176,1,1199,champ,11127,2019-10-21_16h50.11.527,SurveyExpMetaMem,3.2.3,MacIntel,60
,,,,,,,,,,,,,,,,,,,,8,2.851999998,2,1.194000006,1,0,1200,1100,1,1199,evil,11127,2019-10-21_16h50.11.527,SurveyExpMetaMem,3.2.3,MacIntel,60
,,,,,,,,,,,,,,,,,,,,8,5.059000015,3,0.697999954,1,0,1200,427,1,1199,doubt,11127,2019-10-21_16h50.11.527,SurveyExpMetaMem,3.2.3,MacIntel,60
,,,,,,,,,,,,,,,,,,,,8,1.725999832,7,0.663999796,1,0,1200,1104,1,1199,avalanche,11127,2019-10-21_16h50.11.527,SurveyExpMetaMem,3.2.3,MacIntel,60
,,,,,,,,,,,,,,,,,,,,8,1.51699996,1,0.732999802,1,0,1200,944,1,1199,kill,11127,2019-10-21_16h50.11.527,SurveyExpMetaMem,3.2.3,MacIntel,60
,,,,,,,,,,,,,,,,,,,,1,1.578000069,9,1.786999702,1,0,1200,734,1,1199,piano,11127,2019-10-21_16h50.11.527,SurveyExpMetaMem,3.2.3,MacIntel,60
,,,,,,,,,,,,,,,,,,,,1,1.696000099,9,0.392999887,1,0,1200,180,1,1199,embrace,11127,2019-10-21_16h50.11.527,SurveyExpMetaMem,3.2.3,MacIntel,60
,,,,,,,,,,,,,,,,,,,,2,1.795999765,8,0.336999893,1,0,1200,737,1,1199,lamb,11127,2019-10-21_16h50.11.527,SurveyExpMetaMem,3.2.3,MacIntel,60
,,,,,,,,,,,,,,,,,,,,5,2.650999784,5,0.579999924,1,0,1200,593,1,1199,errand,11127,2019-10-21_16h50.11.527,SurveyExpMetaMem,3.2.3,MacIntel,60
,,,,,,,,,,,,,,,,,,,,8,2.763999939,1,1.545000076,1,0,1200,957,1,1199,debt,11127,2019-10-21_16h50.11.527,SurveyExpMetaMem,3.2.3,MacIntel,60
,,,,,,,,,,,,,,,,,,,,5,1.735999823,5,0.20600009,1,0,1200,1162,1,1199,baffle,11127,2019-10-21_16h50.11.527,SurveyExpMetaMem,3.2.3,MacIntel,60
,,,,,,,,,,,,,,,,,,,,7,2.818999767,2,0.704999924,1,0,1200,902,1,1199,rejected,11127,2019-10-21_16h50.11.527,SurveyExpMetaMem,3.2.3,MacIntel,60
,,,,,,,,,,,,,,,,,,,,7,2.000999928,5,1.123999834,1,0,1200,127,1,1199,glamorous,11127,2019-10-21_16h50.11.527,SurveyExpMetaMem,3.2.3,MacIntel,60
,,,,,,,,,,,,,,,,,,,,5,2.517999887,5,0.361999989,1,0,1200,838,1,1199,nestle,11127,2019-10-21_16h50.11.527,SurveyExpMetaMem,3.2.3,MacIntel,60
,,,,,,,,,,,,,,,,,,,,7,3.218999863,2,0.95299983,1,0,1200,563,1,1199,stupor,11127,2019-10-21_16h50.11.527,SurveyExpMetaMem,3.2.3,MacIntel,60
,,,,,,,,,,,,,,,,,,,,8,1.396999836,8,0.646999836,1,0,1200,141,1,1199,surprise,11127,2019-10-21_16h50.11.527,SurveyExpMetaMem,3.2.3,MacIntel,60
,,,,,,,,,,,,,,,,,,,,8,2.682999849,5,1.210999727,1,0,1200,104,1,1199,freeway,11127,2019-10-21_16h50.11.527,SurveyExpMetaMem,3.2.3,MacIntel,60
,,,,,,,,,,,,,,,,,,,,8,1.492999792,1,0.552999973,1,0,1200,1022,1,1199,creepy,11127,2019-10-21_16h50.11.527,SurveyExpMetaMem,3.2.3,MacIntel,60
,,,,,,,,,,,,,,,,,,,,8,10.68599987,6,1.108999968,1,0,1200,78,1,1199,energetic,11127,2019-10-21_16h50.11.527,SurveyExpMetaMem,3.2.3,MacIntel,60
,,,,,,,,,,,,,,,,,,,,5,2.88499999,6,2.120999813,1,0,1200,835,1,1199,helpful,11127,2019-10-21_16h50.11.527,SurveyExpMetaMem,3.2.3,MacIntel,60
,,,,,,,,,,,,,,,,,,,,8,1.769999981,2,0.721999884,1,0,1200,922,1,1199,nightmare,11127,2019-10-21_16h50.11.527,SurveyExpMetaMem,3.2.3,MacIntel,60
,,,,,,,,,,,,,,,,,,,,8,3.328000069,8,0.726999998,1,0,1200,20,1,1199,climax,11127,2019-10-21_16h50.11.527,SurveyExpMetaMem,3.2.3,MacIntel,60
,,,,,,,,,,,,,,,,,,,,1,5.63499999,1,0.637999773,1,0,1200,416,1,1199,boring,11127,2019-10-21_16h50.11.527,SurveyExpMetaMem,3.2.3,MacIntel,60
,,,,,,,,,,,,,,,,,,,,2,2.411000013,2,1.105999947,1,0,1200,337,1,1199,stinks,11127,2019-10-21_16h50.11.527,SurveyExpMetaMem,3.2.3,MacIntel,60
,,,,,,,,,,,,,,,,,,,,8,2.15199995,8,3.155999899,1,0,1200,872,1,1199,dignified,11127,2019-10-21_16h50.11.527,SurveyExpMetaMem,3.2.3,MacIntel,60
,,,,,,,,,,,,,,,,,,,,8,1.66899991,2,0.514999866,1,0,1200,917,1,1199,slave,11127,2019-10-21_16h50.11.527,SurveyExpMetaMem,3.2.3,MacIntel,60
,,,,,,,,,,,,,,,,,,,,8,1.271999836,3,0.635999918,1,0,1200,319,1,1199,malaria,11127,2019-10-21_16h50.11.527,SurveyExpMetaMem,3.2.3,MacIntel,60
,,,,,,,,,,,,,,,,,,,,8,4.551999807,5,1.267999887,1,0,1200,224,1,1199,strengthen,11127,2019-10-21_16h50.11.527,SurveyExpMetaMem,3.2.3,MacIntel,60
,,,,,,,,,,,,,,,,,,,,5,1.586999893,5,0.24000001,1,0,1200,1182,1,1199,pierce,11127,2019-10-21_16h50.11.527,SurveyExpMetaMem,3.2.3,MacIntel,60
,,,,,,,,,,,,,,,,,,,,5,2.517999887,5,0.217999935,1,0,1200,492,1,1199,naive,11127,2019-10-21_16h50.11.527,SurveyExpMetaMem,3.2.3,MacIntel,60
,,,,,,,,,,,,,,,,,,,,5,2.183999777,5,0.214999914,1,0,1200,1091,1,1199,cram,11127,2019-10-21_16h50.11.527,SurveyExpMetaMem,3.2.3,MacIntel,60
,,,,,,,,,,,,,,,,,,,,8,1.786999941,8,0.713999987,1,0,1200,41,1,1199,progress,11127,2019-10-21_16h50.11.527,SurveyExpMetaMem,3.2.3,MacIntel,60
,,,,,,,,,,,,,,,,,,,,7,2.286000013,5,2.003000021,1,0,1200,1066,1,1199,annoy,11127,2019-10-21_16h50.11.527,SurveyExpMetaMem,3.2.3,MacIntel,60
,,,,,,,,,,,,,,,,,,,,7,2.133999825,8,2.212999821,1,0,1200,265,1,1199,invent,11127,2019-10-21_16h50.11.527,SurveyExpMetaMem,3.2.3,MacIntel,60
,,,,,,,,,,,,,,,,,,,,8,3.182999849,9,2.746000051,1,0,1200,213,1,1199,fair,11127,2019-10-21_16h50.11.527,SurveyExpMetaMem,3.2.3,MacIntel,60
,,,,,,,,,,,,,,,,,,,,5,2.069000006,5,0.421999931,1,0,1200,996,1,1199,sting,11127,2019-10-21_16h50.11.527,SurveyExpMetaMem,3.2.3,MacIntel,60
,,,,,,,,,,,,,,,,,,,,8,11.3809998,2,0.602999926,1,0,1200,914,1,1199,fail,11127,2019-10-21_16h50.11.527,SurveyExpMetaMem,3.2.3,MacIntel,60
,,,,,,,,,,,,,,,,,,,,7,2.702000141,7,1.055000067,1,0,1200,33,1,1199,sister,11127,2019-10-21_16h50.11.527,SurveyExpMetaMem,3.2.3,MacIntel,60
,,,,,,,,,,,,,,,,,,,,2,2.497999907,6,1.161999702,1,0,1200,857,1,1199,thankful,11127,2019-10-21_16h50.11.527,SurveyExpMetaMem,3.2.3,MacIntel,60
,,,,,,,,,,,,,,,,,,,,8,1.854000092,1,0.801999807,1,0,1200,1170,1,1199,police,11127,2019-10-21_16h50.11.527,SurveyExpMetaMem,3.2.3,MacIntel,60
,,,,,,,,,,,,,,,,,,,,5,14.89699984,2,1.236999989,1,0,1200,328,1,1199,disgrace,11127,2019-10-21_16h50.11.527,SurveyExpMetaMem,3.2.3,MacIntel,60
,,,,,,,,,,,,,,,,,,,,8,1.589999914,7,1.368999958,1,0,1200,142,1,1199,christmas,11127,2019-10-21_16h50.11.527,SurveyExpMetaMem,3.2.3,MacIntel,60
,,,,,,,,,,,,,,,,,,,,5,1.569999933,5,0.29399991,1,0,1200,453,1,1199,prude,11127,2019-10-21_16h50.11.527,SurveyExpMetaMem,3.2.3,MacIntel,60
,,,,,,,,,,,,,,,,,,,,1,1.717999935,8,0.996999979,1,0,1200,867,1,1199,relaxed,11127,2019-10-21_16h50.11.527,SurveyExpMetaMem,3.2.3,MacIntel,60
,,,,,,,,,,,,,,,,,,,,8,1.905999899,1,0.802999973,1,0,1200,983,1,1199,demonic,11127,2019-10-21_16h50.11.527,SurveyExpMetaMem,3.2.3,MacIntel,60
,,,,,,,,,,,,,,,,,,,,7,1.917999983,3,0.984999895,1,0,1200,570,1,1199,muddy,11127,2019-10-21_16h50.11.527,SurveyExpMetaMem,3.2.3,MacIntel,60
,,,,,,,,,,,,,,,,,,,,7,1.752999783,2,1.792999744,1,0,1200,1065,1,1199,slap,11127,2019-10-21_16h50.11.527,SurveyExpMetaMem,3.2.3,MacIntel,60
,,,,,,,,,,,,,,,,,,,,9,1.484999895,1,0.93599987,1,0,1200,1007,1,1199,tornado,11127,2019-10-21_16h50.11.527,SurveyExpMetaMem,3.2.3,MacIntel,60
,,,,,,,,,,,,,,,,,,,,1,2.287999868,5,2.106999874,1,0,1200,643,1,1199,library,11127,2019-10-21_16h50.11.527,SurveyExpMetaMem,3.2.3,MacIntel,60
,,,,,,,,,,,,,,,,,,,,3,2.637999773,2,4.505999804,1,0,1200,666,1,1199,verify,11127,2019-10-21_16h50.11.527,SurveyExpMetaMem,3.2.3,MacIntel,60
,,,,,,,,,,,,,,,,,,,,5,1.510999918,5,0.20600009,1,0,1200,648,1,1199,beads,11127,2019-10-21_16h50.11.527,SurveyExpMetaMem,3.2.3,MacIntel,60
,,,,,,,,,,,,,,,,,,,,1,6.903999805,9,1.085999966,1,0,1200,892,1,1199,untroubled,11127,2019-10-21_16h50.11.527,SurveyExpMetaMem,3.2.3,MacIntel,60
,,,,,,,,,,,,,,,,,,,,6,2.006999969,5,0.360999823,1,0,1200,138,1,1199,blessings,11127,2019-10-21_16h50.11.527,SurveyExpMetaMem,3.2.3,MacIntel,60
,,,,,,,,,,,,,,,,,,,,8,2.328000069,1,0.676000118,1,0,1200,916,1,1199,starvation,11127,2019-10-21_16h50.11.527,SurveyExpMetaMem,3.2.3,MacIntel,60
,,,,,,,,,,,,,,,,,,,,7,2.944000006,5,1.156000137,1,0,1200,1133,1,1199,slip,11127,2019-10-21_16h50.11.527,SurveyExpMetaMem,3.2.3,MacIntel,60
,,,,,,,,,,,,,,,,,,,,5,1.807999849,5,0.227999926,1,0,1200,567,1,1199,folly,11127,2019-10-21_16h50.11.527,SurveyExpMetaMem,3.2.3,MacIntel,60
,,,,,,,,,,,,,,,,,,,,7,2.569999933,7,2.771999836,1,0,1200,574,1,1199,distracted,11127,2019-10-21_16h50.11.527,SurveyExpMetaMem,3.2.3,MacIntel,60
,,,,,,,,,,,,,,,,,,,,1,4.22699976,1,0.773999929,1,0,1200,623,1,1199,suburban,11127,2019-10-21_16h50.11.527,SurveyExpMetaMem,3.2.3,MacIntel,60
,,,,,,,,,,,,,,,,,,,,8,4.344000101,1,6.115999937,1,0,1200,1096,1,1199,flood,11127,2019-10-21_16h50.11.527,SurveyExpMetaMem,3.2.3,MacIntel,60
,,,,,,,,,,,,,,,,,,,,1,2.561000109,5,2.125999928,1,0,1200,355,1,1199,graveyard,11127,2019-10-21_16h50.11.527,SurveyExpMetaMem,3.2.3,MacIntel,60
,,,,,,,,,,,,,,,,,,,,5,5.477999926,5,1.058999777,1,0,1200,755,1,1199,soap,11127,2019-10-21_16h50.11.527,SurveyExpMetaMem,3.2.3,MacIntel,60
,,,,,,,,,,,,,,,,,,,,7,11.99799991,1,0.427999973,1,0,1200,992,1,1199,addict,11127,2019-10-21_16h50.11.527,SurveyExpMetaMem,3.2.3,MacIntel,60
,,,,,,,,,,,,,,,,,,,,2,2.77699995,2,0.924000025,1,0,1200,521,1,1199,laundry,11127,2019-10-21_16h50.11.527,SurveyExpMetaMem,3.2.3,MacIntel,60
,,,,,,,,,,,,,,,,,,,,5,1.573999882,5,0.19299984,1,0,1200,611,1,1199,herring,11127,2019-10-21_16h50.11.527,SurveyExpMetaMem,3.2.3,MacIntel,60
,,,,,,,,,,,,,,,,,,,,5,7.365999937,5,0.18599987,1,0,1200,270,1,1199,toddler,11127,2019-10-21_16h50.11.527,SurveyExpMetaMem,3.2.3,MacIntel,60
,,,,,,,,,,,,,,,,,,,,5,4.204999924,5,0.228999853,1,0,1200,461,1,1199,ail,11127,2019-10-21_16h50.11.527,SurveyExpMetaMem,3.2.3,MacIntel,60
,,,,,,,,,,,,,,,,,,,,1,5.664000034,8,0.96999979,1,0,1200,831,1,1199,sofa,11127,2019-10-21_16h50.11.527,SurveyExpMetaMem,3.2.3,MacIntel,60
,,,,,,,,,,,,,,,,,,,,8,1.604000092,7,1.376999855,1,0,1200,998,1,1199,virus,11127,2019-10-21_16h50.11.527,SurveyExpMetaMem,3.2.3,MacIntel,60
,,,,,,,,,,,,,,,,,,,,8,2.000999928,8,0.828999758,1,0,1200,775,1,1199,pancakes,11127,2019-10-21_16h50.11.527,SurveyExpMetaMem,3.2.3,MacIntel,60
,,,,,,,,,,,,,,,,,,,,9,1.638999939,1,0.921000004,1,0,1200,1154,1,1199,politics,11127,2019-10-21_16h50.11.527,SurveyExpMetaMem,3.2.3,MacIntel,60
,,,,,,,,,,,,,,,,,,,,6,2.437999964,5,0.40199995,1,0,1200,24,1,1199,model,11127,2019-10-21_16h50.11.527,SurveyExpMetaMem,3.2.3,MacIntel,60
,,,,,,,,,,,,,,,,,,,,8,2.07400012,8,0.947000027,1,0,1200,109,1,1199,new,11127,2019-10-21_16h50.11.527,SurveyExpMetaMem,3.2.3,MacIntel,60
,,,,,,,,,,,,,,,,,,,,8,2.209000111,8,0.603999853,1,0,1200,114,1,1199,raise,11127,2019-10-21_16h50.11.527,SurveyExpMetaMem,3.2.3,MacIntel,60
,,,,,,,,,,,,,,,,,,,,8,2.518999815,7,1.885999918,1,0,1200,17,1,1199,outgoing,11127,2019-10-21_16h50.11.527,SurveyExpMetaMem,3.2.3,MacIntel,60
,,,,,,,,,,,,,,,,,,,,1,1.534999847,8,1.687000036,1,0,1200,631,1,1199,delicate,11127,2019-10-21_16h50.11.527,SurveyExpMetaMem,3.2.3,MacIntel,60
,,,,,,,,,,,,,,,,,,,,5,1.732000113,5,2.635999918,1,0,1200,1092,1,1199,rattlesnake,11127,2019-10-21_16h50.11.527,SurveyExpMetaMem,3.2.3,MacIntel,60
,,,,,,,,,,,,,,,,,,,,6,3.424000025,3,2.271999836,1,0,1200,526,1,1199,dry,11127,2019-10-21_16h50.11.527,SurveyExpMetaMem,3.2.3,MacIntel,60
,,,,,,,,,,,,,,,,,,,,5,10.88499999,5,0.138999939,1,0,1200,790,1,1199,binoculars,11127,2019-10-21_16h50.11.527,SurveyExpMetaMem,3.2.3,MacIntel,60
,,,,,,,,,,,,,,,,,,,,7,2.118999958,3,0.373999834,1,0,1200,429,1,1199,cough,11127,2019-10-21_16h50.11.527,SurveyExpMetaMem,3.2.3,MacIntel,60
,,,,,,,,,,,,,,,,,,,,8,2.91899991,2,0.86500001,1,0,1200,933,1,1199,afraid,11127,2019-10-21_16h50.11.527,SurveyExpMetaMem,3.2.3,MacIntel,60
,,,,,,,,,,,,,,,,,,,,5,2.276000023,5,0.381000042,1,0,1200,479,1,1199,period,11127,2019-10-21_16h50.11.527,SurveyExpMetaMem,3.2.3,MacIntel,60
,,,,,,,,,,,,,,,,,,,,5,1.904999971,5,0.301999807,1,0,1200,993,1,1199,remorse,11127,2019-10-21_16h50.11.527,SurveyExpMetaMem,3.2.3,MacIntel,60
,,,,,,,,,,,,,,,,,,,,8,2.085000038,2,0.855000019,1,0,1200,982,1,1199,robbery,11127,2019-10-21_16h50.11.527,SurveyExpMetaMem,3.2.3,MacIntel,60
,,,,,,,,,,,,,,,,,,,,9,1.529999733,1,0.322999954,1,0,1200,1049,1,1199,electrocute,11127,2019-10-21_16h50.11.527,SurveyExpMetaMem,3.2.3,MacIntel,60
,,,,,,,,,,,,,,,,,,,,6,6.621000051,5,0.23699975,1,0,1200,759,1,1199,prefer,11127,2019-10-21_16h50.11.527,SurveyExpMetaMem,3.2.3,MacIntel,60
,,,,,,,,,,,,,,,,,,,,2,3.754999876,3,0.735999823,1,0,1200,405,1,1199,fatigued,11127,2019-10-21_16h50.11.527,SurveyExpMetaMem,3.2.3,MacIntel,60
,,,,,,,,,,,,,,,,,,,,8,2.102999926,2,0.648000002,1,0,1200,1159,1,1199,rifle,11127,2019-10-21_16h50.11.527,SurveyExpMetaMem,3.2.3,MacIntel,60
,,,,,,,,,,,,,,,,,,,,8,4.922999859,8,1.218999863,1,0,1200,90,1,1199,satisfaction,11127,2019-10-21_16h50.11.527,SurveyExpMetaMem,3.2.3,MacIntel,60
,,,,,,,,,,,,,,,,,,,,8,2.4599998,2,0.654000044,1,0,1200,1111,1,1199,bruise,11127,2019-10-21_16h50.11.527,SurveyExpMetaMem,3.2.3,MacIntel,60
,,,,,,,,,,,,,,,,,,,,8,6.803999901,8,1.391000032,1,0,1200,809,1,1199,boy,11127,2019-10-21_16h50.11.527,SurveyExpMetaMem,3.2.3,MacIntel,60
,,,,,,,,,,,,,,,,,,,,8,5.921000004,2,0.855000019,1,0,1200,311,1,1199,discomfort,11127,2019-10-21_16h50.11.527,SurveyExpMetaMem,3.2.3,MacIntel,60
,,,,,,,,,,,,,,,,,,,,8,1.574999809,7,0.789999962,1,0,1200,1053,1,1199,surgery,11127,2019-10-21_16h50.11.527,SurveyExpMetaMem,3.2.3,MacIntel,60
,,,,,,,,,,,,,,,,,,,,8,5.075999737,3,0.461999893,1,0,1200,443,1,1199,incorrect,11127,2019-10-21_16h50.11.527,SurveyExpMetaMem,3.2.3,MacIntel,60
,,,,,,,,,,,,,,,,,,,,5,1.272999763,5,0.221999884,1,0,1200,460,1,1199,rag,11127,2019-10-21_16h50.11.527,SurveyExpMetaMem,3.2.3,MacIntel,60
,,,,,,,,,,,,,,,,,,,,2,2.870999813,5,1.508999825,1,0,1200,825,1,1199,swan,11127,2019-10-21_16h50.11.527,SurveyExpMetaMem,3.2.3,MacIntel,60
,,,,,,,,,,,,,,,,,,,,8,11.13599992,5,1.769000053,1,0,1200,813,1,1199,walking,11127,2019-10-21_16h50.11.527,SurveyExpMetaMem,3.2.3,MacIntel,60
,,,,,,,,,,,,,,,,,,,,8,1.950999737,8,0.339999914,1,0,1200,93,1,1199,smiling,11127,2019-10-21_16h50.11.527,SurveyExpMetaMem,3.2.3,MacIntel,60
,,,,,,,,,,,,,,,,,,,,5,6.085999727,5,0.13499999,1,0,1200,518,1,1199,report,11127,2019-10-21_16h50.11.527,SurveyExpMetaMem,3.2.3,MacIntel,60
,,,,,,,,,,,,,,,,,,,,8,1.371999741,7,0.986000061,1,0,1200,523,1,1199,witch,11127,2019-10-21_16h50.11.527,SurveyExpMetaMem,3.2.3,MacIntel,60
,,,,,,,,,,,,,,,,,,,,2,2.338999987,5,1.749000072,1,0,1200,646,1,1199,wear,11127,2019-10-21_16h50.11.527,SurveyExpMetaMem,3.2.3,MacIntel,60
,,,,,,,,,,,,,,,,,,,,8,2.641000032,5,0.601999998,1,0,1200,275,1,1199,brilliant,11127,2019-10-21_16h50.11.527,SurveyExpMetaMem,3.2.3,MacIntel,60
,,,,,,,,,,,,,,,,,,,,8,1.634999752,5,0.573999882,1,0,1200,156,1,1199,gym,11127,2019-10-21_16h50.11.527,SurveyExpMetaMem,3.2.3,MacIntel,60
,,,,,,,,,,,,,,,,,,,,7,3.019000053,2,1.063999891,1,0,1200,919,1,1199,loss,11127,2019-10-21_16h50.11.527,SurveyExpMetaMem,3.2.3,MacIntel,60
,,,,,,,,,,,,,,,,,,,,3,4.345999718,7,1.003999949,1,0,1200,884,1,1199,grateful,11127,2019-10-21_16h50.11.527,SurveyExpMetaMem,3.2.3,MacIntel,60
,,,,,,,,,,,,,,,,,,,,2,2.608999968,7,1.936999798,1,0,1200,153,1,1199,teach,11127,2019-10-21_16h50.11.527,SurveyExpMetaMem,3.2.3,MacIntel,60
,,,,,,,,,,,,,,,,,,,,8,3.883999825,2,0.91899991,1,0,1200,250,1,1199,erupt,11127,2019-10-21_16h50.11.527,SurveyExpMetaMem,3.2.3,MacIntel,60
,,,,,,,,,,,,,,,,,,,,3,2.036999941,5,3.236000061,1,0,1200,712,1,1199,harvest,11127,2019-10-21_16h50.11.527,SurveyExpMetaMem,3.2.3,MacIntel,60
,,,,,,,,,,,,,,,,,,,,5,1.91899991,5,0.43599987,1,0,1200,372,1,1199,inferior,11127,2019-10-21_16h50.11.527,SurveyExpMetaMem,3.2.3,MacIntel,60
,,,,,,,,,,,,,,,,,,,,8,6.997999907,2,1.371999979,1,0,1200,340,1,1199,coward,11127,2019-10-21_16h50.11.527,SurveyExpMetaMem,3.2.3,MacIntel,60
,,,,,,,,,,,,,,,,,,,,5,1.95600009,5,0.284999847,1,0,1200,305,1,1199,frown,11127,2019-10-21_16h50.11.527,SurveyExpMetaMem,3.2.3,MacIntel,60
,,,,,,,,,,,,,,,,,,,,2,6.494999886,8,0.803999901,1,0,1200,860,1,1199,silk,11127,2019-10-21_16h50.11.527,SurveyExpMetaMem,3.2.3,MacIntel,60
,,,,,,,,,,,,,,,,,,,,8,6.367999792,2,0.694999933,1,0,1200,668,1,1199,unit,11127,2019-10-21_16h50.11.527,SurveyExpMetaMem,3.2.3,MacIntel,60
,,,,,,,,,,,,,,,,,,,,8,1.458999872,2,0.878999949,1,0,1200,1172,1,1199,overwhelmed,11127,2019-10-21_16h50.11.527,SurveyExpMetaMem,3.2.3,MacIntel,60
,,,,,,,,,,,,,,,,,,,,8,1.570999861,2,0.455999851,1,0,1200,458,1,1199,refuse,11127,2019-10-21_16h50.11.527,SurveyExpMetaMem,3.2.3,MacIntel,60
,,,,,,,,,,,,,,,,,,,,5,2.572000027,5,0.191999912,1,0,1200,694,1,1199,pecan,11127,2019-10-21_16h50.11.527,SurveyExpMetaMem,3.2.3,MacIntel,60
,,,,,,,,,,,,,,,,,,,,5,1.371999979,5,0.187999725,1,0,1200,276,1,1199,pastry,11127,2019-10-21_16h50.11.527,SurveyExpMetaMem,3.2.3,MacIntel,60
,,,,,,,,,,,,,,,,,,,,2,4.523999929,2,1.026000023,1,0,1200,524,1,1199,sigh,11127,2019-10-21_16h50.11.527,SurveyExpMetaMem,3.2.3,MacIntel,60
,,,,,,,,,,,,,,,,,,,,2,4.204999924,7,1.320999861,1,0,1200,888,1,1199,refreshment,11127,2019-10-21_16h50.11.527,SurveyExpMetaMem,3.2.3,MacIntel,60
,,,,,,,,,,,,,,,,,,,,5,2.254999876,5,0.97300005,1,0,1200,50,1,1199,bolt,11127,2019-10-21_16h50.11.527,SurveyExpMetaMem,3.2.3,MacIntel,60
,,,,,,,,,,,,,,,,,,,,6,3.039999962,5,0.40899992,1,0,1200,714,1,1199,courtyard,11127,2019-10-21_16h50.11.527,SurveyExpMetaMem,3.2.3,MacIntel,60
,,,,,,,,,,,,,,,,,,,,8,4.045000076,2,0.625,1,0,1200,1089,1,1199,ridicule,11127,2019-10-21_16h50.11.527,SurveyExpMetaMem,3.2.3,MacIntel,60
,,,,,,,,,,,,,,,,,,,,5,1.625,5,1.240999937,1,0,1200,497,1,1199,pungent,11127,2019-10-21_16h50.11.527,SurveyExpMetaMem,3.2.3,MacIntel,60
,,,,,,,,,,,,,,,,,,,,8,3.970999718,3,1.155999899,1,0,1200,23,1,1199,earn,11127,2019-10-21_16h50.11.527,SurveyExpMetaMem,3.2.3,MacIntel,60
,,,,,,,,,,,,,,,,,,,,5,1.457999945,5,0.254999876,1,0,1200,516,1,1199,smug,11127,2019-10-21_16h50.11.527,SurveyExpMetaMem,3.2.3,MacIntel,60
,,,,,,,,,,,,,,,,,,,,8,0.973999977,6,0.94299984,1,0,1200,10,1,1199,cheerleader,11127,2019-10-21_16h50.11.527,SurveyExpMetaMem,3.2.3,MacIntel,60
,,,,,,,,,,,,,,,,,,,,8,1.453999758,1,1.405999899,1,0,1200,907,1,1199,terrorist,11127,2019-10-21_16h50.11.527,SurveyExpMetaMem,3.2.3,MacIntel,60
,,,,,,,,,,,,,,,,,,,,3,9.322000027,8,2.088000059,1,0,1200,807,1,1199,person,11127,2019-10-21_16h50.11.527,SurveyExpMetaMem,3.2.3,MacIntel,60
,,,,,,,,,,,,,,,,,,,,3,4.570999861,1,1.270999908,1,0,1200,483,1,1199,condescension,11127,2019-10-21_16h50.11.527,SurveyExpMetaMem,3.2.3,MacIntel,60
,,,,,,,,,,,,,,,,,,,,5,1.423999786,5,0.261999846,1,0,1200,622,1,1199,revere,11127,2019-10-21_16h50.11.527,SurveyExpMetaMem,3.2.3,MacIntel,60
,,,,,,,,,,,,,,,,,,,,8,1.143000126,2,0.842999935,1,0,1200,923,1,1199,punish,11127,2019-10-21_16h50.11.527,SurveyExpMetaMem,3.2.3,MacIntel,60
,,,,,,,,,,,,,,,,,,,,1,2.989999771,4,2.49000001,1,0,1200,628,1,1199,chess,11127,2019-10-21_16h50.11.527,SurveyExpMetaMem,3.2.3,MacIntel,60
,,,,,,,,,,,,,,,,,,,,5,2.114000082,5,0.21999979,1,0,1200,1118,1,1199,frantic,11127,2019-10-21_16h50.11.527,SurveyExpMetaMem,3.2.3,MacIntel,60
,,,,,,,,,,,,,,,,,,,,1,3.355000019,8,0.807999849,1,0,1200,883,1,1199,sky,11127,2019-10-21_16h50.11.527,SurveyExpMetaMem,3.2.3,MacIntel,60
,,,,,,,,,,,,,,,,,,,,2,1.723999977,8,1.103999853,1,0,1200,875,1,1199,fluffy,11127,2019-10-21_16h50.11.527,SurveyExpMetaMem,3.2.3,MacIntel,60
,,,,,,,,,,,,,,,,,,,,5,2.207000017,5,0.446999788,1,0,1200,540,1,1199,derelict,11127,2019-10-21_16h50.11.527,SurveyExpMetaMem,3.2.3,MacIntel,60
,,,,,,,,,,,,,,,,,,,,8,1.592999935,2,0.973999977,1,0,1200,701,1,1199,telephone,11127,2019-10-21_16h50.11.527,SurveyExpMetaMem,3.2.3,MacIntel,60
,,,,,,,,,,,,,,,,,,,,5,2.375999928,5,0.22300005,1,0,1200,822,1,1199,clearer,11127,2019-10-21_16h50.11.527,SurveyExpMetaMem,3.2.3,MacIntel,60
,,,,,,,,,,,,,,,,,,,,8,2.221999884,5,0.889999866,1,0,1200,961,1,1199,crucify,11127,2019-10-21_16h50.11.527,SurveyExpMetaMem,3.2.3,MacIntel,60
,,,,,,,,,,,,,,,,,,,,5,1.738000154,5,0.35800004,1,0,1200,1010,1,1199,arson,11127,2019-10-21_16h50.11.527,SurveyExpMetaMem,3.2.3,MacIntel,60
,,,,,,,,,,,,,,,,,,,,8,1.326999903,2,0.572000027,1,0,1200,908,1,1199,suffer,11127,2019-10-21_16h50.11.527,SurveyExpMetaMem,3.2.3,MacIntel,60
,,,,,,,,,,,,,,,,,,,,7,25.05799985,2,3.661000013,1,0,1200,547,1,1199,cellar,11127,2019-10-21_16h50.11.527,SurveyExpMetaMem,3.2.3,MacIntel,60
,,,,,,,,,,,,,,,,,,,,8,2.345000029,2,0.64199996,1,0,1200,1194,1,1199,obsession,11127,2019-10-21_16h50.11.527,SurveyExpMetaMem,3.2.3,MacIntel,60
,,,,,,,,,,,,,,,,,,,,8,2.706999779,1,0.845000029,1,0,1200,1080,1,1199,broken,11127,2019-10-21_16h50.11.527,SurveyExpMetaMem,3.2.3,MacIntel,60
,,,,,,,,,,,,,,,,,,,,8,3.473999977,1,1.023000002,1,0,1200,740,1,1199,groceries,11127,2019-10-21_16h50.11.527,SurveyExpMetaMem,3.2.3,MacIntel,60
,,,,,,,,,,,,,,,,,,,,1,13.671,8,0.840999842,1,0,1200,891,1,1199,kind,11127,2019-10-21_16h50.11.527,SurveyExpMetaMem,3.2.3,MacIntel,60
,,,,,,,,,,,,,,,,,,,,6,2.842000008,7,1.724999905,1,0,1200,38,1,1199,cheeseburger,11127,2019-10-21_16h50.11.527,SurveyExpMetaMem,3.2.3,MacIntel,60
,,,,,,,,,,,,,,,,,,,,8,3.440000057,3,1.072000027,1,0,1200,373,1,1199,ignorance,11127,2019-10-21_16h50.11.527,SurveyExpMetaMem,3.2.3,MacIntel,60
,,,,,,,,,,,,,,,,,,,,5,7.71999979,5,0.127999783,1,0,1200,639,1,1199,outlet,11127,2019-10-21_16h50.11.527,SurveyExpMetaMem,3.2.3,MacIntel,60
,,,,,,,,,,,,,,,,,,,,5,1.427000046,5,0.148000002,1,0,1200,507,1,1199,smudge,11127,2019-10-21_16h50.11.527,SurveyExpMetaMem,3.2.3,MacIntel,60
,,,,,,,,,,,,,,,,,,,,8,1.206999779,2,0.760999918,1,0,1200,1152,1,1199,scream,11127,2019-10-21_16h50.11.527,SurveyExpMetaMem,3.2.3,MacIntel,60
,,,,,,,,,,,,,,,,,,,,8,5.321000099,8,0.506000042,1,0,1200,146,1,1199,congratulations,11127,2019-10-21_16h50.11.527,SurveyExpMetaMem,3.2.3,MacIntel,60
,,,,,,,,,,,,,,,,,,,,8,1.905999899,5,0.979999781,1,0,1200,1166,1,1199,compulsive,11127,2019-10-21_16h50.11.527,SurveyExpMetaMem,3.2.3,MacIntel,60
,,,,,,,,,,,,,,,,,,,,8,1.226999998,2,0.97300005,1,0,1200,1116,1,1199,emergency,11127,2019-10-21_16h50.11.527,SurveyExpMetaMem,3.2.3,MacIntel,60
,,,,,,,,,,,,,,,,,,,,8,1.627000093,8,0.426999807,1,0,1200,226,1,1199,prize,11127,2019-10-21_16h50.11.527,SurveyExpMetaMem,3.2.3,MacIntel,60
,,,,,,,,,,,,,,,,,,,,5,14.24499989,5,0.176999807,1,0,1200,503,1,1199,sludge,11127,2019-10-21_16h50.11.527,SurveyExpMetaMem,3.2.3,MacIntel,60
,,,,,,,,,,,,,,,,,,,,8,1.922999859,2,0.758999825,1,0,1200,1106,1,1199,pushy,11127,2019-10-21_16h50.11.527,SurveyExpMetaMem,3.2.3,MacIntel,60
,,,,,,,,,,,,,,,,,,,,8,7.904999971,2,0.720999956,1,0,1200,345,1,1199,unfortunate,11127,2019-10-21_16h50.11.527,SurveyExpMetaMem,3.2.3,MacIntel,60
,,,,,,,,,,,,,,,,,,,,5,2.691999912,2,2.657999754,1,0,1200,488,1,1199,rusty,11127,2019-10-21_16h50.11.527,SurveyExpMetaMem,3.2.3,MacIntel,60
,,,,,,,,,,,,,,,,,,,,8,3.238999844,2,0.609999895,1,0,1200,423,1,1199,stain,11127,2019-10-21_16h50.11.527,SurveyExpMetaMem,3.2.3,MacIntel,60
,,,,,,,,,,,,,,,,,,,,7,2.037999868,8,1.708999872,1,0,1200,232,1,1199,prosper,11127,2019-10-21_16h50.11.527,SurveyExpMetaMem,3.2.3,MacIntel,60
,,,,,,,,,,,,,,,,,,,,8,3.894000053,2,1.090000153,1,0,1200,251,1,1199,meteor,11127,2019-10-21_16h50.11.527,SurveyExpMetaMem,3.2.3,MacIntel,60
,,,,,,,,,,,,,,,,,,,,3,7.606999874,3,0.970999956,1,0,1200,1183,1,1199,emotional,11127,2019-10-21_16h50.11.527,SurveyExpMetaMem,3.2.3,MacIntel,60
,,,,,,,,,,,,,,,,,,,,7,45.75399995,2,0.346999884,1,0,1200,533,1,1199,busy,11127,2019-10-21_16h50.11.527,SurveyExpMetaMem,3.2.3,MacIntel,60
,,,,,,,,,,,,,,,,,,,,1,1.986999989,2,1.0849998,1,0,1200,409,1,1199,old,11127,2019-10-21_16h50.11.527,SurveyExpMetaMem,3.2.3,MacIntel,60
,,,,,,,,,,,,,,,,,,,,8,1.518999815,2,0.434000015,1,0,1200,972,1,1199,homicide,11127,2019-10-21_16h50.11.527,SurveyExpMetaMem,3.2.3,MacIntel,60
,,,,,,,,,,,,,,,,,,,,8,3.346999884,5,0.402999878,1,0,1200,713,1,1199,mobile,11127,2019-10-21_16h50.11.527,SurveyExpMetaMem,3.2.3,MacIntel,60
,,,,,,,,,,,,,,,,,,,,1,2.026000023,1,2.049999952,1,0,1200,773,1,1199,rational,11127,2019-10-21_16h50.11.527,SurveyExpMetaMem,3.2.3,MacIntel,60
,,,,,,,,,,,,,,,,,,,,9,3.792000055,1,0.720000029,1,0,1200,330,1,1199,sunburn,11127,2019-10-21_16h50.11.527,SurveyExpMetaMem,3.2.3,MacIntel,60
,,,,,,,,,,,,,,,,,,,,2,4.428999901,2,1.235999823,1,0,1200,354,1,1199,cowardice,11127,2019-10-21_16h50.11.527,SurveyExpMetaMem,3.2.3,MacIntel,60
,,,,,,,,,,,,,,,,,,,,3,3.388999939,8,3.15199995,1,0,1200,746,1,1199,proper,11127,2019-10-21_16h50.11.527,SurveyExpMetaMem,3.2.3,MacIntel,60
,,,,,,,,,,,,,,,,,,,,8,2.134999752,1,0.605999947,1,0,1200,1083,1,1199,delayed,11127,2019-10-21_16h50.11.527,SurveyExpMetaMem,3.2.3,MacIntel,60
,,,,,,,,,,,,,,,,,,,,5,6.13499999,5,0.645999908,1,0,1200,62,1,1199,interested,11127,2019-10-21_16h50.11.527,SurveyExpMetaMem,3.2.3,MacIntel,60
,,,,,,,,,,,,,,,,,,,,5,1.186999798,5,0.245000124,1,0,1200,315,1,1199,zit,11127,2019-10-21_16h50.11.527,SurveyExpMetaMem,3.2.3,MacIntel,60
,,,,,,,,,,,,,,,,,,,,8,2.086999893,3,0.953000069,1,0,1200,431,1,1199,itch,11127,2019-10-21_16h50.11.527,SurveyExpMetaMem,3.2.3,MacIntel,60
,,,,,,,,,,,,,,,,,,,,8,24.68099976,7,1.22300005,1,0,1200,248,1,1199,win,11127,2019-10-21_16h50.11.527,SurveyExpMetaMem,3.2.3,MacIntel,60
,,,,,,,,,,,,,,,,,,,,7,1.833999872,2,0.987999916,1,0,1200,137,1,1199,money,11127,2019-10-21_16h50.11.527,SurveyExpMetaMem,3.2.3,MacIntel,60
,,,,,,,,,,,,,,,,,,,,2,3.492999792,5,1.779999971,1,0,1200,145,1,1199,me,11127,2019-10-21_16h50.11.527,SurveyExpMetaMem,3.2.3,MacIntel,60
,,,,,,,,,,,,,,,,,,,,7,2.921999931,5,0.840999842,1,0,1200,203,1,1199,seal,11127,2019-10-21_16h50.11.527,SurveyExpMetaMem,3.2.3,MacIntel,60
,,,,,,,,,,,,,,,,,,,,7,3.47699976,2,0.644999981,1,0,1200,557,1,1199,class,11127,2019-10-21_16h50.11.527,SurveyExpMetaMem,3.2.3,MacIntel,60
,,,,,,,,,,,,,,,,,,,,7,2.460999727,3,0.421999931,1,0,1200,1011,1,1199,robber,11127,2019-10-21_16h50.11.527,SurveyExpMetaMem,3.2.3,MacIntel,60
,,,,,,,,,,,,,,,,,,,,2,1.993999958,5,0.822999954,1,0,1200,629,1,1199,barn,11127,2019-10-21_16h50.11.527,SurveyExpMetaMem,3.2.3,MacIntel,60
,,,,,,,,,,,,,,,,,,,,7,11.65999985,2,0.84100008,1,0,1200,1021,1,1199,attack,11127,2019-10-21_16h50.11.527,SurveyExpMetaMem,3.2.3,MacIntel,60
,,,,,,,,,,,,,,,,,,,,5,1.419999838,5,0.240999937,1,0,1200,444,1,1199,mold,11127,2019-10-21_16h50.11.527,SurveyExpMetaMem,3.2.3,MacIntel,60
,,,,,,,,,,,,,,,,,,,,7,0.885999918,3,0.224999905,1,0,1200,873,1,1199,useful,11127,2019-10-21_16h50.11.527,SurveyExpMetaMem,3.2.3,MacIntel,60
,,,,,,,,,,,,,,,,,,,,7,5.710999966,2,0.338999987,1,0,1200,937,1,1199,prison,11127,2019-10-21_16h50.11.527,SurveyExpMetaMem,3.2.3,MacIntel,60
,,,,,,,,,,,,,,,,,,,,5,1.687999964,5,0.171999931,1,0,1200,1006,1,1199,rash,11127,2019-10-21_16h50.11.527,SurveyExpMetaMem,3.2.3,MacIntel,60
,,,,,,,,,,,,,,,,,,,,2,1.592000008,6,1.690999985,1,0,1200,27,1,1199,gourmet,11127,2019-10-21_16h50.11.527,SurveyExpMetaMem,3.2.3,MacIntel,60
,,,,,,,,,,,,,,,,,,,,8,2.838999987,7,0.97300005,1,0,1200,1062,1,1199,shoplifter,11127,2019-10-21_16h50.11.527,SurveyExpMetaMem,3.2.3,MacIntel,60
,,,,,,,,,,,,,,,,,,,,8,1.826999903,2,1.224999905,1,0,1200,1039,1,1199,stalk,11127,2019-10-21_16h50.11.527,SurveyExpMetaMem,3.2.3,MacIntel,60
,,,,,,,,,,,,,,,,,,,,2,9.122999907,5,1.325999975,1,0,1200,707,1,1199,adapt,11127,2019-10-21_16h50.11.527,SurveyExpMetaMem,3.2.3,MacIntel,60
,,,,,,,,,,,,,,,,,,,,2,1.671000004,2,1.522999763,1,0,1200,837,1,1199,responsible,11127,2019-10-21_16h50.11.527,SurveyExpMetaMem,3.2.3,MacIntel,60
,,,,,,,,,,,,,,,,,,,,8,2.871999979,2,0.779000044,1,0,1200,336,1,1199,wasteful,11127,2019-10-21_16h50.11.527,SurveyExpMetaMem,3.2.3,MacIntel,60
,,,,,,,,,,,,,,,,,,,,8,1.303999901,3,0.703999996,1,0,1200,949,1,1199,thief,11127,2019-10-21_16h50.11.527,SurveyExpMetaMem,3.2.3,MacIntel,60
,,,,,,,,,,,,,,,,,,,,8,3.671999931,2,1.276000023,1,0,1200,1134,1,1199,obsessed,11127,2019-10-21_16h50.11.527,SurveyExpMetaMem,3.2.3,MacIntel,60
,,,,,,,,,,,,,,,,,,,,8,1.775000095,5,0.69299984,1,0,1200,258,1,1199,children,11127,2019-10-21_16h50.11.527,SurveyExpMetaMem,3.2.3,MacIntel,60
,,,,,,,,,,,,,,,,,,,,2,2.189999819,8,0.930999756,1,0,1200,196,1,1199,smile,11127,2019-10-21_16h50.11.527,SurveyExpMetaMem,3.2.3,MacIntel,60
,,,,,,,,,,,,,,,,,,,,5,6.438999891,5,1.355000019,1,0,1200,1140,1,1199,blood,11127,2019-10-21_16h50.11.527,SurveyExpMetaMem,3.2.3,MacIntel,60
,,,,,,,,,,,,,,,,,,,,7,3.506999969,3,1.225999832,1,0,1200,946,1,1199,amputate,11127,2019-10-21_16h50.11.527,SurveyExpMetaMem,3.2.3,MacIntel,60
,,,,,,,,,,,,,,,,,,,,2,1.806999922,8,1.605999947,1,0,1200,899,1,1199,relax,11127,2019-10-21_16h50.11.527,SurveyExpMetaMem,3.2.3,MacIntel,60
,,,,,,,,,,,,,,,,,,,,5,2.653999805,1,1.880999804,1,0,1200,387,1,1199,tax,11127,2019-10-21_16h50.11.527,SurveyExpMetaMem,3.2.3,MacIntel,60
,,,,,,,,,,,,,,,,,,,,7,4.159999847,7,1.711999893,1,0,1200,217,1,1199,bravery,11127,2019-10-21_16h50.11.527,SurveyExpMetaMem,3.2.3,MacIntel,60
,,,,,,,,,,,,,,,,,,,,7,1.253999949,5,0.495000124,1,0,1200,299,1,1199,champion,11127,2019-10-21_16h50.11.527,SurveyExpMetaMem,3.2.3,MacIntel,60
,,,,,,,,,,,,,,,,,,,,1,1.573999882,7,1.422999859,1,0,1200,817,1,1199,countryside,11127,2019-10-21_16h50.11.527,SurveyExpMetaMem,3.2.3,MacIntel,60
,,,,,,,,,,,,,,,,,,,,7,2.591999769,3,0.688999891,1,0,1200,430,1,1199,cancel,11127,2019-10-21_16h50.11.527,SurveyExpMetaMem,3.2.3,MacIntel,60
,,,,,,,,,,,,,,,,,,,,5,14.54999995,5,0.115999937,1,0,1200,280,1,1199,cookout,11127,2019-10-21_16h50.11.527,SurveyExpMetaMem,3.2.3,MacIntel,60
,,,,,,,,,,,,,,,,,,,,2,9.090999842,7,0.892999887,1,0,1200,711,1,1199,sympathetic,11127,2019-10-21_16h50.11.527,SurveyExpMetaMem,3.2.3,MacIntel,60
,,,,,,,,,,,,,,,,,,,,8,1.500999928,2,1.743999958,1,0,1200,1176,1,1199,vampire,11127,2019-10-21_16h50.11.527,SurveyExpMetaMem,3.2.3,MacIntel,60
,,,,,,,,,,,,,,,,,,,,1,12.16299987,8,1.065999985,1,0,1200,561,1,1199,plain,11127,2019-10-21_16h50.11.527,SurveyExpMetaMem,3.2.3,MacIntel,60
,,,,,,,,,,,,,,,,,,,,5,1.786999702,5,0.18900013,1,0,1200,230,1,1199,eager,11127,2019-10-21_16h50.11.527,SurveyExpMetaMem,3.2.3,MacIntel,60
,,,,,,,,,,,,,,,,,,,,8,1.717000008,2,0.453999996,1,0,1200,1018,1,1199,distress,11127,2019-10-21_16h50.11.527,SurveyExpMetaMem,3.2.3,MacIntel,60
,,,,,,,,,,,,,,,,,,,,1,0.105999947,2,2.736000061,1,0,1200,313,1,1199,rotten,11127,2019-10-21_16h50.11.527,SurveyExpMetaMem,3.2.3,MacIntel,60
,,,,,,,,,,,,,,,,,,,,8,3.496999741,5,1.236999989,1,0,1200,0,1,1199,dragon,11127,2019-10-21_16h50.11.527,SurveyExpMetaMem,3.2.3,MacIntel,60
,,,,,,,,,,,,,,,,,,,,5,1.231999874,5,0.201999903,1,0,1200,220,1,1199,reef,11127,2019-10-21_16h50.11.527,SurveyExpMetaMem,3.2.3,MacIntel,60
,,,,,,,,,,,,,,,,,,,,7,2.861999989,3,1.856999874,1,0,1200,587,1,1199,dissolve,11127,2019-10-21_16h50.11.527,SurveyExpMetaMem,3.2.3,MacIntel,60
,,,,,,,,,,,,,,,,,,,,5,2.627999783,5,0.152999878,1,0,1200,535,1,1199,ramble,11127,2019-10-21_16h50.11.527,SurveyExpMetaMem,3.2.3,MacIntel,60
,,,,,,,,,,,,,,,,,,,,2,2.66899991,8,0.95299983,1,0,1200,3,1,1199,nudist,11127,2019-10-21_16h50.11.527,SurveyExpMetaMem,3.2.3,MacIntel,60
,,,,,,,,,,,,,,,,,,,,8,3.572999954,2,1.035999775,1,0,1200,1042,1,1199,brutal,11127,2019-10-21_16h50.11.527,SurveyExpMetaMem,3.2.3,MacIntel,60
,,,,,,,,,,,,,,,,,,,,5,1.467999935,5,0.188999891,1,0,1200,934,1,1199,sob,11127,2019-10-21_16h50.11.527,SurveyExpMetaMem,3.2.3,MacIntel,60
,,,,,,,,,,,,,,,,,,,,8,11.75899982,2,1.135999918,1,0,1200,1126,1,1199,offensive,11127,2019-10-21_16h50.11.527,SurveyExpMetaMem,3.2.3,MacIntel,60
,,,,,,,,,,,,,,,,,,,,1,4.450999975,5,2.100999832,1,0,1200,527,1,1199,passive,11127,2019-10-21_16h50.11.527,SurveyExpMetaMem,3.2.3,MacIntel,60
,,,,,,,,,,,,,,,,,,,,2,1.734999895,5,1.887999773,1,0,1200,735,1,1199,tea,11127,2019-10-21_16h50.11.527,SurveyExpMetaMem,3.2.3,MacIntel,60
,,,,,,,,,,,,,,,,,,,,2,5.867999792,8,1.484999895,1,0,1200,882,1,1199,gentle,11127,2019-10-21_16h50.11.527,SurveyExpMetaMem,3.2.3,MacIntel,60
,,,,,,,,,,,,,,,,,,,,8,1.234999895,2,1.744999886,1,0,1200,900,1,1199,suicide,11127,2019-10-21_16h50.11.527,SurveyExpMetaMem,3.2.3,MacIntel,60
,,,,,,,,,,,,,,,,,,,,7,1.635999918,7,1.937999725,1,0,1200,604,1,1199,lamp,11127,2019-10-21_16h50.11.527,SurveyExpMetaMem,3.2.3,MacIntel,60
,,,,,,,,,,,,,,,,,,,,7,1.996000051,7,0.730000019,1,0,1200,134,1,1199,dollar,11127,2019-10-21_16h50.11.527,SurveyExpMetaMem,3.2.3,MacIntel,60
,,,,,,,,,,,,,,,,,,,,5,1.967999935,5,0.252000093,1,0,1200,128,1,1199,supper,11127,2019-10-21_16h50.11.527,SurveyExpMetaMem,3.2.3,MacIntel,60
,,,,,,,,,,,,,,,,,,,,5,1.216999769,5,0.228999853,1,0,1200,410,1,1199,tarnish,11127,2019-10-21_16h50.11.527,SurveyExpMetaMem,3.2.3,MacIntel,60
,,,,,,,,,,,,,,,,,,,,8,1.118999958,3,0.767999887,1,0,1200,904,1,1199,murderer,11127,2019-10-21_16h50.11.527,SurveyExpMetaMem,3.2.3,MacIntel,60
,,,,,,,,,,,,,,,,,,,,7,1.456999779,3,0.592000008,1,0,1200,1060,1,1199,dent,11127,2019-10-21_16h50.11.527,SurveyExpMetaMem,3.2.3,MacIntel,60
,,,,,,,,,,,,,,,,,,,,8,28.69599986,7,1.090999842,1,0,1200,855,1,1199,girl,11127,2019-10-21_16h50.11.527,SurveyExpMetaMem,3.2.3,MacIntel,60
,,,,,,,,,,,,,,,,,,,,8,1.370000124,2,0.39199996,1,0,1200,950,1,1199,murder,11127,2019-10-21_16h50.11.527,SurveyExpMetaMem,3.2.3,MacIntel,60
,,,,,,,,,,,,,,,,,,,,8,1.652999878,2,0.410000086,1,0,1200,487,1,1199,junk,11127,2019-10-21_16h50.11.527,SurveyExpMetaMem,3.2.3,MacIntel,60
,,,,,,,,,,,,,,,,,,,,7,1.607999802,3,1.164000034,1,0,1200,1067,1,1199,wicked,11127,2019-10-21_16h50.11.527,SurveyExpMetaMem,3.2.3,MacIntel,60
,,,,,,,,,,,,,,,,,,,,7,1.396000147,3,0.790999889,1,0,1200,1115,1,1199,invade,11127,2019-10-21_16h50.11.527,SurveyExpMetaMem,3.2.3,MacIntel,60
,,,,,,,,,,,,,,,,,,,,6,2.253000021,2,1.012000084,1,0,1200,348,1,1199,impotent,11127,2019-10-21_16h50.11.527,SurveyExpMetaMem,3.2.3,MacIntel,60
,,,,,,,,,,,,,,,,,,,,1,3.039000034,2,0.713000059,1,0,1200,876,1,1199,politeness,11127,2019-10-21_16h50.11.527,SurveyExpMetaMem,3.2.3,MacIntel,60
,,,,,,,,,,,,,,,,,,,,8,1.821999788,8,1.009000063,1,0,1200,660,1,1199,rock,11127,2019-10-21_16h50.11.527,SurveyExpMetaMem,3.2.3,MacIntel,60
,,,,,,,,,,,,,,,,,,,,1,3.294000149,1,1.072999954,1,0,1200,302,1,1199,loneliness,11127,2019-10-21_16h50.11.527,SurveyExpMetaMem,3.2.3,MacIntel,60
,,,,,,,,,,,,,,,,,,,,5,1.487999916,5,0.406999826,1,0,1200,66,1,1199,zest,11127,2019-10-21_16h50.11.527,SurveyExpMetaMem,3.2.3,MacIntel,60
,,,,,,,,,,,,,,,,,,,,8,2.338000059,2,1.373000145,1,0,1200,1032,1,1199,exam,11127,2019-10-21_16h50.11.527,SurveyExpMetaMem,3.2.3,MacIntel,60
,,,,,,,,,,,,,,,,,,,,7,3.943000078,2,0.860999823,1,0,1200,399,1,1199,withdrawn,11127,2019-10-21_16h50.11.527,SurveyExpMetaMem,3.2.3,MacIntel,60
,,,,,,,,,,,,,,,,,,,,7,1.756999731,2,1.57799983,1,0,1200,968,1,1199,insult,11127,2019-10-21_16h50.11.527,SurveyExpMetaMem,3.2.3,MacIntel,60
,,,,,,,,,,,,,,,,,,,,5,2.176999807,2,1.343999863,1,0,1200,323,1,1199,ungrateful,11127,2019-10-21_16h50.11.527,SurveyExpMetaMem,3.2.3,MacIntel,60
,,,,,,,,,,,,,,,,,,,,5,2.588999748,8,0.805999994,1,0,1200,284,1,1199,delight,11127,2019-10-21_16h50.11.527,SurveyExpMetaMem,3.2.3,MacIntel,60
,,,,,,,,,,,,,,,,,,,,8,2.057999849,7,0.92599988,1,0,1200,70,1,1199,cartoon,11127,2019-10-21_16h50.11.527,SurveyExpMetaMem,3.2.3,MacIntel,60
,,,,,,,,,,,,,,,,,,,,5,3.885999918,5,0.771999836,1,0,1200,162,1,1199,royalty,11127,2019-10-21_16h50.11.527,SurveyExpMetaMem,3.2.3,MacIntel,60
,,,,,,,,,,,,,,,,,,,,5,3.204999924,5,0.279000044,1,0,1200,452,1,1199,scapegoat,11127,2019-10-21_16h50.11.527,SurveyExpMetaMem,3.2.3,MacIntel,60
,,,,,,,,,,,,,,,,,,,,7,1.436999798,8,0.595999956,1,0,1200,195,1,1199,laughing,11127,2019-10-21_16h50.11.527,SurveyExpMetaMem,3.2.3,MacIntel,60
,,,,,,,,,,,,,,,,,,,,8,1.877999783,5,3.09100008,1,0,1200,531,1,1199,omit,11127,2019-10-21_16h50.11.527,SurveyExpMetaMem,3.2.3,MacIntel,60
,,,,,,,,,,,,,,,,,,,,5,3.258000135,5,0.214999914,1,0,1200,769,1,1199,relate,11127,2019-10-21_16h50.11.527,SurveyExpMetaMem,3.2.3,MacIntel,60
,,,,,,,,,,,,,,,,,,,,5,1.43599987,2,1.193999767,1,0,1200,438,1,1199,dull,11127,2019-10-21_16h50.11.527,SurveyExpMetaMem,3.2.3,MacIntel,60
,,,,,,,,,,,,,,,,,,,,7,3.040999889,8,1.157999992,1,0,1200,67,1,1199,penthouse,11127,2019-10-21_16h50.11.527,SurveyExpMetaMem,3.2.3,MacIntel,60
,,,,,,,,,,,,,,,,,,,,7,1.961999893,7,1.776000023,1,0,1200,486,1,1199,fool,11127,2019-10-21_16h50.11.527,SurveyExpMetaMem,3.2.3,MacIntel,60
,,,,,,,,,,,,,,,,,,,,8,2.309999943,2,1.008999825,1,0,1200,595,1,1199,vacuum,11127,2019-10-21_16h50.11.527,SurveyExpMetaMem,3.2.3,MacIntel,60
,,,,,,,,,,,,,,,,,,,,2,2.755000114,5,1.638999939,1,0,1200,745,1,1199,inform,11127,2019-10-21_16h50.11.527,SurveyExpMetaMem,3.2.3,MacIntel,60
,,,,,,,,,,,,,,,,,,,,7,2.220999956,2,0.990999937,1,0,1200,758,1,1199,camera,11127,2019-10-21_16h50.11.527,SurveyExpMetaMem,3.2.3,MacIntel,60
,,,,,,,,,,,,,,,,,,,,3,36.58699989,5,1.406999826,1,0,1200,799,1,1199,precise,11127,2019-10-21_16h50.11.527,SurveyExpMetaMem,3.2.3,MacIntel,60
,,,,,,,,,,,,,,,,,,,,3,1.794999838,3,0.976000071,1,0,1200,278,1,1199,king,11127,2019-10-21_16h50.11.527,SurveyExpMetaMem,3.2.3,MacIntel,60
,,,,,,,,,,,,,,,,,,,,5,1.490999937,5,0.282999992,1,0,1200,812,1,1199,harp,11127,2019-10-21_16h50.11.527,SurveyExpMetaMem,3.2.3,MacIntel,60
,,,,,,,,,,,,,,,,,,,,1,1.621999741,1,0.487999916,1,0,1200,963,1,1199,dreadful,11127,2019-10-21_16h50.11.527,SurveyExpMetaMem,3.2.3,MacIntel,60
,,,,,,,,,,,,,,,,,,,,5,2.322999954,5,0.388999939,1,0,1200,358,1,1199,waste,11127,2019-10-21_16h50.11.527,SurveyExpMetaMem,3.2.3,MacIntel,60
,,,,,,,,,,,,,,,,,,,,2,2.19299984,7,0.939999819,1,0,1200,795,1,1199,soup,11127,2019-10-21_16h50.11.527,SurveyExpMetaMem,3.2.3,MacIntel,60
,,,,,,,,,,,,,,,,,,,,1,2.792000055,7,0.622999907,1,0,1200,544,1,1199,snail,11127,2019-10-21_16h50.11.527,SurveyExpMetaMem,3.2.3,MacIntel,60
,,,,,,,,,,,,,,,,,,,,3,2.970999956,7,1.620999813,1,0,1200,840,1,1199,cuisine,11127,2019-10-21_16h50.11.527,SurveyExpMetaMem,3.2.3,MacIntel,60
,,,,,,,,,,,,,,,,,,,,7,2.253999949,7,0.605999947,1,0,1200,133,1,1199,prosperous,11127,2019-10-21_16h50.11.527,SurveyExpMetaMem,3.2.3,MacIntel,60
,,,,,,,,,,,,,,,,,,,,8,1.720999956,8,0.855999947,1,0,1200,739,1,1199,seagull,11127,2019-10-21_16h50.11.527,SurveyExpMetaMem,3.2.3,MacIntel,60
,,,,,,,,,,,,,,,,,,,,8,1.789999962,2,0.539999962,1,0,1200,1009,1,1199,frightened,11127,2019-10-21_16h50.11.527,SurveyExpMetaMem,3.2.3,MacIntel,60
,,,,,,,,,,,,,,,,,,,,8,1.672999859,2,0.56099987,1,0,1200,974,1,1199,roach,11127,2019-10-21_16h50.11.527,SurveyExpMetaMem,3.2.3,MacIntel,60
,,,,,,,,,,,,,,,,,,,,8,1.778999805,8,0.836999893,1,0,1200,211,1,1199,surfer,11127,2019-10-21_16h50.11.527,SurveyExpMetaMem,3.2.3,MacIntel,60
,,,,,,,,,,,,,,,,,,,,5,2.387999773,5,0.273999929,1,0,1200,519,1,1199,listless,11127,2019-10-21_16h50.11.527,SurveyExpMetaMem,3.2.3,MacIntel,60
,,,,,,,,,,,,,,,,,,,,1,2.872999907,1,0.754999876,1,0,1200,465,1,1199,void,11127,2019-10-21_16h50.11.527,SurveyExpMetaMem,3.2.3,MacIntel,60
,,,,,,,,,,,,,,,,,,,,2,2.43900013,2,1.339999914,1,0,1200,794,1,1199,pray,11127,2019-10-21_16h50.11.527,SurveyExpMetaMem,3.2.3,MacIntel,60
,,,,,,,,,,,,,,,,,,,,8,1.792999744,2,0.488999844,1,0,1200,1014,1,1199,destroy,11127,2019-10-21_16h50.11.527,SurveyExpMetaMem,3.2.3,MacIntel,60
,,,,,,,,,,,,,,,,,,,,2,3.822999954,7,1.146999836,1,0,1200,792,1,1199,moral,11127,2019-10-21_16h50.11.527,SurveyExpMetaMem,3.2.3,MacIntel,60
,,,,,,,,,,,,,,,,,,,,7,2.954999924,7,1.263999939,1,0,1200,21,1,1199,game,11127,2019-10-21_16h50.11.527,SurveyExpMetaMem,3.2.3,MacIntel,60
,,,,,,,,,,,,,,,,,,,,1,2.290999889,7,1.371999979,1,0,1200,859,1,1199,serene,11127,2019-10-21_16h50.11.527,SurveyExpMetaMem,3.2.3,MacIntel,60
,,,,,,,,,,,,,,,,,,,,7,1.603999853,7,0.996000051,1,0,1200,417,1,1199,dummy,11127,2019-10-21_16h50.11.527,SurveyExpMetaMem,3.2.3,MacIntel,60
,,,,,,,,,,,,,,,,,,,,6,4.610999823,5,1.122999907,1,0,1200,1195,1,1199,speech,11127,2019-10-21_16h50.11.527,SurveyExpMetaMem,3.2.3,MacIntel,60
,,,,,,,,,,,,,,,,,,,,6,1.710999966,3,0.822999954,1,0,1200,1149,1,1199,fight,11127,2019-10-21_16h50.11.527,SurveyExpMetaMem,3.2.3,MacIntel,60
,,,,,,,,,,,,,,,,,,,,7,2.113999844,7,2.121999979,1,0,1200,621,1,1199,chew,11127,2019-10-21_16h50.11.527,SurveyExpMetaMem,3.2.3,MacIntel,60
,,,,,,,,,,,,,,,,,,,,5,10.97299981,5,0.178999901,1,0,1200,613,1,1199,cup,11127,2019-10-21_16h50.11.527,SurveyExpMetaMem,3.2.3,MacIntel,60
,,,,,,,,,,,,,,,,,,,,8,1.455999851,7,1.040999889,1,0,1200,235,1,1199,cheery,11127,2019-10-21_16h50.11.527,SurveyExpMetaMem,3.2.3,MacIntel,60
,,,,,,,,,,,,,,,,,,,,8,1.59100008,2,0.728999853,1,0,1200,967,1,1199,horrible,11127,2019-10-21_16h50.11.527,SurveyExpMetaMem,3.2.3,MacIntel,60
,,,,,,,,,,,,,,,,,,,,2,2.235999823,2,1.739999771,1,0,1200,575,1,1199,paragraph,11127,2019-10-21_16h50.11.527,SurveyExpMetaMem,3.2.3,MacIntel,60
,,,,,,,,,,,,,,,,,,,,5,2.327000141,5,0.309000015,1,0,1200,1121,1,1199,ban,11127,2019-10-21_16h50.11.527,SurveyExpMetaMem,3.2.3,MacIntel,60
,,,,,,,,,,,,,,,,,,,,8,1.608999968,8,0.711999893,1,0,1200,264,1,1199,thong,11127,2019-10-21_16h50.11.527,SurveyExpMetaMem,3.2.3,MacIntel,60
,,,,,,,,,,,,,,,,,,,,2,4.878000021,2,0.49000001,1,0,1200,985,1,1199,pollution,11127,2019-10-21_16h50.11.527,SurveyExpMetaMem,3.2.3,MacIntel,60
,,,,,,,,,,,,,,,,,,,,2,1.628999949,5,1.657999992,1,0,1200,897,1,1199,peaceful,11127,2019-10-21_16h50.11.527,SurveyExpMetaMem,3.2.3,MacIntel,60
,,,,,,,,,,,,,,,,,,,,8,4.023000002,2,0.721999884,1,0,1200,320,1,1199,deformed,11127,2019-10-21_16h50.11.527,SurveyExpMetaMem,3.2.3,MacIntel,60
,,,,,,,,,,,,,,,,,,,,3,1.861000061,2,0.707999945,1,0,1200,122,1,1199,prince,11127,2019-10-21_16h50.11.527,SurveyExpMetaMem,3.2.3,MacIntel,60
,,,,,,,,,,,,,,,,,,,,8,12.39299989,2,0.541999817,1,0,1200,377,1,1199,complain,11127,2019-10-21_16h50.11.527,SurveyExpMetaMem,3.2.3,MacIntel,60
,,,,,,,,,,,,,,,,,,,,2,3.990999937,1,1.427000046,1,0,1200,4,1,1199,night,11127,2019-10-21_16h50.11.527,SurveyExpMetaMem,3.2.3,MacIntel,60
,,,,,,,,,,,,,,,,,,,,5,2.444000006,5,0.243000031,1,0,1200,619,1,1199,pulpit,11127,2019-10-21_16h50.11.527,SurveyExpMetaMem,3.2.3,MacIntel,60
,,,,,,,,,,,,,,,,,,,,8,1.303999901,5,0.960000038,1,0,1200,225,1,1199,strong,11127,2019-10-21_16h50.11.527,SurveyExpMetaMem,3.2.3,MacIntel,60
,,,,,,,,,,,,,,,,,,,,5,1.224999905,5,0.18900013,1,0,1200,401,1,1199,feeble,11127,2019-10-21_16h50.11.527,SurveyExpMetaMem,3.2.3,MacIntel,60
,,,,,,,,,,,,,,,,,,,,5,1.303999901,5,0.208999872,1,0,1200,549,1,1199,beet,11127,2019-10-21_16h50.11.527,SurveyExpMetaMem,3.2.3,MacIntel,60
,,,,,,,,,,,,,,,,,,,,1,2.887999773,2,1.055000067,1,0,1200,565,1,1199,frozen,11127,2019-10-21_16h50.11.527,SurveyExpMetaMem,3.2.3,MacIntel,60
,,,,,,,,,,,,,,,,,,,,8,4.143999815,7,0.838999987,1,0,1200,271,1,1199,applaud,11127,2019-10-21_16h50.11.527,SurveyExpMetaMem,3.2.3,MacIntel,60
,,,,,,,,,,,,,,,,,,,,5,2.203999996,2,0.89199996,1,0,1200,325,1,1199,disability,11127,2019-10-21_16h50.11.527,SurveyExpMetaMem,3.2.3,MacIntel,60
,,,,,,,,,,,,,,,,,,,,7,4.406999826,3,0.829999924,1,0,1200,529,1,1199,small,11127,2019-10-21_16h50.11.527,SurveyExpMetaMem,3.2.3,MacIntel,60
,,,,,,,,,,,,,,,,,,,,8,2.082000017,7,0.521999836,1,0,1200,52,1,1199,dare,11127,2019-10-21_16h50.11.527,SurveyExpMetaMem,3.2.3,MacIntel,60
,,,,,,,,,,,,,,,,,,,,5,2.010999918,5,0.183000088,1,0,1200,1181,1,1199,blade,11127,2019-10-21_16h50.11.527,SurveyExpMetaMem,3.2.3,MacIntel,60
,,,,,,,,,,,,,,,,,,,,8,1.54399991,7,0.951999903,1,0,1200,105,1,1199,curious,11127,2019-10-21_16h50.11.527,SurveyExpMetaMem,3.2.3,MacIntel,60
,,,,,,,,,,,,,,,,,,,,9,1.215999842,7,1.958999872,1,0,1200,194,1,1199,celebration,11127,2019-10-21_16h50.11.527,SurveyExpMetaMem,3.2.3,MacIntel,60
,,,,,,,,,,,,,,,,,,,,7,8.570999861,5,0.421999931,1,0,1200,144,1,1199,aroused,11127,2019-10-21_16h50.11.527,SurveyExpMetaMem,3.2.3,MacIntel,60
,,,,,,,,,,,,,,,,,,,,7,1.0849998,2,0.81799984,1,0,1200,1033,1,1199,horror,11127,2019-10-21_16h50.11.527,SurveyExpMetaMem,3.2.3,MacIntel,60
,,,,,,,,,,,,,,,,,,,,8,1.697000027,8,1.714999914,1,0,1200,581,1,1199,dork,11127,2019-10-21_16h50.11.527,SurveyExpMetaMem,3.2.3,MacIntel,60
,,,,,,,,,,,,,,,,,,,,5,49.98599982,5,0.133000135,1,0,1200,1129,1,1199,spanking,11127,2019-10-21_16h50.11.527,SurveyExpMetaMem,3.2.3,MacIntel,60
,,,,,,,,,,,,,,,,,,,,7,16.68799996,7,0.667999983,1,0,1200,846,1,1199,able,11127,2019-10-21_16h50.11.527,SurveyExpMetaMem,3.2.3,MacIntel,60
,,,,,,,,,,,,,,,,,,,,5,2.151000023,5,0.286000013,1,0,1200,374,1,1199,sluggish,11127,2019-10-21_16h50.11.527,SurveyExpMetaMem,3.2.3,MacIntel,60
,,,,,,,,,,,,,,,,,,,,1,1.767999887,2,1.139999866,1,0,1200,408,1,1199,bore,11127,2019-10-21_16h50.11.527,SurveyExpMetaMem,3.2.3,MacIntel,60
,,,,,,,,,,,,,,,,,,,,8,2.316999912,7,0.835999966,1,0,1200,157,1,1199,reveal,11127,2019-10-21_16h50.11.527,SurveyExpMetaMem,3.2.3,MacIntel,60
,,,,,,,,,,,,,,,,,,,,8,2.588000059,7,1.68599987,1,0,1200,193,1,1199,party,11127,2019-10-21_16h50.11.527,SurveyExpMetaMem,3.2.3,MacIntel,60
,,,,,,,,,,,,,,,,,,,,5,3.72300005,5,0.170000076,1,0,1200,585,1,1199,tatter,11127,2019-10-21_16h50.11.527,SurveyExpMetaMem,3.2.3,MacIntel,60
,,,,,,,,,,,,,,,,,,,,8,6.184999943,2,1.473999977,1,0,1200,723,1,1199,cinnamon,11127,2019-10-21_16h50.11.527,SurveyExpMetaMem,3.2.3,MacIntel,60
,,,,,,,,,,,,,,,,,,,,6,2.241999865,4,0.328000069,1,0,1200,551,1,1199,coal,11127,2019-10-21_16h50.11.527,SurveyExpMetaMem,3.2.3,MacIntel,60
,,,,,,,,,,,,,,,,,,,,4,4.801999807,6,0.473999977,1,0,1200,569,1,1199,onion,11127,2019-10-21_16h50.11.527,SurveyExpMetaMem,3.2.3,MacIntel,60
,,,,,,,,,,,,,,,,,,,,2,5.220000029,7,1.139999866,1,0,1200,839,1,1199,flower,11127,2019-10-21_16h50.11.527,SurveyExpMetaMem,3.2.3,MacIntel,60
,,,,,,,,,,,,,,,,,,,,4,3.218999863,6,0.332000017,1,0,1200,689,1,1199,land,11127,2019-10-21_16h50.11.527,SurveyExpMetaMem,3.2.3,MacIntel,60
,,,,,,,,,,,,,,,,,,,,7,3.451999903,7,1.06099987,1,0,1200,95,1,1199,giggle,11127,2019-10-21_16h50.11.527,SurveyExpMetaMem,3.2.3,MacIntel,60
,,,,,,,,,,,,,,,,,,,,6,3.578999996,2,1.273999929,1,0,1200,928,1,1199,cruel,11127,2019-10-21_16h50.11.527,SurveyExpMetaMem,3.2.3,MacIntel,60
,,,,,,,,,,,,,,,,,,,,8,1.884999752,8,0.885999918,1,0,1200,832,1,1199,candy,11127,2019-10-21_16h50.11.527,SurveyExpMetaMem,3.2.3,MacIntel,60
,,,,,,,,,,,,,,,,,,,,2,4.30099988,7,0.264999866,1,0,1200,843,1,1199,garden,11127,2019-10-21_16h50.11.527,SurveyExpMetaMem,3.2.3,MacIntel,60
,,,,,,,,,,,,,,,,,,,,5,1.728999853,5,0.154999971,1,0,1200,381,1,1199,sloppy,11127,2019-10-21_16h50.11.527,SurveyExpMetaMem,3.2.3,MacIntel,60
,,,,,,,,,,,,,,,,,,,,2,1.964999914,7,0.201999903,1,0,1200,55,1,1199,rare,11127,2019-10-21_16h50.11.527,SurveyExpMetaMem,3.2.3,MacIntel,60
,,,,,,,,,,,,,,,,,,,,7,3.731999874,5,3.085999966,1,0,1200,598,1,1199,feet,11127,2019-10-21_16h50.11.527,SurveyExpMetaMem,3.2.3,MacIntel,60
,,,,,,,,,,,,,,,,,,,,7,1.667999983,3,0.444000006,1,0,1200,1044,1,1199,lost,11127,2019-10-21_16h50.11.527,SurveyExpMetaMem,3.2.3,MacIntel,60
,,,,,,,,,,,,,,,,,,,,7,2.112999916,7,0.465000153,1,0,1200,13,1,1199,mingle,11127,2019-10-21_16h50.11.527,SurveyExpMetaMem,3.2.3,MacIntel,60
,,,,,,,,,,,,,,,,,,,,2,2.31799984,2,0.878000021,1,0,1200,356,1,1199,mucous,11127,2019-10-21_16h50.11.527,SurveyExpMetaMem,3.2.3,MacIntel,60
,,,,,,,,,,,,,,,,,,,,7,1.894999981,2,0.398999929,1,0,1200,953,1,1199,victim,11127,2019-10-21_16h50.11.527,SurveyExpMetaMem,3.2.3,MacIntel,60
,,,,,,,,,,,,,,,,,,,,8,1.3349998,2,0.323999882,1,0,1200,1073,1,1199,bitch,11127,2019-10-21_16h50.11.527,SurveyExpMetaMem,3.2.3,MacIntel,60
,,,,,,,,,,,,,,,,,,,,2,3.530999899,2,0.928999901,1,0,1200,715,1,1199,sheltered,11127,2019-10-21_16h50.11.527,SurveyExpMetaMem,3.2.3,MacIntel,60
,,,,,,,,,,,,,,,,,,,,8,1.843999863,1,0.268999815,1,0,1200,19,1,1199,firefighter,11127,2019-10-21_16h50.11.527,SurveyExpMetaMem,3.2.3,MacIntel,60
,,,,,,,,,,,,,,,,,,,,7,1.799000025,4,0.481999874,1,0,1200,977,1,1199,choke,11127,2019-10-21_16h50.11.527,SurveyExpMetaMem,3.2.3,MacIntel,60
,,,,,,,,,,,,,,,,,,,,5,1.599999905,5,0.20600009,1,0,1200,638,1,1199,quench,11127,2019-10-21_16h50.11.527,SurveyExpMetaMem,3.2.3,MacIntel,60
,,,,,,,,,,,,,,,,,,,,5,1.029000044,5,0.236000061,1,0,1200,671,1,1199,windmill,11127,2019-10-21_16h50.11.527,SurveyExpMetaMem,3.2.3,MacIntel,60
,,,,,,,,,,,,,,,,,,,,2,5.486000061,5,1.190000057,1,0,1200,777,1,1199,casual,11127,2019-10-21_16h50.11.527,SurveyExpMetaMem,3.2.3,MacIntel,60
,,,,,,,,,,,,,,,,,,,,5,3.045000076,5,0.220000029,1,0,1200,260,1,1199,control,11127,2019-10-21_16h50.11.527,SurveyExpMetaMem,3.2.3,MacIntel,60
,,,,,,,,,,,,,,,,,,,,7,4.717999697,7,0.868000031,1,0,1200,796,1,1199,rose,11127,2019-10-21_16h50.11.527,SurveyExpMetaMem,3.2.3,MacIntel,60
,,,,,,,,,,,,,,,,,,,,8,1.811999798,9,1.047999859,1,0,1200,279,1,1199,bargain,11127,2019-10-21_16h50.11.527,SurveyExpMetaMem,3.2.3,MacIntel,60
,,,,,,,,,,,,,,,,,,,,7,2.080999851,8,0.96600008,1,0,1200,262,1,1199,athletics,11127,2019-10-21_16h50.11.527,SurveyExpMetaMem,3.2.3,MacIntel,60
,,,,,,,,,,,,,,,,,,,,8,1.451999903,9,0.967999697,1,0,1200,201,1,1199,gorilla,11127,2019-10-21_16h50.11.527,SurveyExpMetaMem,3.2.3,MacIntel,60
,,,,,,,,,,,,,,,,,,,,7,2.319000006,8,1.030999899,1,0,1200,1122,1,1199,gossip,11127,2019-10-21_16h50.11.527,SurveyExpMetaMem,3.2.3,MacIntel,60
,,,,,,,,,,,,,,,,,,,,5,2.090999842,7,1.286999941,1,0,1200,657,1,1199,peanut,11127,2019-10-21_16h50.11.527,SurveyExpMetaMem,3.2.3,MacIntel,60
,,,,,,,,,,,,,,,,,,,,8,2.653999805,9,0.930999994,1,0,1200,612,1,1199,propeller,11127,2019-10-21_16h50.11.527,SurveyExpMetaMem,3.2.3,MacIntel,60
,,,,,,,,,,,,,,,,,,,,7,1.858999729,2,0.590999842,1,0,1200,986,1,1199,mad,11127,2019-10-21_16h50.11.527,SurveyExpMetaMem,3.2.3,MacIntel,60
,,,,,,,,,,,,,,,,,,,,2,3.151999712,5,1.414999962,1,0,1200,636,1,1199,refine,11127,2019-10-21_16h50.11.527,SurveyExpMetaMem,3.2.3,MacIntel,60
,,,,,,,,,,,,,,,,,,,,7,1.714999914,7,0.479000092,1,0,1200,255,1,1199,ass,11127,2019-10-21_16h50.11.527,SurveyExpMetaMem,3.2.3,MacIntel,60
,,,,,,,,,,,,,,,,,,,,5,15.45499992,5,0.11899972,1,0,1200,362,1,1199,despair,11127,2019-10-21_16h50.11.527,SurveyExpMetaMem,3.2.3,MacIntel,60
,,,,,,,,,,,,,,,,,,,,5,1.007999897,5,0.144000053,1,0,1200,466,1,1199,gnaw,11127,2019-10-21_16h50.11.527,SurveyExpMetaMem,3.2.3,MacIntel,60
,,,,,,,,,,,,,,,,,,,,1,2.251999855,2,0.730999947,1,0,1200,618,1,1199,ceiling,11127,2019-10-21_16h50.11.527,SurveyExpMetaMem,3.2.3,MacIntel,60
,,,,,,,,,,,,,,,,,,,,2,3.647000074,3,0.648999929,1,0,1200,627,1,1199,introductory,11127,2019-10-21_16h50.11.527,SurveyExpMetaMem,3.2.3,MacIntel,60
,,,,,,,,,,,,,,,,,,,,8,2.718999863,9,0.394000053,1,0,1200,281,1,1199,summer,11127,2019-10-21_16h50.11.527,SurveyExpMetaMem,3.2.3,MacIntel,60
,,,,,,,,,,,,,,,,,,,,6,2.835999966,8,1.269999981,1,0,1200,851,1,1199,cool,11127,2019-10-21_16h50.11.527,SurveyExpMetaMem,3.2.3,MacIntel,60
,,,,,,,,,,,,,,,,,,,,5,4.14199996,5,0.196000099,1,0,1200,750,1,1199,porpoise,11127,2019-10-21_16h50.11.527,SurveyExpMetaMem,3.2.3,MacIntel,60
,,,,,,,,,,,,,,,,,,,,8,1.958999872,5,0.523999929,1,0,1200,9,1,1199,try,11127,2019-10-21_16h50.11.527,SurveyExpMetaMem,3.2.3,MacIntel,60
,,,,,,,,,,,,,,,,,,,,8,3.135999918,9,0.331999779,1,0,1200,296,1,1199,awesome,11127,2019-10-21_16h50.11.527,SurveyExpMetaMem,3.2.3,MacIntel,60
,,,,,,,,,,,,,,,,,,,,2,1.559000015,1,1.187000036,1,0,1200,921,1,1199,humiliation,11127,2019-10-21_16h50.11.527,SurveyExpMetaMem,3.2.3,MacIntel,60
,,,,,,,,,,,,,,,,,,,,5,1.872999907,5,0.16899991,1,0,1200,361,1,1199,glum,11127,2019-10-21_16h50.11.527,SurveyExpMetaMem,3.2.3,MacIntel,60
,,,,,,,,,,,,,,,,,,,,8,1.226999998,2,0.322000027,1,0,1200,932,1,1199,bankrupt,11127,2019-10-21_16h50.11.527,SurveyExpMetaMem,3.2.3,MacIntel,60
,,,,,,,,,,,,,,,,,,,,7,2.602999926,2,0.388999939,1,0,1200,586,1,1199,cab,11127,2019-10-21_16h50.11.527,SurveyExpMetaMem,3.2.3,MacIntel,60
,,,,,,,,,,,,,,,,,,,,9,1.613999844,1,1.086999893,1,0,1200,948,1,1199,pain,11127,2019-10-21_16h50.11.527,SurveyExpMetaMem,3.2.3,MacIntel,60
,,,,,,,,,,,,,,,,,,,,7,18.67499995,7,0.939999819,1,0,1200,1109,1,1199,germ,11127,2019-10-21_16h50.11.527,SurveyExpMetaMem,3.2.3,MacIntel,60
,,,,,,,,,,,,,,,,,,,,7,1.737999916,2,0.491999865,1,0,1200,253,1,1199,soldier,11127,2019-10-21_16h50.11.527,SurveyExpMetaMem,3.2.3,MacIntel,60
,,,,,,,,,,,,,,,,,,,,8,1.475000143,2,0.555999756,1,0,1200,392,1,1199,moody,11127,2019-10-21_16h50.11.527,SurveyExpMetaMem,3.2.3,MacIntel,60
,,,,,,,,,,,,,,,,,,,,7,1.970999956,2,0.555999994,1,0,1200,1026,1,1199,crisis,11127,2019-10-21_16h50.11.527,SurveyExpMetaMem,3.2.3,MacIntel,60
,,,,,,,,,,,,,,,,,,,,5,2.842999935,5,0.174000025,1,0,1200,103,1,1199,conquest,11127,2019-10-21_16h50.11.527,SurveyExpMetaMem,3.2.3,MacIntel,60
,,,,,,,,,,,,,,,,,,,,1,2.536999941,1,4.356999874,1,0,1200,926,1,1199,dead,11127,2019-10-21_16h50.11.527,SurveyExpMetaMem,3.2.3,MacIntel,60
,,,,,,,,,,,,,,,,,,,,8,1.773999929,2,1.405999899,1,0,1200,905,1,1199,suffocate,11127,2019-10-21_16h50.11.527,SurveyExpMetaMem,3.2.3,MacIntel,60
,,,,,,,,,,,,,,,,,,,,7,1.119999886,3,0.559999943,1,0,1200,1174,1,1199,beast,11127,2019-10-21_16h50.11.527,SurveyExpMetaMem,3.2.3,MacIntel,60
,,,,,,,,,,,,,,,,,,,,5,1.755999804,5,0.309999943,1,0,1200,741,1,1199,wheat,11127,2019-10-21_16h50.11.527,SurveyExpMetaMem,3.2.3,MacIntel,60
,,,,,,,,,,,,,,,,,,,,5,1.187000036,5,0.39199996,1,0,1200,632,1,1199,avenue,11127,2019-10-21_16h50.11.527,SurveyExpMetaMem,3.2.3,MacIntel,60
,,,,,,,,,,,,,,,,,,,,8,1.755999804,2,1.072999954,1,0,1200,918,1,1199,gunpoint,11127,2019-10-21_16h50.11.527,SurveyExpMetaMem,3.2.3,MacIntel,60
,,,,,,,,,,,,,,,,,,,,5,1.944000006,5,1.512000084,1,0,1200,693,1,1199,key,11127,2019-10-21_16h50.11.527,SurveyExpMetaMem,3.2.3,MacIntel,60
,,,,,,,,,,,,,,,,,,,,3,2.526000023,2,2.374000072,1,0,1200,938,1,1199,seasick,11127,2019-10-21_16h50.11.527,SurveyExpMetaMem,3.2.3,MacIntel,60
,,,,,,,,,,,,,,,,,,,,2,2.238999844,3,0.772000074,1,0,1200,454,1,1199,damp,11127,2019-10-21_16h50.11.527,SurveyExpMetaMem,3.2.3,MacIntel,60
,,,,,,,,,,,,,,,,,,,,7,1.985999823,8,2.151000023,1,0,1200,98,1,1199,affection,11127,2019-10-21_16h50.11.527,SurveyExpMetaMem,3.2.3,MacIntel,60
,,,,,,,,,,,,,,,,,,,,9,2.754999876,2,0.594000101,1,0,1200,1168,1,1199,financial,11127,2019-10-21_16h50.11.527,SurveyExpMetaMem,3.2.3,MacIntel,60
,,,,,,,,,,,,,,,,,,,,2,1.687000036,2,1.502000093,1,0,1200,467,1,1199,FALSE,11127,2019-10-21_16h50.11.527,SurveyExpMetaMem,3.2.3,MacIntel,60
,,,,,,,,,,,,,,,,,,,,5,2.802000046,5,0.174000025,1,0,1200,761,1,1199,corn,11127,2019-10-21_16h50.11.527,SurveyExpMetaMem,3.2.3,MacIntel,60
,,,,,,,,,,,,,,,,,,,,8,1.869999886,2,0.499000072,1,0,1200,1177,1,1199,pang,11127,2019-10-21_16h50.11.527,SurveyExpMetaMem,3.2.3,MacIntel,60
,,,,,,,,,,,,,,,,,,,,8,4.030999899,2,0.74000001,1,0,1200,1061,1,1199,difficult,11127,2019-10-21_16h50.11.527,SurveyExpMetaMem,3.2.3,MacIntel,60
,,,,,,,,,,,,,,,,,,,,8,2.664999723,8,0.852999926,1,0,1200,748,1,1199,town,11127,2019-10-21_16h50.11.527,SurveyExpMetaMem,3.2.3,MacIntel,60
,,,,,,,,,,,,,,,,,,,,8,3.500999928,9,0.607999802,1,0,1200,74,1,1199,explore,11127,2019-10-21_16h50.11.527,SurveyExpMetaMem,3.2.3,MacIntel,60
,,,,,,,,,,,,,,,,,,,,5,2.076999903,5,0.243999958,1,0,1200,577,1,1199,retreat,11127,2019-10-21_16h50.11.527,SurveyExpMetaMem,3.2.3,MacIntel,60
,,,,,,,,,,,,,,,,,,,,5,2.026000023,5,0.276000023,1,0,1200,592,1,1199,sweep,11127,2019-10-21_16h50.11.527,SurveyExpMetaMem,3.2.3,MacIntel,60
,,,,,,,,,,,,,,,,,,,,1,17.14099979,7,0.713999748,1,0,1200,28,1,1199,energy,11127,2019-10-21_16h50.11.527,SurveyExpMetaMem,3.2.3,MacIntel,60
,,,,,,,,,,,,,,,,,,,,8,1.736999989,6,1.022000074,1,0,1200,65,1,1199,restaurant,11127,2019-10-21_16h50.11.527,SurveyExpMetaMem,3.2.3,MacIntel,60
,,,,,,,,,,,,,,,,,,,,1,2.704999924,2,0.865999937,1,0,1200,573,1,1199,cease,11127,2019-10-21_16h50.11.527,SurveyExpMetaMem,3.2.3,MacIntel,60
,,,,,,,,,,,,,,,,,,,,8,13.21999979,2,0.51699996,1,0,1200,995,1,1199,cult,11127,2019-10-21_16h50.11.527,SurveyExpMetaMem,3.2.3,MacIntel,60
,,,,,,,,,,,,,,,,,,,,2,80.47300005,3,1.506999731,1,0,1200,382,1,1199,vulnerable,11127,2019-10-21_16h50.11.527,SurveyExpMetaMem,3.2.3,MacIntel,60
,,,,,,,,,,,,,,,,,,,,8,6.474999905,2,0.32400012,1,0,1200,528,1,1199,dirt,11127,2019-10-21_16h50.11.527,SurveyExpMetaMem,3.2.3,MacIntel,60
,,,,,,,,,,,,,,,,,,,,8,3.123999834,5,0.527999878,1,0,1200,126,1,1199,rich,11127,2019-10-21_16h50.11.527,SurveyExpMetaMem,3.2.3,MacIntel,60
,,,,,,,,,,,,,,,,,,,,5,1.656999826,5,0.198999882,1,0,1200,752,1,1199,milk,11127,2019-10-21_16h50.11.527,SurveyExpMetaMem,3.2.3,MacIntel,60
,,,,,,,,,,,,,,,,,,,,8,3.586999893,4,0.591999769,1,0,1200,708,1,1199,nursery,11127,2019-10-21_16h50.11.527,SurveyExpMetaMem,3.2.3,MacIntel,60
,,,,,,,,,,,,,,,,,,,,2,2.142999887,7,1.079999924,1,0,1200,123,1,1199,favorite,11127,2019-10-21_16h50.11.527,SurveyExpMetaMem,3.2.3,MacIntel,60
,,,,,,,,,,,,,,,,,,,,8,3.819000006,2,0.638999939,1,0,1200,1169,1,1199,enforcement,11127,2019-10-21_16h50.11.527,SurveyExpMetaMem,3.2.3,MacIntel,60
,,,,,,,,,,,,,,,,,,,,2,2.615999937,3,0.819999933,1,0,1200,903,1,1199,cancer,11127,2019-10-21_16h50.11.527,SurveyExpMetaMem,3.2.3,MacIntel,60
,,,,,,,,,,,,,,,,,,,,2,2.446999788,1,1.552999973,1,0,1200,578,1,1199,govern,11127,2019-10-21_16h50.11.527,SurveyExpMetaMem,3.2.3,MacIntel,60
,,,,,,,,,,,,,,,,,,,,5,1.381999731,5,0.253999949,1,0,1200,445,1,1199,bleak,11127,2019-10-21_16h50.11.527,SurveyExpMetaMem,3.2.3,MacIntel,60
,,,,,,,,,,,,,,,,,,,,2,1.469000101,7,0.335999966,1,0,1200,92,1,1199,justice,11127,2019-10-21_16h50.11.527,SurveyExpMetaMem,3.2.3,MacIntel,60
,,,,,,,,,,,,,,,,,,,,7,2.484999895,2,0.645999908,1,0,1200,61,1,1199,zoom,11127,2019-10-21_16h50.11.527,SurveyExpMetaMem,3.2.3,MacIntel,60
,,,,,,,,,,,,,,,,,,,,8,1.731999874,2,0.531999826,1,0,1200,1055,1,1199,alarm,11127,2019-10-21_16h50.11.527,SurveyExpMetaMem,3.2.3,MacIntel,60
,,,,,,,,,,,,,,,,,,,,9,2.787999868,9,0.394999981,1,0,1200,893,1,1199,nature,11127,2019-10-21_16h50.11.527,SurveyExpMetaMem,3.2.3,MacIntel,60
,,,,,,,,,,,,,,,,,,,,8,1.565999746,2,0.631999969,1,0,1200,1130,1,1199,slut,11127,2019-10-21_16h50.11.527,SurveyExpMetaMem,3.2.3,MacIntel,60
,,,,,,,,,,,,,,,,,,,,7,30.35699987,3,0.305999994,1,0,1200,1072,1,1199,bothered,11127,2019-10-21_16h50.11.527,SurveyExpMetaMem,3.2.3,MacIntel,60
,,,,,,,,,,,,,,,,,,,,7,2.05099988,7,1.468999863,1,0,1200,36,1,1199,puppy,11127,2019-10-21_16h50.11.527,SurveyExpMetaMem,3.2.3,MacIntel,60
,,,,,,,,,,,,,,,,,,,,5,1.753999949,5,0.261999846,1,0,1200,272,1,1199,confidence,11127,2019-10-21_16h50.11.527,SurveyExpMetaMem,3.2.3,MacIntel,60
,,,,,,,,,,,,,,,,,,,,5,8.850999832,5,0.181999922,1,0,1200,495,1,1199,dust,11127,2019-10-21_16h50.11.527,SurveyExpMetaMem,3.2.3,MacIntel,60
,,,,,,,,,,,,,,,,,,,,5,8.987999916,5,0.257999897,1,0,1200,350,1,1199,inadequate,11127,2019-10-21_16h50.11.527,SurveyExpMetaMem,3.2.3,MacIntel,60
,,,,,,,,,,,,,,,,,,,,8,1.45299983,2,0.470000029,1,0,1200,439,1,1199,spit,11127,2019-10-21_16h50.11.527,SurveyExpMetaMem,3.2.3,MacIntel,60
,,,,,,,,,,,,,,,,,,,,1,8.267999887,5,1.135999918,1,0,1200,709,1,1199,ancestor,11127,2019-10-21_16h50.11.527,SurveyExpMetaMem,3.2.3,MacIntel,60
,,,,,,,,,,,,,,,,,,,,5,2.183999777,5,0.220999956,1,0,1200,1144,1,1199,yelp,11127,2019-10-21_16h50.11.527,SurveyExpMetaMem,3.2.3,MacIntel,60
,,,,,,,,,,,,,,,,,,,,7,3.78399992,7,0.653000116,1,0,1200,120,1,1199,imaginative,11127,2019-10-21_16h50.11.527,SurveyExpMetaMem,3.2.3,MacIntel,60
,,,,,,,,,,,,,,,,,,,,2,5.737999916,7,1.419999838,1,0,1200,862,1,1199,ease,11127,2019-10-21_16h50.11.527,SurveyExpMetaMem,3.2.3,MacIntel,60
,,,,,,,,,,,,,,,,,,,,1,1.56799984,8,0.851999998,1,0,1200,77,1,1199,adore,11127,2019-10-21_16h50.11.527,SurveyExpMetaMem,3.2.3,MacIntel,60
,,,,,,,,,,,,,,,,,,,,7,2.43599987,6,0.936000109,1,0,1200,688,1,1199,jelly,11127,2019-10-21_16h50.11.527,SurveyExpMetaMem,3.2.3,MacIntel,60
,,,,,,,,,,,,,,,,,,,,8,1.512000084,8,0.562999964,1,0,1200,244,1,1199,sexy,11127,2019-10-21_16h50.11.527,SurveyExpMetaMem,3.2.3,MacIntel,60
,,,,,,,,,,,,,,,,,,,,7,2.326999903,2,0.389999866,1,0,1200,349,1,1199,mope,11127,2019-10-21_16h50.11.527,SurveyExpMetaMem,3.2.3,MacIntel,60
,,,,,,,,,,,,,,,,,,,,5,1.421999931,5,0.220000029,1,0,1200,589,1,1199,coarse,11127,2019-10-21_16h50.11.527,SurveyExpMetaMem,3.2.3,MacIntel,60
,,,,,,,,,,,,,,,,,,,,8,2.770999908,2,0.385999918,1,0,1200,352,1,1199,negligent,11127,2019-10-21_16h50.11.527,SurveyExpMetaMem,3.2.3,MacIntel,60
,,,,,,,,,,,,,,,,,,,,2,1.759000063,3,0.819999933,1,0,1200,1012,1,1199,gunshot,11127,2019-10-21_16h50.11.527,SurveyExpMetaMem,3.2.3,MacIntel,60
,,,,,,,,,,,,,,,,,,,,7,9.428999901,2,0.729999781,1,0,1200,863,1,1199,fireplace,11127,2019-10-21_16h50.11.527,SurveyExpMetaMem,3.2.3,MacIntel,60
,,,,,,,,,,,,,,,,,,,,4,2.154000044,8,8.223999739,1,0,1200,237,1,1199,beautiful,11127,2019-10-21_16h50.11.527,SurveyExpMetaMem,3.2.3,MacIntel,60
,,,,,,,,,,,,,,,,,,,,5,20.71099973,2,0.622999907,1,0,1200,931,1,1199,overweight,11127,2019-10-21_16h50.11.527,SurveyExpMetaMem,3.2.3,MacIntel,60
,,,,,,,,,,,,,,,,,,,,5,1.540999889,5,0.473999977,1,0,1200,113,1,1199,bridesmaid,11127,2019-10-21_16h50.11.527,SurveyExpMetaMem,3.2.3,MacIntel,60
,,,,,,,,,,,,,,,,,,,,8,2.453000069,8,1.578000069,1,0,1200,419,1,1199,immature,11127,2019-10-21_16h50.11.527,SurveyExpMetaMem,3.2.3,MacIntel,60
,,,,,,,,,,,,,,,,,,,,5,1.286999941,5,0.258999825,1,0,1200,1160,1,1199,enlist,11127,2019-10-21_16h50.11.527,SurveyExpMetaMem,3.2.3,MacIntel,60
,,,,,,,,,,,,,,,,,,,,5,7.540999889,5,0.223999977,1,0,1200,234,1,1199,redeem,11127,2019-10-21_16h50.11.527,SurveyExpMetaMem,3.2.3,MacIntel,60
,,,,,,,,,,,,,,,,,,,,1,2.708999872,2,0.674999952,1,0,1200,664,1,1199,quiet,11127,2019-10-21_16h50.11.527,SurveyExpMetaMem,3.2.3,MacIntel,60
,,,,,,,,,,,,,,,,,,,,2,2.059999943,8,0.4599998,1,0,1200,896,1,1199,cuddle,11127,2019-10-21_16h50.11.527,SurveyExpMetaMem,3.2.3,MacIntel,60
,,,,,,,,,,,,,,,,,,,,8,1.654000044,2,2.390000105,1,0,1200,1051,1,1199,insane,11127,2019-10-21_16h50.11.527,SurveyExpMetaMem,3.2.3,MacIntel,60
,,,,,,,,,,,,,,,,,,,,1,3.304999828,1,0.940999985,1,0,1200,818,1,1199,priest,11127,2019-10-21_16h50.11.527,SurveyExpMetaMem,3.2.3,MacIntel,60
,,,,,,,,,,,,,,,,,,,,8,2.427999973,8,0.573999882,1,0,1200,190,1,1199,rescue,11127,2019-10-21_16h50.11.527,SurveyExpMetaMem,3.2.3,MacIntel,60
,,,,,,,,,,,,,,,,,,,,7,2.689999819,3,0.696999788,1,0,1200,1110,1,1199,bastard,11127,2019-10-21_16h50.11.527,SurveyExpMetaMem,3.2.3,MacIntel,60
,,,,,,,,,,,,,,,,,,,,6,2.203999996,4,0.455999851,1,0,1200,132,1,1199,silly,11127,2019-10-21_16h50.11.527,SurveyExpMetaMem,3.2.3,MacIntel,60
,,,,,,,,,,,,,,,,,,,,6,2.561000109,4,0.154999971,1,0,1200,37,1,1199,magnificence,11127,2019-10-21_16h50.11.527,SurveyExpMetaMem,3.2.3,MacIntel,60
,,,,,,,,,,,,,,,,,,,,8,2.970000029,1,0.309000015,1,0,1200,1146,1,1199,bug,11127,2019-10-21_16h50.11.527,SurveyExpMetaMem,3.2.3,MacIntel,60
,,,,,,,,,,,,,,,,,,,,7,2.303999901,3,0.422999859,1,0,1200,233,1,1199,exhilaration,11127,2019-10-21_16h50.11.527,SurveyExpMetaMem,3.2.3,MacIntel,60
,,,,,,,,,,,,,,,,,,,,8,1.973999977,8,0.671999931,1,0,1200,81,1,1199,best,11127,2019-10-21_16h50.11.527,SurveyExpMetaMem,3.2.3,MacIntel,60
,,,,,,,,,,,,,,,,,,,,7,2.206999779,2,0.330999851,1,0,1200,930,1,1199,poison,11127,2019-10-21_16h50.11.527,SurveyExpMetaMem,3.2.3,MacIntel,60
,,,,,,,,,,,,,,,,,,,,2,3.888000011,3,1.538999796,1,0,1200,691,1,1199,circle,11127,2019-10-21_16h50.11.527,SurveyExpMetaMem,3.2.3,MacIntel,60
,,,,,,,,,,,,,,,,,,,,1,2.721999884,3,0.723999977,1,0,1200,749,1,1199,glasses,11127,2019-10-21_16h50.11.527,SurveyExpMetaMem,3.2.3,MacIntel,60
,,,,,,,,,,,,,,,,,,,,8,1.887999773,9,1.010999918,1,0,1200,1171,1,1199,chaos,11127,2019-10-21_16h50.11.527,SurveyExpMetaMem,3.2.3,MacIntel,60
,,,,,,,,,,,,,,,,,,,,2,2.354000092,8,2.342000008,1,0,1200,22,1,1199,doughnut,11127,2019-10-21_16h50.11.527,SurveyExpMetaMem,3.2.3,MacIntel,60
,,,,,,,,,,,,,,,,,,,,1,2.187999964,7,0.497999907,1,0,1200,170,1,1199,entertainment,11127,2019-10-21_16h50.11.527,SurveyExpMetaMem,3.2.3,MacIntel,60
,,,,,,,,,,,,,,,,,,,,5,2.371000051,2,1.39199996,1,0,1200,413,1,1199,deficient,11127,2019-10-21_16h50.11.527,SurveyExpMetaMem,3.2.3,MacIntel,60
,,,,,,,,,,,,,,,,,,,,1,3.605999947,7,0.805000067,1,0,1200,568,1,1199,therapy,11127,2019-10-21_16h50.11.527,SurveyExpMetaMem,3.2.3,MacIntel,60
,,,,,,,,,,,,,,,,,,,,7,3.436999798,8,1.105999947,1,0,1200,129,1,1199,fly,11127,2019-10-21_16h50.11.527,SurveyExpMetaMem,3.2.3,MacIntel,60
,,,,,,,,,,,,,,,,,,,,8,3.79399991,7,1.665999889,1,0,1200,117,1,1199,powerful,11127,2019-10-21_16h50.11.527,SurveyExpMetaMem,3.2.3,MacIntel,60
,,,,,,,,,,,,,,,,,,,,6,4.736999989,2,1.624999762,1,0,1200,1001,1,1199,rude,11127,2019-10-21_16h50.11.527,SurveyExpMetaMem,3.2.3,MacIntel,60
,,,,,,,,,,,,,,,,,,,,5,1.237999916,5,0.206999779,1,0,1200,1034,1,1199,pester,11127,2019-10-21_16h50.11.527,SurveyExpMetaMem,3.2.3,MacIntel,60
,,,,,,,,,,,,,,,,,,,,7,1.690000057,7,9.962999821,1,0,1200,102,1,1199,motorcycle,11127,2019-10-21_16h50.11.527,SurveyExpMetaMem,3.2.3,MacIntel,60
,,,,,,,,,,,,,,,,,,,,2,2.595999956,3,0.559999943,1,0,1200,432,1,1199,resign,11127,2019-10-21_16h50.11.527,SurveyExpMetaMem,3.2.3,MacIntel,60
,,,,,,,,,,,,,,,,,,,,5,3.341999769,2,1.194000006,1,0,1200,976,1,1199,tumor,11127,2019-10-21_16h50.11.527,SurveyExpMetaMem,3.2.3,MacIntel,60
,,,,,,,,,,,,,,,,,,,,8,3.236999989,6,0.605999947,1,0,1200,161,1,1199,limousine,11127,2019-10-21_16h50.11.527,SurveyExpMetaMem,3.2.3,MacIntel,60
,,,,,,,,,,,,,,,,,,,,5,1.553999901,5,0.34499979,1,0,1200,1074,1,1199,detain,11127,2019-10-21_16h50.11.527,SurveyExpMetaMem,3.2.3,MacIntel,60
,,,,,,,,,,,,,,,,,,,,8,2.071999788,2,0.406999826,1,0,1200,317,1,1199,cry,11127,2019-10-21_16h50.11.527,SurveyExpMetaMem,3.2.3,MacIntel,60
,,,,,,,,,,,,,,,,,,,,7,12.31100011,8,0.957000017,1,0,1200,1027,1,1199,criticism,11127,2019-10-21_16h50.11.527,SurveyExpMetaMem,3.2.3,MacIntel,60
,,,,,,,,,,,,,,,,,,,,5,1.47300005,5,0.44299984,1,0,1200,200,1,1199,preach,11127,2019-10-21_16h50.11.527,SurveyExpMetaMem,3.2.3,MacIntel,60
,,,,,,,,,,,,,,,,,,,,8,1.203999758,7,0.476000071,1,0,1200,268,1,1199,tickle,11127,2019-10-21_16h50.11.527,SurveyExpMetaMem,3.2.3,MacIntel,60
,,,,,,,,,,,,,,,,,,,,8,1.387999773,2,0.493999958,1,0,1200,8,1,1199,extreme,11127,2019-10-21_16h50.11.527,SurveyExpMetaMem,3.2.3,MacIntel,60
,,,,,,,,,,,,,,,,,,,,7,90.71799994,2,2.056999922,1,0,1200,73,1,1199,rhythm,11127,2019-10-21_16h50.11.527,SurveyExpMetaMem,3.2.3,MacIntel,60
,,,,,,,,,,,,,,,,,,,,3,3.960000038,4,3.240999937,1,0,1200,462,1,1199,shallow,11127,2019-10-21_16h50.11.527,SurveyExpMetaMem,3.2.3,MacIntel,60
,,,,,,,,,,,,,,,,,,,,7,2.554999828,7,0.694000006,1,0,1200,437,1,1199,blubber,11127,2019-10-21_16h50.11.527,SurveyExpMetaMem,3.2.3,MacIntel,60
,,,,,,,,,,,,,,,,,,,,5,1.072999954,5,0.328999996,1,0,1200,662,1,1199,bib,11127,2019-10-21_16h50.11.527,SurveyExpMetaMem,3.2.3,MacIntel,60
,,,,,,,,,,,,,,,,,,,,9,1.936999798,9,0.696000099,1,0,1200,1132,1,1199,anarchy,11127,2019-10-21_16h50.11.527,SurveyExpMetaMem,3.2.3,MacIntel,60
,,,,,,,,,,,,,,,,,,,,2,11.10899997,7,1.345000029,1,0,1200,285,1,1199,gold,11127,2019-10-21_16h50.11.527,SurveyExpMetaMem,3.2.3,MacIntel,60
,,,,,,,,,,,,,,,,,,,,8,2.638999939,8,6.325999975,1,0,1200,1076,1,1199,embarrassed,11127,2019-10-21_16h50.11.527,SurveyExpMetaMem,3.2.3,MacIntel,60
,,,,,,,,,,,,,,,,,,,,2,0.369999886,7,16.47399998,1,0,1200,951,1,1199,castrate,11127,2019-10-21_16h50.11.527,SurveyExpMetaMem,3.2.3,MacIntel,60
,,,,,,,,,,,,,,,,,,,,2,0.259000063,7,2.322999954,1,0,1200,1040,1,1199,communism,11127,2019-10-21_16h50.11.527,SurveyExpMetaMem,3.2.3,MacIntel,60
,,,,,,,,,,,,,,,,,,,,7,0.654999733,7,4.539999962,1,0,1200,267,1,1199,bold,11127,2019-10-21_16h50.11.527,SurveyExpMetaMem,3.2.3,MacIntel,60
,,,,,,,,,,,,,,,,,,,,8,12.1789999,7,0.355999947,1,0,1200,184,1,1199,surprised,11127,2019-10-21_16h50.11.527,SurveyExpMetaMem,3.2.3,MacIntel,60
,,,,,,,,,,,,,,,,,,,,7,1.342000008,2,0.359999895,1,0,1200,1058,1,1199,bloody,11127,2019-10-21_16h50.11.527,SurveyExpMetaMem,3.2.3,MacIntel,60
,,,,,,,,,,,,,,,,,,,,5,7.241999865,5,0.457000017,1,0,1200,1127,1,1199,spank,11127,2019-10-21_16h50.11.527,SurveyExpMetaMem,3.2.3,MacIntel,60
,,,,,,,,,,,,,,,,,,,,1,4.053999901,8,1.161999941,1,0,1200,756,1,1199,plant,11127,2019-10-21_16h50.11.527,SurveyExpMetaMem,3.2.3,MacIntel,60
,,,,,,,,,,,,,,,,,,,,8,1.489999771,3,2.305999994,1,0,1200,11,1,1199,astonished,11127,2019-10-21_16h50.11.527,SurveyExpMetaMem,3.2.3,MacIntel,60
,,,,,,,,,,,,,,,,,,,,9,3.203999996,8,0.388999939,1,0,1200,256,1,1199,galaxy,11127,2019-10-21_16h50.11.527,SurveyExpMetaMem,3.2.3,MacIntel,60
,,,,,,,,,,,,,,,,,,,,5,2.642999887,5,0.221999884,1,0,1200,1105,1,1199,flee,11127,2019-10-21_16h50.11.527,SurveyExpMetaMem,3.2.3,MacIntel,60
,,,,,,,,,,,,,,,,,,,,8,4.072999954,2,0.873999834,1,0,1200,1052,1,1199,angry,11127,2019-10-21_16h50.11.527,SurveyExpMetaMem,3.2.3,MacIntel,60
,,,,,,,,,,,,,,,,,,,,5,2.357999802,5,0.159999847,1,0,1200,164,1,1199,marry,11127,2019-10-21_16h50.11.527,SurveyExpMetaMem,3.2.3,MacIntel,60
,,,,,,,,,,,,,,,,,,,,8,12.17199993,3,3.240999937,1,0,1200,1047,1,1199,psycho,11127,2019-10-21_16h50.11.527,SurveyExpMetaMem,3.2.3,MacIntel,60
,,,,,,,,,,,,,,,,,,,,7,3.204999924,2,0.855000019,1,0,1200,1095,1,1199,fright,11127,2019-10-21_16h50.11.527,SurveyExpMetaMem,3.2.3,MacIntel,60
,,,,,,,,,,,,,,,,,,,,5,1.657999992,2,0.792999983,1,0,1200,1059,1,1199,harsh,11127,2019-10-21_16h50.11.527,SurveyExpMetaMem,3.2.3,MacIntel,60
,,,,,,,,,,,,,,,,,,,,8,1.59100008,3,0.510999918,1,0,1200,1029,1,1199,abduction,11127,2019-10-21_16h50.11.527,SurveyExpMetaMem,3.2.3,MacIntel,60
,,,,,,,,,,,,,,,,,,,,1,2.522000074,7,4.655999899,1,0,1200,744,1,1199,village,11127,2019-10-21_16h50.11.527,SurveyExpMetaMem,3.2.3,MacIntel,60
,,,,,,,,,,,,,,,,,,,,2,19.29999995,8,0.8349998,1,0,1200,845,1,1199,honey,11127,2019-10-21_16h50.11.527,SurveyExpMetaMem,3.2.3,MacIntel,60
,,,,,,,,,,,,,,,,,,,,5,1.469000101,5,0.43599987,1,0,1200,434,1,1199,frail,11127,2019-10-21_16h50.11.527,SurveyExpMetaMem,3.2.3,MacIntel,60
,,,,,,,,,,,,,,,,,,,,8,1.157999992,2,1.092999935,1,0,1200,1023,1,1199,disorder,11127,2019-10-21_16h50.11.527,SurveyExpMetaMem,3.2.3,MacIntel,60
,,,,,,,,,,,,,,,,,,,,5,13.62999988,5,0.203999996,1,0,1200,684,1,1199,send,11127,2019-10-21_16h50.11.527,SurveyExpMetaMem,3.2.3,MacIntel,60
,,,,,,,,,,,,,,,,,,,,5,21.7809999,5,0.170000076,1,0,1200,404,1,1199,nuisance,11127,2019-10-21_16h50.11.527,SurveyExpMetaMem,3.2.3,MacIntel,60
,,,,,,,,,,,,,,,,,,,,8,11.39400005,8,12.39700007,1,0,1200,115,1,1199,sexual,11127,2019-10-21_16h50.11.527,SurveyExpMetaMem,3.2.3,MacIntel,60
,,,,,,,,,,,,,,,,,,,,8,11.8210001,8,1.858999968,1,0,1200,1198,1,1199,lightning,11127,2019-10-21_16h50.11.527,SurveyExpMetaMem,3.2.3,MacIntel,60
,,,,,,,,,,,,,,,,,,,,5,35.03500009,8,7.492000103,1,0,1200,48,1,1199,excellence,11127,2019-10-21_16h50.11.527,SurveyExpMetaMem,3.2.3,MacIntel,60
,,,,,,,,,,,,,,,,,,,,7,1.621000051,2,1.789000034,1,0,1200,1086,1,1199,irritate,11127,2019-10-21_16h50.11.527,SurveyExpMetaMem,3.2.3,MacIntel,60
,,,,,,,,,,,,,,,,,,,,2,2.904999971,7,0.805999994,1,0,1200,121,1,1199,self,11127,2019-10-21_16h50.11.527,SurveyExpMetaMem,3.2.3,MacIntel,60
,,,,,,,,,,,,,,,,,,,,2,1.439999819,8,0.811999798,1,0,1200,829,1,1199,innocent,11127,2019-10-21_16h50.11.527,SurveyExpMetaMem,3.2.3,MacIntel,60
,,,,,,,,,,,,,,,,,,,,7,0.007999897,5,3.208999872,1,0,1200,548,1,1199,vague,11127,2019-10-21_16h50.11.527,SurveyExpMetaMem,3.2.3,MacIntel,60
,,,,,,,,,,,,,,,,,,,,3,2.24000001,9,130.839,1,0,1200,219,1,1199,know,11127,2019-10-21_16h50.11.527,SurveyExpMetaMem,3.2.3,MacIntel,60
,,,,,,,,,,,,,,,,,,,,9,1.223999977,9,0.494999886,1,0,1200,54,1,1199,alcohol,11127,2019-10-21_16h50.11.527,SurveyExpMetaMem,3.2.3,MacIntel,60
,,,,,,,,,,,,,,,,,,,,2,3.220999718,2,0.878000021,1,0,1200,324,1,1199,inferiority,11127,2019-10-21_16h50.11.527,SurveyExpMetaMem,3.2.3,MacIntel,60
,,,,,,,,,,,,,,,,,,,,2,6.990999937,3,0.822999716,1,0,1200,536,1,1199,vacant,11127,2019-10-21_16h50.11.527,SurveyExpMetaMem,3.2.3,MacIntel,60
,,,,,,,,,,,,,,,,,,,,5,2.110000134,5,0.187999964,1,0,1200,659,1,1199,hair,11127,2019-10-21_16h50.11.527,SurveyExpMetaMem,3.2.3,MacIntel,60
,,,,,,,,,,,,,,,,,,,,8,1.270999908,2,0.378999949,1,0,1200,1056,1,1199,crime,11127,2019-10-21_16h50.11.527,SurveyExpMetaMem,3.2.3,MacIntel,60
,,,,,,,,,,,,,,,,,,,,8,0.968999863,7,0.672999859,1,0,1200,136,1,1199,dog,11127,2019-10-21_16h50.11.527,SurveyExpMetaMem,3.2.3,MacIntel,60
,,,,,,,,,,,,,,,,,,,,2,2.120999813,2,1.006000042,1,0,1200,559,1,1199,lazy,11127,2019-10-21_16h50.11.527,SurveyExpMetaMem,3.2.3,MacIntel,60
,,,,,,,,,,,,,,,,,,,,8,37.68499994,7,0.953999996,1,0,1200,227,1,1199,musician,11127,2019-10-21_16h50.11.527,SurveyExpMetaMem,3.2.3,MacIntel,60
,,,,,,,,,,,,,,,,,,,,5,1.268999815,5,0.169000149,1,0,1200,785,1,1199,pond,11127,2019-10-21_16h50.11.527,SurveyExpMetaMem,3.2.3,MacIntel,60
,,,,,,,,,,,,,,,,,,,,8,1.15199995,9,0.988999844,1,0,1200,420,1,1199,smoke,11127,2019-10-21_16h50.11.527,SurveyExpMetaMem,3.2.3,MacIntel,60
,,,,,,,,,,,,,,,,,,,,2,5.553999901,2,0.65199995,1,0,1200,473,1,1199,senseless,11127,2019-10-21_16h50.11.527,SurveyExpMetaMem,3.2.3,MacIntel,60
,,,,,,,,,,,,,,,,,,,,8,1.368000031,7,0.653999805,1,0,1200,210,1,1199,elephant,11127,2019-10-21_16h50.11.527,SurveyExpMetaMem,3.2.3,MacIntel,60
,,,,,,,,,,,,,,,,,,,,5,1.583999872,5,0.197999954,1,0,1200,520,1,1199,gullible,11127,2019-10-21_16h50.11.527,SurveyExpMetaMem,3.2.3,MacIntel,60
,,,,,,,,,,,,,,,,,,,,8,1.55099988,6,0.836999893,1,0,1200,1063,1,1199,quarrel,11127,2019-10-21_16h50.11.527,SurveyExpMetaMem,3.2.3,MacIntel,60
,,,,,,,,,,,,,,,,,,,,5,2.369999886,6,0.984999895,1,0,1200,869,1,1199,assure,11127,2019-10-21_16h50.11.527,SurveyExpMetaMem,3.2.3,MacIntel,60
,,,,,,,,,,,,,,,,,,,,7,3.051999807,5,1.338999987,1,0,1200,482,1,1199,cell,11127,2019-10-21_16h50.11.527,SurveyExpMetaMem,3.2.3,MacIntel,60
,,,,,,,,,,,,,,,,,,,,5,1.616999865,5,0.42599988,1,0,1200,357,1,1199,whine,11127,2019-10-21_16h50.11.527,SurveyExpMetaMem,3.2.3,MacIntel,60
,,,,,,,,,,,,,,,,,,,,2,2.602999926,8,0.75999999,1,0,1200,218,1,1199,charming,11127,2019-10-21_16h50.11.527,SurveyExpMetaMem,3.2.3,MacIntel,60
,,,,,,,,,,,,,,,,,,,,1,41.48599982,1,0.588999987,1,0,1200,534,1,1199,rules,11127,2019-10-21_16h50.11.527,SurveyExpMetaMem,3.2.3,MacIntel,60
,,,,,,,,,,,,,,,,,,,,2,0.041999817,5,1.969000101,1,0,1200,545,1,1199,tar,11127,2019-10-21_16h50.11.527,SurveyExpMetaMem,3.2.3,MacIntel,60
,,,,,,,,,,,,,,,,,,,,5,18.05699992,5,0.336999893,1,0,1200,376,1,1199,incompetent,11127,2019-10-21_16h50.11.527,SurveyExpMetaMem,3.2.3,MacIntel,60
,,,,,,,,,,,,,,,,,,,,5,1.361999989,5,0.390000105,1,0,1200,757,1,1199,sentiment,11127,2019-10-21_16h50.11.527,SurveyExpMetaMem,3.2.3,MacIntel,60
,,,,,,,,,,,,,,,,,,,,6,1.173999786,8,0.557999849,1,0,1200,75,1,1199,actor,11127,2019-10-21_16h50.11.527,SurveyExpMetaMem,3.2.3,MacIntel,60
,,,,,,,,,,,,,,,,,,,,8,1.103999853,9,0.862999916,1,0,1200,274,1,1199,song,11127,2019-10-21_16h50.11.527,SurveyExpMetaMem,3.2.3,MacIntel,60
,,,,,,,,,,,,,,,,,,,,1,1.757999897,5,2.188999891,1,0,1200,753,1,1199,patience,11127,2019-10-21_16h50.11.527,SurveyExpMetaMem,3.2.3,MacIntel,60
,,,,,,,,,,,,,,,,,,,,8,1.471999884,2,0.605999947,1,0,1200,981,1,1199,rage,11127,2019-10-21_16h50.11.527,SurveyExpMetaMem,3.2.3,MacIntel,60
,,,,,,,,,,,,,,,,,,,,6,2.007999897,4,0.306999922,1,0,1200,259,1,1199,thin,11127,2019-10-21_16h50.11.527,SurveyExpMetaMem,3.2.3,MacIntel,60
,,,,,,,,,,,,,,,,,,,,7,3.287999868,8,0.403999805,1,0,1200,99,1,1199,funny,11127,2019-10-21_16h50.11.527,SurveyExpMetaMem,3.2.3,MacIntel,60
,,,,,,,,,,,,,,,,,,,,2,2.258999825,1,0.628000021,1,0,1200,310,1,1199,lonely,11127,2019-10-21_16h50.11.527,SurveyExpMetaMem,3.2.3,MacIntel,60
,,,,,,,,,,,,,,,,,,,,5,1.703999996,5,0.29399991,1,0,1200,450,1,1199,overcast,11127,2019-10-21_16h50.11.527,SurveyExpMetaMem,3.2.3,MacIntel,60
,,,,,,,,,,,,,,,,,,,,8,1.671000004,2,0.888999939,1,0,1200,999,1,1199,burdened,11127,2019-10-21_16h50.11.527,SurveyExpMetaMem,3.2.3,MacIntel,60
,,,,,,,,,,,,,,,,,,,,1,1.270999908,7,0.721999884,1,0,1200,733,1,1199,poetry,11127,2019-10-21_16h50.11.527,SurveyExpMetaMem,3.2.3,MacIntel,60
,,,,,,,,,,,,,,,,,,,,5,1.574999809,5,0.274999857,1,0,1200,600,1,1199,parlor,11127,2019-10-21_16h50.11.527,SurveyExpMetaMem,3.2.3,MacIntel,60
,,,,,,,,,,,,,,,,,,,,2,1.638000011,2,1.142999887,1,0,1200,326,1,1199,scam,11127,2019-10-21_16h50.11.527,SurveyExpMetaMem,3.2.3,MacIntel,60
,,,,,,,,,,,,,,,,,,,,8,1.623000145,3,0.892999887,1,0,1200,207,1,1199,erect,11127,2019-10-21_16h50.11.527,SurveyExpMetaMem,3.2.3,MacIntel,60
,,,,,,,,,,,,,,,,,,,,8,3.961999893,5,1.181999922,1,0,1200,1117,1,1199,court,11127,2019-10-21_16h50.11.527,SurveyExpMetaMem,3.2.3,MacIntel,60
,,,,,,,,,,,,,,,,,,,,8,3.707000017,8,0.842000008,1,0,1200,179,1,1199,star,11127,2019-10-21_16h50.11.527,SurveyExpMetaMem,3.2.3,MacIntel,60
,,,,,,,,,,,,,,,,,,,,9,1.541999817,9,0.717999935,1,0,1200,500,1,1199,nosey,11127,2019-10-21_16h50.11.527,SurveyExpMetaMem,3.2.3,MacIntel,60
,,,,,,,,,,,,,,,,,,,,5,1.329999924,5,0.569999933,1,0,1200,163,1,1199,gem,11127,2019-10-21_16h50.11.527,SurveyExpMetaMem,3.2.3,MacIntel,60
,,,,,,,,,,,,,,,,,,,,5,7.143000126,5,0.15199995,1,0,1200,966,1,1199,regretful,11127,2019-10-21_16h50.11.527,SurveyExpMetaMem,3.2.3,MacIntel,60
,,,,,,,,,,,,,,,,,,,,7,1.416000128,2,0.595999956,1,0,1200,46,1,1199,god,11127,2019-10-21_16h50.11.527,SurveyExpMetaMem,3.2.3,MacIntel,60
,,,,,,,,,,,,,,,,,,,,5,38.21699977,5,0.204999924,1,0,1200,655,1,1199,name,11127,2019-10-21_16h50.11.527,SurveyExpMetaMem,3.2.3,MacIntel,60
,,,,,,,,,,,,,,,,,,,,7,10.65499997,8,0.92599988,1,0,1200,538,1,1199,crumbs,11127,2019-10-21_16h50.11.527,SurveyExpMetaMem,3.2.3,MacIntel,60
,,,,,,,,,,,,,,,,,,,,5,1.194000006,5,0.237999916,1,0,1200,331,1,1199,casket,11127,2019-10-21_16h50.11.527,SurveyExpMetaMem,3.2.3,MacIntel,60
,,,,,,,,,,,,,,,,,,,,8,1.375999928,6,1.027999878,1,0,1200,158,1,1199,engage,11127,2019-10-21_16h50.11.527,SurveyExpMetaMem,3.2.3,MacIntel,60
,,,,,,,,,,,,,,,,,,,,8,2.751999855,5,1.855999708,1,0,1200,654,1,1199,brief,11127,2019-10-21_16h50.11.527,SurveyExpMetaMem,3.2.3,MacIntel,60
,,,,,,,,,,,,,,,,,,,,8,2.138999939,2,0.638999939,1,0,1200,1145,1,1199,officer,11127,2019-10-21_16h50.11.527,SurveyExpMetaMem,3.2.3,MacIntel,60
,,,,,,,,,,,,,,,,,,,,2,1.819000006,2,0.569999933,1,0,1200,344,1,1199,pessimistic,11127,2019-10-21_16h50.11.527,SurveyExpMetaMem,3.2.3,MacIntel,60
,,,,,,,,,,,,,,,,,,,,5,1.736000061,5,0.215999842,1,0,1200,14,1,1199,attain,11127,2019-10-21_16h50.11.527,SurveyExpMetaMem,3.2.3,MacIntel,60
,,,,,,,,,,,,,,,,,,,,8,1.385999918,2,0.305999994,1,0,1200,987,1,1199,disgusted,11127,2019-10-21_16h50.11.527,SurveyExpMetaMem,3.2.3,MacIntel,60
,,,,,,,,,,,,,,,,,,,,5,2.374999762,5,0.154999971,1,0,1200,379,1,1199,slob,11127,2019-10-21_16h50.11.527,SurveyExpMetaMem,3.2.3,MacIntel,60
,,,,,,,,,,,,,,,,,,,,2,1.901000023,7,0.649999857,1,0,1200,182,1,1199,genius,11127,2019-10-21_16h50.11.527,SurveyExpMetaMem,3.2.3,MacIntel,60
,,,,,,,,,,,,,,,,,,,,5,1.351000071,5,0.179999828,1,0,1200,532,1,1199,recede,11127,2019-10-21_16h50.11.527,SurveyExpMetaMem,3.2.3,MacIntel,60
,,,,,,,,,,,,,,,,,,,,7,3.789000034,8,0.381999731,1,0,1200,124,1,1199,honeymoon,11127,2019-10-21_16h50.11.527,SurveyExpMetaMem,3.2.3,MacIntel,60
,,,,,,,,,,,,,,,,,,,,1,3.374000072,7,1.447999954,1,0,1200,847,1,1199,moon,11127,2019-10-21_16h50.11.527,SurveyExpMetaMem,3.2.3,MacIntel,60
,,,,,,,,,,,,,,,,,,,,8,1.621999741,2,0.553999901,1,0,1200,770,1,1199,buffalo,11127,2019-10-21_16h50.11.527,SurveyExpMetaMem,3.2.3,MacIntel,60
,,,,,,,,,,,,,,,,,,,,9,1.90199995,1,0.291999817,1,0,1200,901,1,1199,rape,11127,2019-10-21_16h50.11.527,SurveyExpMetaMem,3.2.3,MacIntel,60
,,,,,,,,,,,,,,,,,,,,9,1.309999943,1,0.306999922,1,0,1200,929,1,1199,mutilation,11127,2019-10-21_16h50.11.527,SurveyExpMetaMem,3.2.3,MacIntel,60
,,,,,,,,,,,,,,,,,,,,9,2.18599987,3,1.069999695,1,0,1200,599,1,1199,obstinate,11127,2019-10-21_16h50.11.527,SurveyExpMetaMem,3.2.3,MacIntel,60
,,,,,,,,,,,,,,,,,,,,8,1.868999958,7,0.718999863,1,0,1200,44,1,1199,diploma,11127,2019-10-21_16h50.11.527,SurveyExpMetaMem,3.2.3,MacIntel,60
,,,,,,,,,,,,,,,,,,,,5,2.727999926,5,0.203000069,1,0,1200,616,1,1199,coat,11127,2019-10-21_16h50.11.527,SurveyExpMetaMem,3.2.3,MacIntel,60
,,,,,,,,,,,,,,,,,,,,8,3.552000046,7,0.385999918,1,0,1200,287,1,1199,optimistic,11127,2019-10-21_16h50.11.527,SurveyExpMetaMem,3.2.3,MacIntel,60
,,,,,,,,,,,,,,,,,,,,4,2.303999901,6,0.174000025,1,0,1200,474,1,1199,weary,11127,2019-10-21_16h50.11.527,SurveyExpMetaMem,3.2.3,MacIntel,60
,,,,,,,,,,,,,,,,,,,,5,22.40499997,4,1.053999901,1,0,1200,107,1,1199,sandwich,11127,2019-10-21_16h50.11.527,SurveyExpMetaMem,3.2.3,MacIntel,60
,,,,,,,,,,,,,,,,,,,,7,8.761999846,8,1.115999937,1,0,1200,100,1,1199,intense,11127,2019-10-21_16h50.11.527,SurveyExpMetaMem,3.2.3,MacIntel,60
,,,,,,,,,,,,,,,,,,,,5,1.459000111,5,0.464999914,1,0,1200,508,1,1199,haphazard,11127,2019-10-21_16h50.11.527,SurveyExpMetaMem,3.2.3,MacIntel,60
,,,,,,,,,,,,,,,,,,,,8,1.210999727,2,0.481999874,1,0,1200,979,1,1199,harassment,11127,2019-10-21_16h50.11.527,SurveyExpMetaMem,3.2.3,MacIntel,60
,,,,,,,,,,,,,,,,,,,,7,1.486999989,3,0.39199996,1,0,1200,18,1,1199,mail,11127,2019-10-21_16h50.11.527,SurveyExpMetaMem,3.2.3,MacIntel,60
,,,,,,,,,,,,,,,,,,,,5,1.22699976,5,0.211999893,1,0,1200,468,1,1199,noose,11127,2019-10-21_16h50.11.527,SurveyExpMetaMem,3.2.3,MacIntel,60
,,,,,,,,,,,,,,,,,,,,2,2.350999832,2,0.537999868,1,0,1200,414,1,1199,pity,11127,2019-10-21_16h50.11.527,SurveyExpMetaMem,3.2.3,MacIntel,60
,,,,,,,,,,,,,,,,,,,,8,1.564999819,9,0.332999945,1,0,1200,59,1,1199,sports,11127,2019-10-21_16h50.11.527,SurveyExpMetaMem,3.2.3,MacIntel,60
,,,,,,,,,,,,,,,,,,,,6,2.036999702,4,0.18599987,1,0,1200,690,1,1199,similar,11127,2019-10-21_16h50.11.527,SurveyExpMetaMem,3.2.3,MacIntel,60
,,,,,,,,,,,,,,,,,,,,7,6.635999918,2,0.618999958,1,0,1200,1077,1,1199,unsure,11127,2019-10-21_16h50.11.527,SurveyExpMetaMem,3.2.3,MacIntel,60
,,,,,,,,,,,,,,,,,,,,3,0.004999876,7,1.868999958,1,0,1200,729,1,1199,velvet,11127,2019-10-21_16h50.11.527,SurveyExpMetaMem,3.2.3,MacIntel,60
,,,,,,,,,,,,,,,,,,,,3,5.236000061,8,0.214999914,1,0,1200,579,1,1199,bus,11127,2019-10-21_16h50.11.527,SurveyExpMetaMem,3.2.3,MacIntel,60
,,,,,,,,,,,,,,,,,,,,4,1.085999966,7,0.405999899,1,0,1200,525,1,1199,stagnant,11127,2019-10-21_16h50.11.527,SurveyExpMetaMem,3.2.3,MacIntel,60
,,,,,,,,,,,,,,,,,,,,6,1.181999922,8,246.1079998,1,0,1200,738,1,1199,horse,11127,2019-10-21_16h50.11.527,SurveyExpMetaMem,3.2.3,MacIntel,60
,,,,,,,,,,,,,,,,,,,,8,0.318999767,8,2.625999928,1,0,1200,294,1,1199,confident,11127,2019-10-21_16h50.11.527,SurveyExpMetaMem,3.2.3,MacIntel,60
,,,,,,,,,,,,,,,,,,,,8,1.286999941,3,0.664000034,1,0,1200,1189,1,1199,lava,11127,2019-10-21_16h50.11.527,SurveyExpMetaMem,3.2.3,MacIntel,60
,,,,,,,,,,,,,,,,,,,,2,2.264999866,5,2.088999748,1,0,1200,189,1,1199,thoughtful,11127,2019-10-21_16h50.11.527,SurveyExpMetaMem,3.2.3,MacIntel,60
,,,,,,,,,,,,,,,,,,,,5,3.938999891,5,0.214999914,1,0,1200,603,1,1199,mane,11127,2019-10-21_16h50.11.527,SurveyExpMetaMem,3.2.3,MacIntel,60
,,,,,,,,,,,,,,,,,,,,1,4.357999802,8,0.888000011,1,0,1200,819,1,1199,sheep,11127,2019-10-21_16h50.11.527,SurveyExpMetaMem,3.2.3,MacIntel,60
,,,,,,,,,,,,,,,,,,,,7,49.41699982,3,0.503000021,1,0,1200,971,1,1199,crash,11127,2019-10-21_16h50.11.527,SurveyExpMetaMem,3.2.3,MacIntel,60
,,,,,,,,,,,,,,,,,,,,7,2.27699995,5,0.771000147,1,0,1200,181,1,1199,fascinate,11127,2019-10-21_16h50.11.527,SurveyExpMetaMem,3.2.3,MacIntel,60
,,,,,,,,,,,,,,,,,,,,8,1.872999907,3,0.536999941,1,0,1200,1143,1,1199,arrogant,11127,2019-10-21_16h50.11.527,SurveyExpMetaMem,3.2.3,MacIntel,60
,,,,,,,,,,,,,,,,,,,,1,1.829999924,8,0.657999992,1,0,1200,706,1,1199,cat,11127,2019-10-21_16h50.11.527,SurveyExpMetaMem,3.2.3,MacIntel,60
,,,,,,,,,,,,,,,,,,,,7,1.787999868,2,1.539999723,1,0,1200,303,1,1199,death,11127,2019-10-21_16h50.11.527,SurveyExpMetaMem,3.2.3,MacIntel,60
,,,,,,,,,,,,,,,,,,,,7,27.43499994,7,0.803999901,1,0,1200,291,1,1199,fantastic,11127,2019-10-21_16h50.11.527,SurveyExpMetaMem,3.2.3,MacIntel,60
,,,,,,,,,,,,,,,,,,,,8,48.38599992,5,0.536000013,1,0,1200,1165,1,1199,revolt,11127,2019-10-21_16h50.11.527,SurveyExpMetaMem,3.2.3,MacIntel,60
,,,,,,,,,,,,,,,,,,,,7,34.70799994,2,2.028000116,1,0,1200,766,1,1199,flag,11127,2019-10-21_16h50.11.527,SurveyExpMetaMem,3.2.3,MacIntel,60
,,,,,,,,,,,,,,,,,,,,6,10.50600004,9,1.122999907,1,0,1200,692,1,1199,medicine,11127,2019-10-21_16h50.11.527,SurveyExpMetaMem,3.2.3,MacIntel,60
,,,,,,,,,,,,,,,,,,,,7,3.840999842,7,1.138000011,1,0,1200,30,1,1199,impressed,11127,2019-10-21_16h50.11.527,SurveyExpMetaMem,3.2.3,MacIntel,60
,,,,,,,,,,,,,,,,,,,,5,2.532999992,5,0.204999924,1,0,1200,672,1,1199,ketchup,11127,2019-10-21_16h50.11.527,SurveyExpMetaMem,3.2.3,MacIntel,60
,,,,,,,,,,,,,,,,,,,,7,60.56299996,7,0.181999922,1,0,1200,204,1,1199,crazy,11127,2019-10-21_16h50.11.527,SurveyExpMetaMem,3.2.3,MacIntel,60
