mouse_4.x,mouse_4.y,mouse_4.leftButton,mouse_4.midButton,mouse_4.rightButton,mouse.x,mouse.y,mouse.leftButton,mouse.midButton,mouse.rightButton,mouse_2.x,mouse_2.y,mouse_2.leftButton,mouse_2.midButton,mouse_2.rightButton,mouse_3.x,mouse_3.y,mouse_3.leftButton,mouse_3.midButton,mouse_3.rightButton,A_key_resp.keys,A_key_resp.rt,key_resp.keys,key_resp.rt,trials.thisRepN,trials.thisTrialN,trials.thisN,trials.thisIndex,trials.ran,trials.order,word,ParticipantID,date,expName,psychopyVersion,OS,frameRate
-0.106481402,0.013888874,1,0,0,-0.317592576,-0.245370393,1,0,0,0.326851888,-0.173148168,1,0,0,0.326851888,-0.173148168,1,0,0,5,10.8440001,4,12.20799994,1,0,1200,1064,1,1199,sinful,11141,2019-10-21_21h59.10.007,SurveyExpMetaMem,3.2.3,Win32,60
,,,,,,,,,,,,,,,,,,,,5,4.664999962,6,1.927999973,1,0,1200,671,1,1199,windmill,11141,2019-10-21_21h59.10.007,SurveyExpMetaMem,3.2.3,Win32,60
,,,,,,,,,,,,,,,,,,,,7,8.394999981,3,2.318000078,1,0,1200,1092,1,1199,rattlesnake,11141,2019-10-21_21h59.10.007,SurveyExpMetaMem,3.2.3,Win32,60
,,,,,,,,,,,,,,,,,,,,5,8.277999878,5,0.213000059,1,0,1200,312,1,1199,stench,11141,2019-10-21_21h59.10.007,SurveyExpMetaMem,3.2.3,Win32,60
,,,,,,,,,,,,,,,,,,,,7,4.190000057,8,1.73300004,1,0,1200,236,1,1199,amaze,11141,2019-10-21_21h59.10.007,SurveyExpMetaMem,3.2.3,Win32,60
,,,,,,,,,,,,,,,,,,,,8,3.725999832,5,4.857000113,1,0,1200,1151,1,1199,drama,11141,2019-10-21_21h59.10.007,SurveyExpMetaMem,3.2.3,Win32,60
,,,,,,,,,,,,,,,,,,,,8,2.726999998,9,1.835000038,1,0,1200,146,1,1199,congratulations,11141,2019-10-21_21h59.10.007,SurveyExpMetaMem,3.2.3,Win32,60
,,,,,,,,,,,,,,,,,,,,2,3.674000025,3,1.967999935,1,0,1200,475,1,1199,nameless,11141,2019-10-21_21h59.10.007,SurveyExpMetaMem,3.2.3,Win32,60
,,,,,,,,,,,,,,,,,,,,5,6.498999834,8,1.71999979,1,0,1200,124,1,1199,honeymoon,11141,2019-10-21_21h59.10.007,SurveyExpMetaMem,3.2.3,Win32,60
,,,,,,,,,,,,,,,,,,,,6,5.402000189,5,2.460999966,1,0,1200,700,1,1199,frog,11141,2019-10-21_21h59.10.007,SurveyExpMetaMem,3.2.3,Win32,60
,,,,,,,,,,,,,,,,,,,,5,3.813999891,5,0.802999973,1,0,1200,212,1,1199,belief,11141,2019-10-21_21h59.10.007,SurveyExpMetaMem,3.2.3,Win32,60
,,,,,,,,,,,,,,,,,,,,4,2.61500001,7,1.994999886,1,0,1200,31,1,1199,brownie,11141,2019-10-21_21h59.10.007,SurveyExpMetaMem,3.2.3,Win32,60
,,,,,,,,,,,,,,,,,,,,5,2.993999958,5,0.39199996,1,0,1200,325,1,1199,disability,11141,2019-10-21_21h59.10.007,SurveyExpMetaMem,3.2.3,Win32,60
,,,,,,,,,,,,,,,,,,,,2,3.996000051,2,2.963999987,1,0,1200,355,1,1199,graveyard,11141,2019-10-21_21h59.10.007,SurveyExpMetaMem,3.2.3,Win32,60
,,,,,,,,,,,,,,,,,,,,8,2.850999832,9,2.303000212,1,0,1200,287,1,1199,optimistic,11141,2019-10-21_21h59.10.007,SurveyExpMetaMem,3.2.3,Win32,60
,,,,,,,,,,,,,,,,,,,,7,3.353000164,9,1.237999916,1,0,1200,47,1,1199,enjoy,11141,2019-10-21_21h59.10.007,SurveyExpMetaMem,3.2.3,Win32,60
,,,,,,,,,,,,,,,,,,,,6,4.998000145,7,1.357000113,1,0,1200,224,1,1199,strengthen,11141,2019-10-21_21h59.10.007,SurveyExpMetaMem,3.2.3,Win32,60
,,,,,,,,,,,,,,,,,,,,3,2.976999998,7,3.963999987,1,0,1200,894,1,1199,sunset,11141,2019-10-21_21h59.10.007,SurveyExpMetaMem,3.2.3,Win32,60
,,,,,,,,,,,,,,,,,,,,5,2.049000025,5,0.236000061,1,0,1200,935,1,1199,despise,11141,2019-10-21_21h59.10.007,SurveyExpMetaMem,3.2.3,Win32,60
,,,,,,,,,,,,,,,,,,,,5,2.116000175,5,0.203999996,1,0,1200,418,1,1199,cheapskate,11141,2019-10-21_21h59.10.007,SurveyExpMetaMem,3.2.3,Win32,60
,,,,,,,,,,,,,,,,,,,,5,2.375999928,5,0.246999979,1,0,1200,865,1,1199,bliss,11141,2019-10-21_21h59.10.007,SurveyExpMetaMem,3.2.3,Win32,60
,,,,,,,,,,,,,,,,,,,,5,2.941999912,7,1.417999983,1,0,1200,245,1,1199,beach,11141,2019-10-21_21h59.10.007,SurveyExpMetaMem,3.2.3,Win32,60
,,,,,,,,,,,,,,,,,,,,5,2.621999979,5,0.503000021,1,0,1200,469,1,1199,resent,11141,2019-10-21_21h59.10.007,SurveyExpMetaMem,3.2.3,Win32,60
,,,,,,,,,,,,,,,,,,,,4,4.325000048,7,2.111000061,1,0,1200,210,1,1199,elephant,11141,2019-10-21_21h59.10.007,SurveyExpMetaMem,3.2.3,Win32,60
,,,,,,,,,,,,,,,,,,,,7,3.43599987,7,0.546999931,1,0,1200,851,1,1199,cool,11141,2019-10-21_21h59.10.007,SurveyExpMetaMem,3.2.3,Win32,60
,,,,,,,,,,,,,,,,,,,,6,4.608999968,3,1.411000013,1,0,1200,1082,1,1199,hazard,11141,2019-10-21_21h59.10.007,SurveyExpMetaMem,3.2.3,Win32,60
,,,,,,,,,,,,,,,,,,,,6,3.255000114,2,1.279999971,1,0,1200,1073,1,1199,bitch,11141,2019-10-21_21h59.10.007,SurveyExpMetaMem,3.2.3,Win32,60
,,,,,,,,,,,,,,,,,,,,5,2.582000017,4,3.766000032,1,0,1200,1186,1,1199,goddamn,11141,2019-10-21_21h59.10.007,SurveyExpMetaMem,3.2.3,Win32,60
,,,,,,,,,,,,,,,,,,,,5,1.618000031,3,1.769000053,1,0,1200,1027,1,1199,criticism,11141,2019-10-21_21h59.10.007,SurveyExpMetaMem,3.2.3,Win32,60
,,,,,,,,,,,,,,,,,,,,5,1.52699995,5,1.375,1,0,1200,410,1,1199,tarnish,11141,2019-10-21_21h59.10.007,SurveyExpMetaMem,3.2.3,Win32,60
,,,,,,,,,,,,,,,,,,,,5,2.132999897,5,0.970000029,1,0,1200,786,1,1199,afternoon,11141,2019-10-21_21h59.10.007,SurveyExpMetaMem,3.2.3,Win32,60
,,,,,,,,,,,,,,,,,,,,5,4.356999874,4,0.362999916,1,0,1200,154,1,1199,race,11141,2019-10-21_21h59.10.007,SurveyExpMetaMem,3.2.3,Win32,60
,,,,,,,,,,,,,,,,,,,,5,1.683000088,4,0.291000128,1,0,1200,1111,1,1199,bruise,11141,2019-10-21_21h59.10.007,SurveyExpMetaMem,3.2.3,Win32,60
,,,,,,,,,,,,,,,,,,,,5,9.679000139,5,0.303999901,1,0,1200,1135,1,1199,thirsty,11141,2019-10-21_21h59.10.007,SurveyExpMetaMem,3.2.3,Win32,60
,,,,,,,,,,,,,,,,,,,,5,1.251000166,4,0.368000031,1,0,1200,923,1,1199,punish,11141,2019-10-21_21h59.10.007,SurveyExpMetaMem,3.2.3,Win32,60
,,,,,,,,,,,,,,,,,,,,5,3.42599988,5,0.280999899,1,0,1200,605,1,1199,year,11141,2019-10-21_21h59.10.007,SurveyExpMetaMem,3.2.3,Win32,60
,,,,,,,,,,,,,,,,,,,,5,2.250999928,4,3.52699995,1,0,1200,533,1,1199,busy,11141,2019-10-21_21h59.10.007,SurveyExpMetaMem,3.2.3,Win32,60
,,,,,,,,,,,,,,,,,,,,5,2.062000036,5,0.440999985,1,0,1200,157,1,1199,reveal,11141,2019-10-21_21h59.10.007,SurveyExpMetaMem,3.2.3,Win32,60
,,,,,,,,,,,,,,,,,,,,5,2.095999956,5,0.252000093,1,0,1200,651,1,1199,bathroom,11141,2019-10-21_21h59.10.007,SurveyExpMetaMem,3.2.3,Win32,60
,,,,,,,,,,,,,,,,,,,,7,3.424999952,8,2.151000023,1,0,1200,88,1,1199,ambitious,11141,2019-10-21_21h59.10.007,SurveyExpMetaMem,3.2.3,Win32,60
,,,,,,,,,,,,,,,,,,,,4,2.860000134,3,0.468999863,1,0,1200,337,1,1199,stinks,11141,2019-10-21_21h59.10.007,SurveyExpMetaMem,3.2.3,Win32,60
,,,,,,,,,,,,,,,,,,,,5,2.77699995,3,0.861999989,1,0,1200,1146,1,1199,bug,11141,2019-10-21_21h59.10.007,SurveyExpMetaMem,3.2.3,Win32,60
,,,,,,,,,,,,,,,,,,,,5,2.362999916,5,0.39199996,1,0,1200,349,1,1199,mope,11141,2019-10-21_21h59.10.007,SurveyExpMetaMem,3.2.3,Win32,60
,,,,,,,,,,,,,,,,,,,,5,1.852999926,5,0.304000139,1,0,1200,669,1,1199,plaza,11141,2019-10-21_21h59.10.007,SurveyExpMetaMem,3.2.3,Win32,60
,,,,,,,,,,,,,,,,,,,,5,3.302999973,6,0.405999899,1,0,1200,826,1,1199,poem,11141,2019-10-21_21h59.10.007,SurveyExpMetaMem,3.2.3,Win32,60
,,,,,,,,,,,,,,,,,,,,5,5.348999977,6,0.281000137,1,0,1200,48,1,1199,excellence,11141,2019-10-21_21h59.10.007,SurveyExpMetaMem,3.2.3,Win32,60
,,,,,,,,,,,,,,,,,,,,5,2.217999935,4,0.275000095,1,0,1200,320,1,1199,deformed,11141,2019-10-21_21h59.10.007,SurveyExpMetaMem,3.2.3,Win32,60
,,,,,,,,,,,,,,,,,,,,5,5.072000027,4,0.286000013,1,0,1200,371,1,1199,weakness,11141,2019-10-21_21h59.10.007,SurveyExpMetaMem,3.2.3,Win32,60
,,,,,,,,,,,,,,,,,,,,5,3.638000011,5,1.019000053,1,0,1200,413,1,1199,deficient,11141,2019-10-21_21h59.10.007,SurveyExpMetaMem,3.2.3,Win32,60
,,,,,,,,,,,,,,,,,,,,6,4.342999935,4,0.299999952,1,0,1200,52,1,1199,dare,11141,2019-10-21_21h59.10.007,SurveyExpMetaMem,3.2.3,Win32,60
,,,,,,,,,,,,,,,,,,,,7,3.353999853,7,1.696000099,1,0,1200,37,1,1199,magnificence,11141,2019-10-21_21h59.10.007,SurveyExpMetaMem,3.2.3,Win32,60
,,,,,,,,,,,,,,,,,,,,5,4.778999805,4,2.197999954,1,0,1200,467,1,1199,FALSE,11141,2019-10-21_21h59.10.007,SurveyExpMetaMem,3.2.3,Win32,60
,,,,,,,,,,,,,,,,,,,,5,5.309999943,5,1.17200017,1,0,1200,659,1,1199,hair,11141,2019-10-21_21h59.10.007,SurveyExpMetaMem,3.2.3,Win32,60
,,,,,,,,,,,,,,,,,,,,5,1.702000141,5,0.944999933,1,0,1200,350,1,1199,inadequate,11141,2019-10-21_21h59.10.007,SurveyExpMetaMem,3.2.3,Win32,60
,,,,,,,,,,,,,,,,,,,,6,5.996999979,5,2.757999897,1,0,1200,1189,1,1199,lava,11141,2019-10-21_21h59.10.007,SurveyExpMetaMem,3.2.3,Win32,60
,,,,,,,,,,,,,,,,,,,,8,2.885999918,4,2.207999945,1,0,1200,1099,1,1199,fire,11141,2019-10-21_21h59.10.007,SurveyExpMetaMem,3.2.3,Win32,60
,,,,,,,,,,,,,,,,,,,,5,2.637000084,4,0.310000181,1,0,1200,402,1,1199,dismissive,11141,2019-10-21_21h59.10.007,SurveyExpMetaMem,3.2.3,Win32,60
,,,,,,,,,,,,,,,,,,,,5,2.638999939,5,0.493999958,1,0,1200,862,1,1199,ease,11141,2019-10-21_21h59.10.007,SurveyExpMetaMem,3.2.3,Win32,60
,,,,,,,,,,,,,,,,,,,,5,3.690999985,5,0.322999954,1,0,1200,1166,1,1199,compulsive,11141,2019-10-21_21h59.10.007,SurveyExpMetaMem,3.2.3,Win32,60
,,,,,,,,,,,,,,,,,,,,5,1.267000198,4,0.299000025,1,0,1200,374,1,1199,sluggish,11141,2019-10-21_21h59.10.007,SurveyExpMetaMem,3.2.3,Win32,60
,,,,,,,,,,,,,,,,,,,,5,1.282999992,5,1.021000147,1,0,1200,614,1,1199,crossword,11141,2019-10-21_21h59.10.007,SurveyExpMetaMem,3.2.3,Win32,60
,,,,,,,,,,,,,,,,,,,,3,3.770999908,5,1.523000002,1,0,1200,628,1,1199,chess,11141,2019-10-21_21h59.10.007,SurveyExpMetaMem,3.2.3,Win32,60
,,,,,,,,,,,,,,,,,,,,5,3.080999851,3,1.302999973,1,0,1200,387,1,1199,tax,11141,2019-10-21_21h59.10.007,SurveyExpMetaMem,3.2.3,Win32,60
,,,,,,,,,,,,,,,,,,,,7,3.980000019,2,1.536000013,1,0,1200,346,1,1199,alcoholism,11141,2019-10-21_21h59.10.007,SurveyExpMetaMem,3.2.3,Win32,60
,,,,,,,,,,,,,,,,,,,,2,3.512000084,5,1.242999792,1,0,1200,664,1,1199,quiet,11141,2019-10-21_21h59.10.007,SurveyExpMetaMem,3.2.3,Win32,60
,,,,,,,,,,,,,,,,,,,,8,4.765000105,2,1.904999971,1,0,1200,1171,1,1199,chaos,11141,2019-10-21_21h59.10.007,SurveyExpMetaMem,3.2.3,Win32,60
,,,,,,,,,,,,,,,,,,,,5,6.21600008,5,1.154000044,1,0,1200,357,1,1199,whine,11141,2019-10-21_21h59.10.007,SurveyExpMetaMem,3.2.3,Win32,60
,,,,,,,,,,,,,,,,,,,,5,1.511000156,5,0.476000071,1,0,1200,155,1,1199,ignite,11141,2019-10-21_21h59.10.007,SurveyExpMetaMem,3.2.3,Win32,60
,,,,,,,,,,,,,,,,,,,,5,1.220000029,5,0.321000099,1,0,1200,219,1,1199,know,11141,2019-10-21_21h59.10.007,SurveyExpMetaMem,3.2.3,Win32,60
,,,,,,,,,,,,,,,,,,,,6,3.177000046,3,0.888999939,1,0,1200,955,1,1199,drown,11141,2019-10-21_21h59.10.007,SurveyExpMetaMem,3.2.3,Win32,60
,,,,,,,,,,,,,,,,,,,,5,4.151000023,4,0.213999987,1,0,1200,574,1,1199,distracted,11141,2019-10-21_21h59.10.007,SurveyExpMetaMem,3.2.3,Win32,60
,,,,,,,,,,,,,,,,,,,,5,1.552000046,4,1.207000017,1,0,1200,638,1,1199,quench,11141,2019-10-21_21h59.10.007,SurveyExpMetaMem,3.2.3,Win32,60
,,,,,,,,,,,,,,,,,,,,5,3.637000084,5,0.453999996,1,0,1200,777,1,1199,casual,11141,2019-10-21_21h59.10.007,SurveyExpMetaMem,3.2.3,Win32,60
,,,,,,,,,,,,,,,,,,,,4,6.404000044,3,3.022000074,1,0,1200,1038,1,1199,pervert,11141,2019-10-21_21h59.10.007,SurveyExpMetaMem,3.2.3,Win32,60
,,,,,,,,,,,,,,,,,,,,6,2.348999977,4,1.156000137,1,0,1200,978,1,1199,starving,11141,2019-10-21_21h59.10.007,SurveyExpMetaMem,3.2.3,Win32,60
,,,,,,,,,,,,,,,,,,,,7,2.63499999,4,0.409999847,1,0,1200,1013,1,1199,guilty,11141,2019-10-21_21h59.10.007,SurveyExpMetaMem,3.2.3,Win32,60
,,,,,,,,,,,,,,,,,,,,5,2.483999968,5,0.539999962,1,0,1200,547,1,1199,cellar,11141,2019-10-21_21h59.10.007,SurveyExpMetaMem,3.2.3,Win32,60
,,,,,,,,,,,,,,,,,,,,7,3.414999962,2,0.914999962,1,0,1200,1039,1,1199,stalk,11141,2019-10-21_21h59.10.007,SurveyExpMetaMem,3.2.3,Win32,60
,,,,,,,,,,,,,,,,,,,,6,4.052999973,8,1.114000082,1,0,1200,96,1,1199,joke,11141,2019-10-21_21h59.10.007,SurveyExpMetaMem,3.2.3,Win32,60
,,,,,,,,,,,,,,,,,,,,8,5.995999813,5,2.671000004,1,0,1200,1198,1,1199,lightning,11141,2019-10-21_21h59.10.007,SurveyExpMetaMem,3.2.3,Win32,60
,,,,,,,,,,,,,,,,,,,,5,2.523000002,5,0.40199995,1,0,1200,555,1,1199,school,11141,2019-10-21_21h59.10.007,SurveyExpMetaMem,3.2.3,Win32,60
,,,,,,,,,,,,,,,,,,,,6,4.036000013,3,1.134000063,1,0,1200,340,1,1199,coward,11141,2019-10-21_21h59.10.007,SurveyExpMetaMem,3.2.3,Win32,60
,,,,,,,,,,,,,,,,,,,,5,2.431999922,5,0.390000105,1,0,1200,861,1,1199,nectar,11141,2019-10-21_21h59.10.007,SurveyExpMetaMem,3.2.3,Win32,60
,,,,,,,,,,,,,,,,,,,,5,1.351000071,5,0.236999989,1,0,1200,1153,1,1199,mangle,11141,2019-10-21_21h59.10.007,SurveyExpMetaMem,3.2.3,Win32,60
,,,,,,,,,,,,,,,,,,,,5,3.299999952,5,0.262000084,1,0,1200,575,1,1199,paragraph,11141,2019-10-21_21h59.10.007,SurveyExpMetaMem,3.2.3,Win32,60
,,,,,,,,,,,,,,,,,,,,6,3.953999996,4,2.704999924,1,0,1200,1174,1,1199,beast,11141,2019-10-21_21h59.10.007,SurveyExpMetaMem,3.2.3,Win32,60
,,,,,,,,,,,,,,,,,,,,5,6.289000034,7,0.969000101,1,0,1200,284,1,1199,delight,11141,2019-10-21_21h59.10.007,SurveyExpMetaMem,3.2.3,Win32,60
,,,,,,,,,,,,,,,,,,,,8,3.448000193,8,0.518999815,1,0,1200,198,1,1199,comedy,11141,2019-10-21_21h59.10.007,SurveyExpMetaMem,3.2.3,Win32,60
,,,,,,,,,,,,,,,,,,,,8,3.506000042,8,2.282000065,1,0,1200,117,1,1199,powerful,11141,2019-10-21_21h59.10.007,SurveyExpMetaMem,3.2.3,Win32,60
,,,,,,,,,,,,,,,,,,,,5,6.589999914,5,0.77699995,1,0,1200,159,1,1199,teenager,11141,2019-10-21_21h59.10.007,SurveyExpMetaMem,3.2.3,Win32,60
,,,,,,,,,,,,,,,,,,,,5,2.251000166,4,0.245000124,1,0,1200,996,1,1199,sting,11141,2019-10-21_21h59.10.007,SurveyExpMetaMem,3.2.3,Win32,60
,,,,,,,,,,,,,,,,,,,,5,1.539000034,5,0.269999981,1,0,1200,1063,1,1199,quarrel,11141,2019-10-21_21h59.10.007,SurveyExpMetaMem,3.2.3,Win32,60
,,,,,,,,,,,,,,,,,,,,5,1.263000011,4,0.228000164,1,0,1200,327,1,1199,misfortune,11141,2019-10-21_21h59.10.007,SurveyExpMetaMem,3.2.3,Win32,60
,,,,,,,,,,,,,,,,,,,,5,1.769999981,4,0.336999893,1,0,1200,1157,1,1199,slayer,11141,2019-10-21_21h59.10.007,SurveyExpMetaMem,3.2.3,Win32,60
,,,,,,,,,,,,,,,,,,,,8,4.065999985,3,3.5,1,0,1200,1007,1,1199,tornado,11141,2019-10-21_21h59.10.007,SurveyExpMetaMem,3.2.3,Win32,60
,,,,,,,,,,,,,,,,,,,,5,4.200999975,7,5.690000057,1,0,1200,631,1,1199,delicate,11141,2019-10-21_21h59.10.007,SurveyExpMetaMem,3.2.3,Win32,60
,,,,,,,,,,,,,,,,,,,,4,3.085999966,4,0.487999916,1,0,1200,957,1,1199,debt,11141,2019-10-21_21h59.10.007,SurveyExpMetaMem,3.2.3,Win32,60
,,,,,,,,,,,,,,,,,,,,5,1.556999922,5,0.286000013,1,0,1200,445,1,1199,bleak,11141,2019-10-21_21h59.10.007,SurveyExpMetaMem,3.2.3,Win32,60
,,,,,,,,,,,,,,,,,,,,5,3.643000126,5,0.224999905,1,0,1200,639,1,1199,outlet,11141,2019-10-21_21h59.10.007,SurveyExpMetaMem,3.2.3,Win32,60
,,,,,,,,,,,,,,,,,,,,5,3.481999874,5,0.255999804,1,0,1200,842,1,1199,breathe,11141,2019-10-21_21h59.10.007,SurveyExpMetaMem,3.2.3,Win32,60
,,,,,,,,,,,,,,,,,,,,7,3.096999884,7,0.257000208,1,0,1200,190,1,1199,rescue,11141,2019-10-21_21h59.10.007,SurveyExpMetaMem,3.2.3,Win32,60
,,,,,,,,,,,,,,,,,,,,5,2.080999851,5,0.279000044,1,0,1200,762,1,1199,orchestra,11141,2019-10-21_21h59.10.007,SurveyExpMetaMem,3.2.3,Win32,60
,,,,,,,,,,,,,,,,,,,,5,6.247999907,5,0.217999935,1,0,1200,1090,1,1199,destruction,11141,2019-10-21_21h59.10.007,SurveyExpMetaMem,3.2.3,Win32,60
,,,,,,,,,,,,,,,,,,,,5,1.215999842,5,0.254999876,1,0,1200,586,1,1199,cab,11141,2019-10-21_21h59.10.007,SurveyExpMetaMem,3.2.3,Win32,60
,,,,,,,,,,,,,,,,,,,,5,0.828000069,5,0.236999989,1,0,1200,535,1,1199,ramble,11141,2019-10-21_21h59.10.007,SurveyExpMetaMem,3.2.3,Win32,60
,,,,,,,,,,,,,,,,,,,,5,3.039000034,6,0.364000082,1,0,1200,281,1,1199,summer,11141,2019-10-21_21h59.10.007,SurveyExpMetaMem,3.2.3,Win32,60
,,,,,,,,,,,,,,,,,,,,5,2.012000084,3,2.961999893,1,0,1200,930,1,1199,poison,11141,2019-10-21_21h59.10.007,SurveyExpMetaMem,3.2.3,Win32,60
,,,,,,,,,,,,,,,,,,,,8,3.867000103,7,0.497999907,1,0,1200,141,1,1199,surprise,11141,2019-10-21_21h59.10.007,SurveyExpMetaMem,3.2.3,Win32,60
,,,,,,,,,,,,,,,,,,,,8,3.197000027,7,2.209000111,1,0,1200,58,1,1199,boost,11141,2019-10-21_21h59.10.007,SurveyExpMetaMem,3.2.3,Win32,60
,,,,,,,,,,,,,,,,,,,,5,5.746999979,3,2.167999983,1,0,1200,315,1,1199,zit,11141,2019-10-21_21h59.10.007,SurveyExpMetaMem,3.2.3,Win32,60
,,,,,,,,,,,,,,,,,,,,4,2.440000057,3,0.712999821,1,0,1200,986,1,1199,mad,11141,2019-10-21_21h59.10.007,SurveyExpMetaMem,3.2.3,Win32,60
,,,,,,,,,,,,,,,,,,,,8,2.852999926,6,1.380000114,1,0,1200,19,1,1199,firefighter,11141,2019-10-21_21h59.10.007,SurveyExpMetaMem,3.2.3,Win32,60
,,,,,,,,,,,,,,,,,,,,7,3.664999962,5,0.893000126,1,0,1200,112,1,1199,jaguar,11141,2019-10-21_21h59.10.007,SurveyExpMetaMem,3.2.3,Win32,60
,,,,,,,,,,,,,,,,,,,,5,2.319000006,5,0.239000082,1,0,1200,604,1,1199,lamp,11141,2019-10-21_21h59.10.007,SurveyExpMetaMem,3.2.3,Win32,60
,,,,,,,,,,,,,,,,,,,,7,2.449999809,8,2.281999826,1,0,1200,248,1,1199,win,11141,2019-10-21_21h59.10.007,SurveyExpMetaMem,3.2.3,Win32,60
,,,,,,,,,,,,,,,,,,,,5,2.429000139,4,0.286000013,1,0,1200,1077,1,1199,unsure,11141,2019-10-21_21h59.10.007,SurveyExpMetaMem,3.2.3,Win32,60
,,,,,,,,,,,,,,,,,,,,5,3.09800005,5,0.253000021,1,0,1200,53,1,1199,lotion,11141,2019-10-21_21h59.10.007,SurveyExpMetaMem,3.2.3,Win32,60
,,,,,,,,,,,,,,,,,,,,5,1.922999859,4,0.320000172,1,0,1200,456,1,1199,piss,11141,2019-10-21_21h59.10.007,SurveyExpMetaMem,3.2.3,Win32,60
,,,,,,,,,,,,,,,,,,,,4,5.996000051,4,0.488000154,1,0,1200,960,1,1199,irritated,11141,2019-10-21_21h59.10.007,SurveyExpMetaMem,3.2.3,Win32,60
,,,,,,,,,,,,,,,,,,,,4,4.967000008,3,1.743000031,1,0,1200,1062,1,1199,shoplifter,11141,2019-10-21_21h59.10.007,SurveyExpMetaMem,3.2.3,Win32,60
,,,,,,,,,,,,,,,,,,,,1,7.861000061,5,3.819000006,1,0,1200,899,1,1199,relax,11141,2019-10-21_21h59.10.007,SurveyExpMetaMem,3.2.3,Win32,60
,,,,,,,,,,,,,,,,,,,,6,4.645999908,8,3.437000036,1,0,1200,249,1,1199,award,11141,2019-10-21_21h59.10.007,SurveyExpMetaMem,3.2.3,Win32,60
,,,,,,,,,,,,,,,,,,,,3,6.519000053,3,1.970000029,1,0,1200,317,1,1199,cry,11141,2019-10-21_21h59.10.007,SurveyExpMetaMem,3.2.3,Win32,60
,,,,,,,,,,,,,,,,,,,,5,1.863999844,9,1.552000046,1,0,1200,223,1,1199,fashion,11141,2019-10-21_21h59.10.007,SurveyExpMetaMem,3.2.3,Win32,60
,,,,,,,,,,,,,,,,,,,,8,3.862999916,8,0.687000036,1,0,1200,275,1,1199,brilliant,11141,2019-10-21_21h59.10.007,SurveyExpMetaMem,3.2.3,Win32,60
,,,,,,,,,,,,,,,,,,,,7,4.079999924,2,2.368000031,1,0,1200,1047,1,1199,psycho,11141,2019-10-21_21h59.10.007,SurveyExpMetaMem,3.2.3,Win32,60
,,,,,,,,,,,,,,,,,,,,5,4.934000015,4,1.52699995,1,0,1200,132,1,1199,silly,11141,2019-10-21_21h59.10.007,SurveyExpMetaMem,3.2.3,Win32,60
,,,,,,,,,,,,,,,,,,,,5,2.167999983,5,0.207999945,1,0,1200,779,1,1199,shampoo,11141,2019-10-21_21h59.10.007,SurveyExpMetaMem,3.2.3,Win32,60
,,,,,,,,,,,,,,,,,,,,5,1.871999979,5,0.223999977,1,0,1200,723,1,1199,cinnamon,11141,2019-10-21_21h59.10.007,SurveyExpMetaMem,3.2.3,Win32,60
,,,,,,,,,,,,,,,,,,,,5,1.233999968,4,0.21600008,1,0,1200,431,1,1199,itch,11141,2019-10-21_21h59.10.007,SurveyExpMetaMem,3.2.3,Win32,60
,,,,,,,,,,,,,,,,,,,,5,3.236999989,5,0.194999933,1,0,1200,784,1,1199,logical,11141,2019-10-21_21h59.10.007,SurveyExpMetaMem,3.2.3,Win32,60
,,,,,,,,,,,,,,,,,,,,5,1.182999849,5,0.174000025,1,0,1200,965,1,1199,traffic,11141,2019-10-21_21h59.10.007,SurveyExpMetaMem,3.2.3,Win32,60
,,,,,,,,,,,,,,,,,,,,5,1.620000124,5,0.200999975,1,0,1200,51,1,1199,body,11141,2019-10-21_21h59.10.007,SurveyExpMetaMem,3.2.3,Win32,60
,,,,,,,,,,,,,,,,,,,,5,2.269000053,4,0.233999968,1,0,1200,449,1,1199,egotistical,11141,2019-10-21_21h59.10.007,SurveyExpMetaMem,3.2.3,Win32,60
,,,,,,,,,,,,,,,,,,,,5,0.970000029,4,0.184999943,1,0,1200,948,1,1199,pain,11141,2019-10-21_21h59.10.007,SurveyExpMetaMem,3.2.3,Win32,60
,,,,,,,,,,,,,,,,,,,,5,2.784999847,5,0.205999851,1,0,1200,10,1,1199,cheerleader,11141,2019-10-21_21h59.10.007,SurveyExpMetaMem,3.2.3,Win32,60
,,,,,,,,,,,,,,,,,,,,6,3.799000025,6,0.231999874,1,0,1200,873,1,1199,useful,11141,2019-10-21_21h59.10.007,SurveyExpMetaMem,3.2.3,Win32,60
,,,,,,,,,,,,,,,,,,,,6,4.912999868,3,2.368999958,1,0,1200,1159,1,1199,rifle,11141,2019-10-21_21h59.10.007,SurveyExpMetaMem,3.2.3,Win32,60
,,,,,,,,,,,,,,,,,,,,5,6.731999874,5,0.227999926,1,0,1200,568,1,1199,therapy,11141,2019-10-21_21h59.10.007,SurveyExpMetaMem,3.2.3,Win32,60
,,,,,,,,,,,,,,,,,,,,6,3.041000128,4,3.052000046,1,0,1200,1070,1,1199,bleed,11141,2019-10-21_21h59.10.007,SurveyExpMetaMem,3.2.3,Win32,60
,,,,,,,,,,,,,,,,,,,,5,1.124000072,5,0.34800005,1,0,1200,675,1,1199,golfer,11141,2019-10-21_21h59.10.007,SurveyExpMetaMem,3.2.3,Win32,60
,,,,,,,,,,,,,,,,,,,,5,1.538000107,4,0.361999989,1,0,1200,1183,1,1199,emotional,11141,2019-10-21_21h59.10.007,SurveyExpMetaMem,3.2.3,Win32,60
,,,,,,,,,,,,,,,,,,,,5,2.809999943,6,0.170000076,1,0,1200,796,1,1199,rose,11141,2019-10-21_21h59.10.007,SurveyExpMetaMem,3.2.3,Win32,60
,,,,,,,,,,,,,,,,,,,,7,3.733999968,3,1.138000011,1,0,1200,1052,1,1199,angry,11141,2019-10-21_21h59.10.007,SurveyExpMetaMem,3.2.3,Win32,60
,,,,,,,,,,,,,,,,,,,,7,5.53399992,7,0.896000147,1,0,1200,193,1,1199,party,11141,2019-10-21_21h59.10.007,SurveyExpMetaMem,3.2.3,Win32,60
,,,,,,,,,,,,,,,,,,,,5,7.446999788,5,3.76699996,1,0,1200,799,1,1199,precise,11141,2019-10-21_21h59.10.007,SurveyExpMetaMem,3.2.3,Win32,60
,,,,,,,,,,,,,,,,,,,,5,0.932999849,5,0.236000061,1,0,1200,573,1,1199,cease,11141,2019-10-21_21h59.10.007,SurveyExpMetaMem,3.2.3,Win32,60
,,,,,,,,,,,,,,,,,,,,5,1.28399992,4,0.219000101,1,0,1200,1015,1,1199,frighten,11141,2019-10-21_21h59.10.007,SurveyExpMetaMem,3.2.3,Win32,60
,,,,,,,,,,,,,,,,,,,,4,5.180000067,3,3.309999943,1,0,1200,300,1,1199,unhappy,11141,2019-10-21_21h59.10.007,SurveyExpMetaMem,3.2.3,Win32,60
,,,,,,,,,,,,,,,,,,,,5,10.95899987,5,0.262000084,1,0,1200,643,1,1199,library,11141,2019-10-21_21h59.10.007,SurveyExpMetaMem,3.2.3,Win32,60
,,,,,,,,,,,,,,,,,,,,5,1.624000072,5,0.269000053,1,0,1200,774,1,1199,leaves,11141,2019-10-21_21h59.10.007,SurveyExpMetaMem,3.2.3,Win32,60
,,,,,,,,,,,,,,,,,,,,5,1.085000038,5,0.18900013,1,0,1200,819,1,1199,sheep,11141,2019-10-21_21h59.10.007,SurveyExpMetaMem,3.2.3,Win32,60
,,,,,,,,,,,,,,,,,,,,5,2.788999796,4,0.529000044,1,0,1200,447,1,1199,dishes,11141,2019-10-21_21h59.10.007,SurveyExpMetaMem,3.2.3,Win32,60
,,,,,,,,,,,,,,,,,,,,5,1.226999998,5,0.187999964,1,0,1200,582,1,1199,cling,11141,2019-10-21_21h59.10.007,SurveyExpMetaMem,3.2.3,Win32,60
,,,,,,,,,,,,,,,,,,,,5,1.742000103,3,0.424000025,1,0,1200,455,1,1199,chubby,11141,2019-10-21_21h59.10.007,SurveyExpMetaMem,3.2.3,Win32,60
,,,,,,,,,,,,,,,,,,,,5,3.640000105,7,0.445999861,1,0,1200,729,1,1199,velvet,11141,2019-10-21_21h59.10.007,SurveyExpMetaMem,3.2.3,Win32,60
,,,,,,,,,,,,,,,,,,,,6,4.700999975,4,0.246999979,1,0,1200,250,1,1199,erupt,11141,2019-10-21_21h59.10.007,SurveyExpMetaMem,3.2.3,Win32,60
,,,,,,,,,,,,,,,,,,,,6,4.167000055,8,1.172999859,1,0,1200,186,1,1199,holiday,11141,2019-10-21_21h59.10.007,SurveyExpMetaMem,3.2.3,Win32,60
,,,,,,,,,,,,,,,,,,,,6,4.599999905,6,0.20600009,1,0,1200,46,1,1199,god,11141,2019-10-21_21h59.10.007,SurveyExpMetaMem,3.2.3,Win32,60
,,,,,,,,,,,,,,,,,,,,5,5.271000147,6,1.936000109,1,0,1200,804,1,1199,peach,11141,2019-10-21_21h59.10.007,SurveyExpMetaMem,3.2.3,Win32,60
,,,,,,,,,,,,,,,,,,,,5,1.97300005,4,0.171000004,1,0,1200,1031,1,1199,fear,11141,2019-10-21_21h59.10.007,SurveyExpMetaMem,3.2.3,Win32,60
,,,,,,,,,,,,,,,,,,,,5,3.115999937,6,0.16899991,1,0,1200,120,1,1199,imaginative,11141,2019-10-21_21h59.10.007,SurveyExpMetaMem,3.2.3,Win32,60
,,,,,,,,,,,,,,,,,,,,5,2.750999928,4,0.210000038,1,0,1200,429,1,1199,cough,11141,2019-10-21_21h59.10.007,SurveyExpMetaMem,3.2.3,Win32,60
,,,,,,,,,,,,,,,,,,,,5,5.170000076,4,2.122999907,1,0,1200,710,1,1199,gender,11141,2019-10-21_21h59.10.007,SurveyExpMetaMem,3.2.3,Win32,60
,,,,,,,,,,,,,,,,,,,,5,2.81400013,5,0.268999815,1,0,1200,702,1,1199,den,11141,2019-10-21_21h59.10.007,SurveyExpMetaMem,3.2.3,Win32,60
,,,,,,,,,,,,,,,,,,,,5,2.690999985,5,0.221000195,1,0,1200,884,1,1199,grateful,11141,2019-10-21_21h59.10.007,SurveyExpMetaMem,3.2.3,Win32,60
,,,,,,,,,,,,,,,,,,,,6,4.622000217,8,1.735000134,1,0,1200,816,1,1199,hippotamus,11141,2019-10-21_21h59.10.007,SurveyExpMetaMem,3.2.3,Win32,60
,,,,,,,,,,,,,,,,,,,,7,3.628000021,5,7.316999912,1,0,1200,1127,1,1199,spank,11141,2019-10-21_21h59.10.007,SurveyExpMetaMem,3.2.3,Win32,60
,,,,,,,,,,,,,,,,,,,,6,3.215000153,7,0.636999846,1,0,1200,21,1,1199,game,11141,2019-10-21_21h59.10.007,SurveyExpMetaMem,3.2.3,Win32,60
,,,,,,,,,,,,,,,,,,,,6,3.098999977,7,0.187999964,1,0,1200,168,1,1199,mate,11141,2019-10-21_21h59.10.007,SurveyExpMetaMem,3.2.3,Win32,60
,,,,,,,,,,,,,,,,,,,,6,4.145999908,7,0.203000069,1,0,1200,858,1,1199,donate,11141,2019-10-21_21h59.10.007,SurveyExpMetaMem,3.2.3,Win32,60
,,,,,,,,,,,,,,,,,,,,7,3.273000002,8,0.344000101,1,0,1200,237,1,1199,beautiful,11141,2019-10-21_21h59.10.007,SurveyExpMetaMem,3.2.3,Win32,60
,,,,,,,,,,,,,,,,,,,,7,5.022000074,3,1.64199996,1,0,1200,979,1,1199,harassment,11141,2019-10-21_21h59.10.007,SurveyExpMetaMem,3.2.3,Win32,60
,,,,,,,,,,,,,,,,,,,,7,2.730999947,3,0.572000027,1,0,1200,958,1,1199,traitor,11141,2019-10-21_21h59.10.007,SurveyExpMetaMem,3.2.3,Win32,60
,,,,,,,,,,,,,,,,,,,,7,1.624000072,3,0.75999999,1,0,1200,344,1,1199,pessimistic,11141,2019-10-21_21h59.10.007,SurveyExpMetaMem,3.2.3,Win32,60
,,,,,,,,,,,,,,,,,,,,5,2.661000013,5,0.536000013,1,0,1200,1103,1,1199,mob,11141,2019-10-21_21h59.10.007,SurveyExpMetaMem,3.2.3,Win32,60
,,,,,,,,,,,,,,,,,,,,5,1.69900012,5,0.64199996,1,0,1200,484,1,1199,leave,11141,2019-10-21_21h59.10.007,SurveyExpMetaMem,3.2.3,Win32,60
,,,,,,,,,,,,,,,,,,,,5,2.25,4,0.289000034,1,0,1200,426,1,1199,con,11141,2019-10-21_21h59.10.007,SurveyExpMetaMem,3.2.3,Win32,60
,,,,,,,,,,,,,,,,,,,,5,1.298000097,4,0.622999907,1,0,1200,1150,1,1199,forceful,11141,2019-10-21_21h59.10.007,SurveyExpMetaMem,3.2.3,Win32,60
,,,,,,,,,,,,,,,,,,,,5,1.102999926,4,0.352999926,1,0,1200,422,1,1199,doubtful,11141,2019-10-21_21h59.10.007,SurveyExpMetaMem,3.2.3,Win32,60
,,,,,,,,,,,,,,,,,,,,6,1.973999977,3,0.430999994,1,0,1200,950,1,1199,murder,11141,2019-10-21_21h59.10.007,SurveyExpMetaMem,3.2.3,Win32,60
,,,,,,,,,,,,,,,,,,,,5,1.851999998,6,0.304999828,1,0,1200,60,1,1199,bikini,11141,2019-10-21_21h59.10.007,SurveyExpMetaMem,3.2.3,Win32,60
,,,,,,,,,,,,,,,,,,,,5,2.871999979,4,0.443000078,1,0,1200,494,1,1199,butcher,11141,2019-10-21_21h59.10.007,SurveyExpMetaMem,3.2.3,Win32,60
,,,,,,,,,,,,,,,,,,,,5,3.291000128,5,0.337000132,1,0,1200,172,1,1199,potential,11141,2019-10-21_21h59.10.007,SurveyExpMetaMem,3.2.3,Win32,60
,,,,,,,,,,,,,,,,,,,,5,2.011999846,4,0.31799984,1,0,1200,485,1,1199,pinch,11141,2019-10-21_21h59.10.007,SurveyExpMetaMem,3.2.3,Win32,60
,,,,,,,,,,,,,,,,,,,,5,1.520999908,6,0.424999952,1,0,1200,84,1,1199,eat,11141,2019-10-21_21h59.10.007,SurveyExpMetaMem,3.2.3,Win32,60
,,,,,,,,,,,,,,,,,,,,5,2.325999975,5,0.19299984,1,0,1200,556,1,1199,allege,11141,2019-10-21_21h59.10.007,SurveyExpMetaMem,3.2.3,Win32,60
,,,,,,,,,,,,,,,,,,,,5,1.710000038,5,0.18599987,1,0,1200,365,1,1199,discouraged,11141,2019-10-21_21h59.10.007,SurveyExpMetaMem,3.2.3,Win32,60
,,,,,,,,,,,,,,,,,,,,6,1.953000069,3,0.604000092,1,0,1200,992,1,1199,addict,11141,2019-10-21_21h59.10.007,SurveyExpMetaMem,3.2.3,Win32,60
,,,,,,,,,,,,,,,,,,,,5,3.86500001,5,0.240999937,1,0,1200,837,1,1199,responsible,11141,2019-10-21_21h59.10.007,SurveyExpMetaMem,3.2.3,Win32,60
,,,,,,,,,,,,,,,,,,,,5,1.205000162,5,0.194999933,1,0,1200,608,1,1199,carrot,11141,2019-10-21_21h59.10.007,SurveyExpMetaMem,3.2.3,Win32,60
,,,,,,,,,,,,,,,,,,,,7,3.499000072,7,0.832000017,1,0,1200,166,1,1199,unite,11141,2019-10-21_21h59.10.007,SurveyExpMetaMem,3.2.3,Win32,60
,,,,,,,,,,,,,,,,,,,,5,1.291000128,5,0.210000038,1,0,1200,1177,1,1199,pang,11141,2019-10-21_21h59.10.007,SurveyExpMetaMem,3.2.3,Win32,60
,,,,,,,,,,,,,,,,,,,,5,1.085999966,5,0.192000151,1,0,1200,1173,1,1199,lurk,11141,2019-10-21_21h59.10.007,SurveyExpMetaMem,3.2.3,Win32,60
,,,,,,,,,,,,,,,,,,,,5,0.962000132,5,0.207999945,1,0,1200,405,1,1199,fatigued,11141,2019-10-21_21h59.10.007,SurveyExpMetaMem,3.2.3,Win32,60
,,,,,,,,,,,,,,,,,,,,7,4.523000002,2,0.770999908,1,0,1200,991,1,1199,harass,11141,2019-10-21_21h59.10.007,SurveyExpMetaMem,3.2.3,Win32,60
,,,,,,,,,,,,,,,,,,,,5,2.265000105,7,0.5849998,1,0,1200,102,1,1199,motorcycle,11141,2019-10-21_21h59.10.007,SurveyExpMetaMem,3.2.3,Win32,60
,,,,,,,,,,,,,,,,,,,,5,2.355000019,5,0.203000069,1,0,1200,813,1,1199,walking,11141,2019-10-21_21h59.10.007,SurveyExpMetaMem,3.2.3,Win32,60
,,,,,,,,,,,,,,,,,,,,5,2.437999964,5,0.588000059,1,0,1200,472,1,1199,bald,11141,2019-10-21_21h59.10.007,SurveyExpMetaMem,3.2.3,Win32,60
,,,,,,,,,,,,,,,,,,,,5,1.287999868,5,0.170000076,1,0,1200,544,1,1199,snail,11141,2019-10-21_21h59.10.007,SurveyExpMetaMem,3.2.3,Win32,60
,,,,,,,,,,,,,,,,,,,,4,4.332000017,2,3.210999966,1,0,1200,635,1,1199,sensitive,11141,2019-10-21_21h59.10.007,SurveyExpMetaMem,3.2.3,Win32,60
,,,,,,,,,,,,,,,,,,,,5,1.401000023,4,0.243000031,1,0,1200,406,1,1199,tired,11141,2019-10-21_21h59.10.007,SurveyExpMetaMem,3.2.3,Win32,60
,,,,,,,,,,,,,,,,,,,,7,2.855000019,1,1.798000097,1,0,1200,961,1,1199,crucify,11141,2019-10-21_21h59.10.007,SurveyExpMetaMem,3.2.3,Win32,60
,,,,,,,,,,,,,,,,,,,,5,1.622999907,4,0.218999863,1,0,1200,890,1,1199,carefree,11141,2019-10-21_21h59.10.007,SurveyExpMetaMem,3.2.3,Win32,60
,,,,,,,,,,,,,,,,,,,,5,7.765999794,4,0.271999836,1,0,1200,473,1,1199,senseless,11141,2019-10-21_21h59.10.007,SurveyExpMetaMem,3.2.3,Win32,60
,,,,,,,,,,,,,,,,,,,,5,2.215999842,4,0.203999996,1,0,1200,273,1,1199,worthwhile,11141,2019-10-21_21h59.10.007,SurveyExpMetaMem,3.2.3,Win32,60
,,,,,,,,,,,,,,,,,,,,5,1.333999872,5,0.188000202,1,0,1200,849,1,1199,blue,11141,2019-10-21_21h59.10.007,SurveyExpMetaMem,3.2.3,Win32,60
,,,,,,,,,,,,,,,,,,,,5,1.502000093,4,0.175000191,1,0,1200,1148,1,1199,suspicious,11141,2019-10-21_21h59.10.007,SurveyExpMetaMem,3.2.3,Win32,60
,,,,,,,,,,,,,,,,,,,,5,1.467000008,5,0.187000036,1,0,1200,1162,1,1199,baffle,11141,2019-10-21_21h59.10.007,SurveyExpMetaMem,3.2.3,Win32,60
,,,,,,,,,,,,,,,,,,,,5,1.076999903,5,0.203000069,1,0,1200,712,1,1199,harvest,11141,2019-10-21_21h59.10.007,SurveyExpMetaMem,3.2.3,Win32,60
,,,,,,,,,,,,,,,,,,,,7,2.01699996,2,1.409999847,1,0,1200,1012,1,1199,gunshot,11141,2019-10-21_21h59.10.007,SurveyExpMetaMem,3.2.3,Win32,60
,,,,,,,,,,,,,,,,,,,,5,2.444000006,5,0.219000101,1,0,1200,1124,1,1199,seize,11141,2019-10-21_21h59.10.007,SurveyExpMetaMem,3.2.3,Win32,60
,,,,,,,,,,,,,,,,,,,,5,1.976999998,5,0.187000036,1,0,1200,716,1,1199,blouse,11141,2019-10-21_21h59.10.007,SurveyExpMetaMem,3.2.3,Win32,60
,,,,,,,,,,,,,,,,,,,,7,5.350000143,7,0.319999933,1,0,1200,187,1,1199,excite,11141,2019-10-21_21h59.10.007,SurveyExpMetaMem,3.2.3,Win32,60
,,,,,,,,,,,,,,,,,,,,5,3.913000107,5,0.187000036,1,0,1200,428,1,1199,end,11141,2019-10-21_21h59.10.007,SurveyExpMetaMem,3.2.3,Win32,60
,,,,,,,,,,,,,,,,,,,,7,1.809000015,1,1.301999807,1,0,1200,900,1,1199,suicide,11141,2019-10-21_21h59.10.007,SurveyExpMetaMem,3.2.3,Win32,60
,,,,,,,,,,,,,,,,,,,,5,1.737999916,5,0.752000093,1,0,1200,740,1,1199,groceries,11141,2019-10-21_21h59.10.007,SurveyExpMetaMem,3.2.3,Win32,60
,,,,,,,,,,,,,,,,,,,,5,6.388000011,4,0.207999945,1,0,1200,311,1,1199,discomfort,11141,2019-10-21_21h59.10.007,SurveyExpMetaMem,3.2.3,Win32,60
,,,,,,,,,,,,,,,,,,,,6,3.947999954,5,2.088000059,1,0,1200,100,1,1199,intense,11141,2019-10-21_21h59.10.007,SurveyExpMetaMem,3.2.3,Win32,60
,,,,,,,,,,,,,,,,,,,,5,2.148999929,5,0.187000036,1,0,1200,538,1,1199,crumbs,11141,2019-10-21_21h59.10.007,SurveyExpMetaMem,3.2.3,Win32,60
,,,,,,,,,,,,,,,,,,,,7,2.633000135,6,4.117000103,1,0,1200,1041,1,1199,sin,11141,2019-10-21_21h59.10.007,SurveyExpMetaMem,3.2.3,Win32,60
,,,,,,,,,,,,,,,,,,,,7,7.333000183,4,3.794999838,1,0,1200,962,1,1199,poisonous,11141,2019-10-21_21h59.10.007,SurveyExpMetaMem,3.2.3,Win32,60
,,,,,,,,,,,,,,,,,,,,5,3.13499999,4,0.257999897,1,0,1200,1074,1,1199,detain,11141,2019-10-21_21h59.10.007,SurveyExpMetaMem,3.2.3,Win32,60
,,,,,,,,,,,,,,,,,,,,5,1.623999834,6,0.269999981,1,0,1200,632,1,1199,avenue,11141,2019-10-21_21h59.10.007,SurveyExpMetaMem,3.2.3,Win32,60
,,,,,,,,,,,,,,,,,,,,5,1.41899991,5,0.210999966,1,0,1200,629,1,1199,barn,11141,2019-10-21_21h59.10.007,SurveyExpMetaMem,3.2.3,Win32,60
,,,,,,,,,,,,,,,,,,,,4,1.95600009,4,0.187999964,1,0,1200,970,1,1199,worry,11141,2019-10-21_21h59.10.007,SurveyExpMetaMem,3.2.3,Win32,60
,,,,,,,,,,,,,,,,,,,,6,4.473999977,2,2.540999889,1,0,1200,901,1,1199,rape,11141,2019-10-21_21h59.10.007,SurveyExpMetaMem,3.2.3,Win32,60
,,,,,,,,,,,,,,,,,,,,5,1.447000027,5,0.346999884,1,0,1200,674,1,1199,fitting,11141,2019-10-21_21h59.10.007,SurveyExpMetaMem,3.2.3,Win32,60
,,,,,,,,,,,,,,,,,,,,5,2.069000006,4,0.204999924,1,0,1200,314,1,1199,hopeless,11141,2019-10-21_21h59.10.007,SurveyExpMetaMem,3.2.3,Win32,60
,,,,,,,,,,,,,,,,,,,,5,2.558999777,6,0.141000032,1,0,1200,798,1,1199,crystal,11141,2019-10-21_21h59.10.007,SurveyExpMetaMem,3.2.3,Win32,60
,,,,,,,,,,,,,,,,,,,,5,2.963999987,5,0.186000109,1,0,1200,274,1,1199,song,11141,2019-10-21_21h59.10.007,SurveyExpMetaMem,3.2.3,Win32,60
,,,,,,,,,,,,,,,,,,,,6,3.181999922,6,0.371999979,1,0,1200,29,1,1199,life,11141,2019-10-21_21h59.10.007,SurveyExpMetaMem,3.2.3,Win32,60
,,,,,,,,,,,,,,,,,,,,7,4.86500001,7,0.251999855,1,0,1200,28,1,1199,energy,11141,2019-10-21_21h59.10.007,SurveyExpMetaMem,3.2.3,Win32,60
,,,,,,,,,,,,,,,,,,,,3,4.864000082,3,2.385999918,1,0,1200,1100,1,1199,evil,11141,2019-10-21_21h59.10.007,SurveyExpMetaMem,3.2.3,Win32,60
,,,,,,,,,,,,,,,,,,,,5,2.86500001,6,0.226000071,1,0,1200,67,1,1199,penthouse,11141,2019-10-21_21h59.10.007,SurveyExpMetaMem,3.2.3,Win32,60
,,,,,,,,,,,,,,,,,,,,4,8.019000053,3,0.271000147,1,0,1200,1184,1,1199,reckless,11141,2019-10-21_21h59.10.007,SurveyExpMetaMem,3.2.3,Win32,60
,,,,,,,,,,,,,,,,,,,,6,4.23300004,7,0.500999928,1,0,1200,62,1,1199,interested,11141,2019-10-21_21h59.10.007,SurveyExpMetaMem,3.2.3,Win32,60
,,,,,,,,,,,,,,,,,,,,5,2.351999998,5,0.221000195,1,0,1200,634,1,1199,glacier,11141,2019-10-21_21h59.10.007,SurveyExpMetaMem,3.2.3,Win32,60
,,,,,,,,,,,,,,,,,,,,7,4.569000006,7,0.286999941,1,0,1200,179,1,1199,star,11141,2019-10-21_21h59.10.007,SurveyExpMetaMem,3.2.3,Win32,60
,,,,,,,,,,,,,,,,,,,,8,4.393999815,6,0.526000023,1,0,1200,235,1,1199,cheery,11141,2019-10-21_21h59.10.007,SurveyExpMetaMem,3.2.3,Win32,60
,,,,,,,,,,,,,,,,,,,,5,2.57400012,5,0.169000149,1,0,1200,672,1,1199,ketchup,11141,2019-10-21_21h59.10.007,SurveyExpMetaMem,3.2.3,Win32,60
,,,,,,,,,,,,,,,,,,,,5,9.144000053,5,0.194000006,1,0,1200,103,1,1199,conquest,11141,2019-10-21_21h59.10.007,SurveyExpMetaMem,3.2.3,Win32,60
,,,,,,,,,,,,,,,,,,,,5,1.694000006,5,0.217000008,1,0,1200,11,1,1199,astonished,11141,2019-10-21_21h59.10.007,SurveyExpMetaMem,3.2.3,Win32,60
,,,,,,,,,,,,,,,,,,,,5,2.969000101,5,0.227999926,1,0,1200,1023,1,1199,disorder,11141,2019-10-21_21h59.10.007,SurveyExpMetaMem,3.2.3,Win32,60
,,,,,,,,,,,,,,,,,,,,5,2.082999945,5,0.20600009,1,0,1200,593,1,1199,errand,11141,2019-10-21_21h59.10.007,SurveyExpMetaMem,3.2.3,Win32,60
,,,,,,,,,,,,,,,,,,,,5,0.169000149,5,3.650000095,1,0,1200,542,1,1199,loose,11141,2019-10-21_21h59.10.007,SurveyExpMetaMem,3.2.3,Win32,60
,,,,,,,,,,,,,,,,,,,,5,0.203000069,5,3.473999977,1,0,1200,831,1,1199,sofa,11141,2019-10-21_21h59.10.007,SurveyExpMetaMem,3.2.3,Win32,60
,,,,,,,,,,,,,,,,,,,,5,1.173000097,5,0.363999844,1,0,1200,207,1,1199,erect,11141,2019-10-21_21h59.10.007,SurveyExpMetaMem,3.2.3,Win32,60
,,,,,,,,,,,,,,,,,,,,4,2.68200016,4,1.423000097,1,0,1200,920,1,1199,hurt,11141,2019-10-21_21h59.10.007,SurveyExpMetaMem,3.2.3,Win32,60
,,,,,,,,,,,,,,,,,,,,7,3.631000042,6,1.636000156,1,0,1200,265,1,1199,invent,11141,2019-10-21_21h59.10.007,SurveyExpMetaMem,3.2.3,Win32,60
,,,,,,,,,,,,,,,,,,,,5,2.572999954,5,0.186000109,1,0,1200,342,1,1199,alienation,11141,2019-10-21_21h59.10.007,SurveyExpMetaMem,3.2.3,Win32,60
,,,,,,,,,,,,,,,,,,,,5,1.990999937,5,0.187000036,1,0,1200,200,1,1199,preach,11141,2019-10-21_21h59.10.007,SurveyExpMetaMem,3.2.3,Win32,60
,,,,,,,,,,,,,,,,,,,,5,0.785000086,5,0.195999861,1,0,1200,585,1,1199,tatter,11141,2019-10-21_21h59.10.007,SurveyExpMetaMem,3.2.3,Win32,60
,,,,,,,,,,,,,,,,,,,,8,3.849999905,9,0.470999956,1,0,1200,115,1,1199,sexual,11141,2019-10-21_21h59.10.007,SurveyExpMetaMem,3.2.3,Win32,60
,,,,,,,,,,,,,,,,,,,,8,1.762000084,9,0.269000053,1,0,1200,295,1,1199,passion,11141,2019-10-21_21h59.10.007,SurveyExpMetaMem,3.2.3,Win32,60
,,,,,,,,,,,,,,,,,,,,5,1.600999832,5,0.18900013,1,0,1200,592,1,1199,sweep,11141,2019-10-21_21h59.10.007,SurveyExpMetaMem,3.2.3,Win32,60
,,,,,,,,,,,,,,,,,,,,4,7.573999882,3,0.595000029,1,0,1200,1071,1,1199,uncomfortable,11141,2019-10-21_21h59.10.007,SurveyExpMetaMem,3.2.3,Win32,60
,,,,,,,,,,,,,,,,,,,,5,1.48300004,5,0.205999851,1,0,1200,220,1,1199,reef,11141,2019-10-21_21h59.10.007,SurveyExpMetaMem,3.2.3,Win32,60
,,,,,,,,,,,,,,,,,,,,6,1.618999958,7,1.319000006,1,0,1200,26,1,1199,inspired,11141,2019-10-21_21h59.10.007,SurveyExpMetaMem,3.2.3,Win32,60
,,,,,,,,,,,,,,,,,,,,4,2.602999926,2,0.70299983,1,0,1200,972,1,1199,homicide,11141,2019-10-21_21h59.10.007,SurveyExpMetaMem,3.2.3,Win32,60
,,,,,,,,,,,,,,,,,,,,5,2.249000072,4,0.338000059,1,0,1200,987,1,1199,disgusted,11141,2019-10-21_21h59.10.007,SurveyExpMetaMem,3.2.3,Win32,60
,,,,,,,,,,,,,,,,,,,,5,1.651000023,5,0.218999863,1,0,1200,437,1,1199,blubber,11141,2019-10-21_21h59.10.007,SurveyExpMetaMem,3.2.3,Win32,60
,,,,,,,,,,,,,,,,,,,,6,2.25999999,6,1.69299984,1,0,1200,138,1,1199,blessings,11141,2019-10-21_21h59.10.007,SurveyExpMetaMem,3.2.3,Win32,60
,,,,,,,,,,,,,,,,,,,,5,1.117000103,5,0.193000078,1,0,1200,879,1,1199,bird,11141,2019-10-21_21h59.10.007,SurveyExpMetaMem,3.2.3,Win32,60
,,,,,,,,,,,,,,,,,,,,6,3.019000053,3,0.538000107,1,0,1200,925,1,1199,disloyal,11141,2019-10-21_21h59.10.007,SurveyExpMetaMem,3.2.3,Win32,60
,,,,,,,,,,,,,,,,,,,,5,2.13499999,5,0.19299984,1,0,1200,706,1,1199,cat,11141,2019-10-21_21h59.10.007,SurveyExpMetaMem,3.2.3,Win32,60
,,,,,,,,,,,,,,,,,,,,6,2.200999975,3,0.844000101,1,0,1200,411,1,1199,bitter,11141,2019-10-21_21h59.10.007,SurveyExpMetaMem,3.2.3,Win32,60
,,,,,,,,,,,,,,,,,,,,6,2.101999998,3,0.537000179,1,0,1200,131,1,1199,treat,11141,2019-10-21_21h59.10.007,SurveyExpMetaMem,3.2.3,Win32,60
,,,,,,,,,,,,,,,,,,,,6,1.986000061,3,0.553999901,1,0,1200,1176,1,1199,vampire,11141,2019-10-21_21h59.10.007,SurveyExpMetaMem,3.2.3,Win32,60
,,,,,,,,,,,,,,,,,,,,6,1.704999924,3,0.460999966,1,0,1200,476,1,1199,warden,11141,2019-10-21_21h59.10.007,SurveyExpMetaMem,3.2.3,Win32,60
,,,,,,,,,,,,,,,,,,,,5,3.28399992,7,0.488999844,1,0,1200,94,1,1199,engaged,11141,2019-10-21_21h59.10.007,SurveyExpMetaMem,3.2.3,Win32,60
,,,,,,,,,,,,,,,,,,,,5,2.782000065,5,0.171000004,1,0,1200,211,1,1199,surfer,11141,2019-10-21_21h59.10.007,SurveyExpMetaMem,3.2.3,Win32,60
,,,,,,,,,,,,,,,,,,,,5,1.45600009,7,0.412999868,1,0,1200,139,1,1199,generosity,11141,2019-10-21_21h59.10.007,SurveyExpMetaMem,3.2.3,Win32,60
,,,,,,,,,,,,,,,,,,,,5,1.954999924,5,0.187000036,1,0,1200,523,1,1199,witch,11141,2019-10-21_21h59.10.007,SurveyExpMetaMem,3.2.3,Win32,60
,,,,,,,,,,,,,,,,,,,,6,2.537999868,3,0.570999861,1,0,1200,943,1,1199,trauma,11141,2019-10-21_21h59.10.007,SurveyExpMetaMem,3.2.3,Win32,60
,,,,,,,,,,,,,,,,,,,,6,1.914999962,3,0.404000044,1,0,1200,1069,1,1199,defeat,11141,2019-10-21_21h59.10.007,SurveyExpMetaMem,3.2.3,Win32,60
,,,,,,,,,,,,,,,,,,,,5,1.932999849,5,0.241000175,1,0,1200,522,1,1199,cleft,11141,2019-10-21_21h59.10.007,SurveyExpMetaMem,3.2.3,Win32,60
,,,,,,,,,,,,,,,,,,,,5,1.536999941,5,0.196999788,1,0,1200,878,1,1199,sleep,11141,2019-10-21_21h59.10.007,SurveyExpMetaMem,3.2.3,Win32,60
,,,,,,,,,,,,,,,,,,,,5,4.023000002,5,0.236999989,1,0,1200,613,1,1199,cup,11141,2019-10-21_21h59.10.007,SurveyExpMetaMem,3.2.3,Win32,60
,,,,,,,,,,,,,,,,,,,,7,2.671000004,3,0.504999876,1,0,1200,1005,1,1199,pissed,11141,2019-10-21_21h59.10.007,SurveyExpMetaMem,3.2.3,Win32,60
,,,,,,,,,,,,,,,,,,,,7,4.481999874,7,1.751999855,1,0,1200,123,1,1199,favorite,11141,2019-10-21_21h59.10.007,SurveyExpMetaMem,3.2.3,Win32,60
,,,,,,,,,,,,,,,,,,,,7,1.898000002,2,0.837000132,1,0,1200,1110,1,1199,bastard,11141,2019-10-21_21h59.10.007,SurveyExpMetaMem,3.2.3,Win32,60
,,,,,,,,,,,,,,,,,,,,5,3.91899991,5,0.20600009,1,0,1200,682,1,1199,camel,11141,2019-10-21_21h59.10.007,SurveyExpMetaMem,3.2.3,Win32,60
,,,,,,,,,,,,,,,,,,,,5,2.879999876,5,0.556999922,1,0,1200,1138,1,1199,wail,11141,2019-10-21_21h59.10.007,SurveyExpMetaMem,3.2.3,Win32,60
,,,,,,,,,,,,,,,,,,,,6,5.646999836,3,0.601999998,1,0,1200,953,1,1199,victim,11141,2019-10-21_21h59.10.007,SurveyExpMetaMem,3.2.3,Win32,60
,,,,,,,,,,,,,,,,,,,,5,1.555000067,5,0.235000134,1,0,1200,741,1,1199,wheat,11141,2019-10-21_21h59.10.007,SurveyExpMetaMem,3.2.3,Win32,60
,,,,,,,,,,,,,,,,,,,,6,1.680999994,3,0.437000036,1,0,1200,1156,1,1199,weapon,11141,2019-10-21_21h59.10.007,SurveyExpMetaMem,3.2.3,Win32,60
,,,,,,,,,,,,,,,,,,,,7,3.800000191,3,0.56099987,1,0,1200,438,1,1199,dull,11141,2019-10-21_21h59.10.007,SurveyExpMetaMem,3.2.3,Win32,60
,,,,,,,,,,,,,,,,,,,,5,1.657000065,5,0.194999933,1,0,1200,636,1,1199,refine,11141,2019-10-21_21h59.10.007,SurveyExpMetaMem,3.2.3,Win32,60
,,,,,,,,,,,,,,,,,,,,5,1.27699995,5,0.225999832,1,0,1200,599,1,1199,obstinate,11141,2019-10-21_21h59.10.007,SurveyExpMetaMem,3.2.3,Win32,60
,,,,,,,,,,,,,,,,,,,,5,3.368999958,7,1.052000046,1,0,1200,871,1,1199,comfort,11141,2019-10-21_21h59.10.007,SurveyExpMetaMem,3.2.3,Win32,60
,,,,,,,,,,,,,,,,,,,,5,4,4,0.370000124,1,0,1200,1112,1,1199,pressure,11141,2019-10-21_21h59.10.007,SurveyExpMetaMem,3.2.3,Win32,60
,,,,,,,,,,,,,,,,,,,,5,1.789000034,5,0.208999872,1,0,1200,658,1,1199,method,11141,2019-10-21_21h59.10.007,SurveyExpMetaMem,3.2.3,Win32,60
,,,,,,,,,,,,,,,,,,,,5,1.601999998,5,0.180999994,1,0,1200,33,1,1199,sister,11141,2019-10-21_21h59.10.007,SurveyExpMetaMem,3.2.3,Win32,60
,,,,,,,,,,,,,,,,,,,,5,4.445999861,6,0.204999924,1,0,1200,733,1,1199,poetry,11141,2019-10-21_21h59.10.007,SurveyExpMetaMem,3.2.3,Win32,60
,,,,,,,,,,,,,,,,,,,,5,1.151000023,5,0.173000097,1,0,1200,497,1,1199,pungent,11141,2019-10-21_21h59.10.007,SurveyExpMetaMem,3.2.3,Win32,60
,,,,,,,,,,,,,,,,,,,,5,1.850000143,7,0.359999895,1,0,1200,825,1,1199,swan,11141,2019-10-21_21h59.10.007,SurveyExpMetaMem,3.2.3,Win32,60
,,,,,,,,,,,,,,,,,,,,5,3.359999895,8,0.353999853,1,0,1200,41,1,1199,progress,11141,2019-10-21_21h59.10.007,SurveyExpMetaMem,3.2.3,Win32,60
,,,,,,,,,,,,,,,,,,,,5,3.196000099,6,0.69299984,1,0,1200,61,1,1199,zoom,11141,2019-10-21_21h59.10.007,SurveyExpMetaMem,3.2.3,Win32,60
,,,,,,,,,,,,,,,,,,,,5,3.404999971,5,0.20299983,1,0,1200,808,1,1199,violinist,11141,2019-10-21_21h59.10.007,SurveyExpMetaMem,3.2.3,Win32,60
,,,,,,,,,,,,,,,,,,,,5,1.148999929,5,0.18599987,1,0,1200,619,1,1199,pulpit,11141,2019-10-21_21h59.10.007,SurveyExpMetaMem,3.2.3,Win32,60
,,,,,,,,,,,,,,,,,,,,5,1.282999992,5,0.179000139,1,0,1200,520,1,1199,gullible,11141,2019-10-21_21h59.10.007,SurveyExpMetaMem,3.2.3,Win32,60
,,,,,,,,,,,,,,,,,,,,6,2.694999933,8,0.436000109,1,0,1200,845,1,1199,honey,11141,2019-10-21_21h59.10.007,SurveyExpMetaMem,3.2.3,Win32,60
,,,,,,,,,,,,,,,,,,,,8,2.618999958,8,0.260999918,1,0,1200,195,1,1199,laughing,11141,2019-10-21_21h59.10.007,SurveyExpMetaMem,3.2.3,Win32,60
,,,,,,,,,,,,,,,,,,,,8,2.243999958,9,0.289999962,1,0,1200,42,1,1199,accomplish,11141,2019-10-21_21h59.10.007,SurveyExpMetaMem,3.2.3,Win32,60
,,,,,,,,,,,,,,,,,,,,7,2.294000149,3,0.809000015,1,0,1200,427,1,1199,doubt,11141,2019-10-21_21h59.10.007,SurveyExpMetaMem,3.2.3,Win32,60
,,,,,,,,,,,,,,,,,,,,5,2.268000126,5,0.18599987,1,0,1200,577,1,1199,retreat,11141,2019-10-21_21h59.10.007,SurveyExpMetaMem,3.2.3,Win32,60
,,,,,,,,,,,,,,,,,,,,5,1.088999987,5,0.190999985,1,0,1200,234,1,1199,redeem,11141,2019-10-21_21h59.10.007,SurveyExpMetaMem,3.2.3,Win32,60
,,,,,,,,,,,,,,,,,,,,5,1.761000156,5,0.188999891,1,0,1200,1097,1,1199,bees,11141,2019-10-21_21h59.10.007,SurveyExpMetaMem,3.2.3,Win32,60
,,,,,,,,,,,,,,,,,,,,6,2.567000151,7,1.107000113,1,0,1200,848,1,1199,graceful,11141,2019-10-21_21h59.10.007,SurveyExpMetaMem,3.2.3,Win32,60
,,,,,,,,,,,,,,,,,,,,9,3.042000055,2,2.434000015,1,0,1200,1003,1,1199,jealousy,11141,2019-10-21_21h59.10.007,SurveyExpMetaMem,3.2.3,Win32,60
,,,,,,,,,,,,,,,,,,,,5,1.94900012,5,0.187999964,1,0,1200,1160,1,1199,enlist,11141,2019-10-21_21h59.10.007,SurveyExpMetaMem,3.2.3,Win32,60
,,,,,,,,,,,,,,,,,,,,5,1.159999847,5,0.195999861,1,0,1200,767,1,1199,civil,11141,2019-10-21_21h59.10.007,SurveyExpMetaMem,3.2.3,Win32,60
,,,,,,,,,,,,,,,,,,,,5,2.348999977,4,0.221999884,1,0,1200,534,1,1199,rules,11141,2019-10-21_21h59.10.007,SurveyExpMetaMem,3.2.3,Win32,60
,,,,,,,,,,,,,,,,,,,,5,1.457999945,5,0.190000057,1,0,1200,637,1,1199,flock,11141,2019-10-21_21h59.10.007,SurveyExpMetaMem,3.2.3,Win32,60
,,,,,,,,,,,,,,,,,,,,5,0.914000034,5,0.210999966,1,0,1200,388,1,1199,mildew,11141,2019-10-21_21h59.10.007,SurveyExpMetaMem,3.2.3,Win32,60
,,,,,,,,,,,,,,,,,,,,5,1.954999924,5,0.210000038,1,0,1200,1045,1,1199,scalding,11141,2019-10-21_21h59.10.007,SurveyExpMetaMem,3.2.3,Win32,60
,,,,,,,,,,,,,,,,,,,,5,1.001000166,5,0.204999924,1,0,1200,624,1,1199,tower,11141,2019-10-21_21h59.10.007,SurveyExpMetaMem,3.2.3,Win32,60
,,,,,,,,,,,,,,,,,,,,7,2.881999969,2,1.304000139,1,0,1200,1036,1,1199,anxiety,11141,2019-10-21_21h59.10.007,SurveyExpMetaMem,3.2.3,Win32,60
,,,,,,,,,,,,,,,,,,,,5,1.868000031,5,0.171999931,1,0,1200,828,1,1199,cooperative,11141,2019-10-21_21h59.10.007,SurveyExpMetaMem,3.2.3,Win32,60
,,,,,,,,,,,,,,,,,,,,7,2.490999937,4,0.522000074,1,0,1200,424,1,1199,fault,11141,2019-10-21_21h59.10.007,SurveyExpMetaMem,3.2.3,Win32,60
,,,,,,,,,,,,,,,,,,,,5,4.749000072,5,0.186000109,1,0,1200,687,1,1199,skinny,11141,2019-10-21_21h59.10.007,SurveyExpMetaMem,3.2.3,Win32,60
,,,,,,,,,,,,,,,,,,,,6,5.444999933,3,0.803000212,1,0,1200,307,1,1199,sick,11141,2019-10-21_21h59.10.007,SurveyExpMetaMem,3.2.3,Win32,60
,,,,,,,,,,,,,,,,,,,,5,2.166000128,5,0.17599988,1,0,1200,2,1,1199,zealous,11141,2019-10-21_21h59.10.007,SurveyExpMetaMem,3.2.3,Win32,60
,,,,,,,,,,,,,,,,,,,,6,2.80099988,4,0.620999813,1,0,1200,354,1,1199,cowardice,11141,2019-10-21_21h59.10.007,SurveyExpMetaMem,3.2.3,Win32,60
,,,,,,,,,,,,,,,,,,,,5,3.404000044,5,0.261000156,1,0,1200,1144,1,1199,yelp,11141,2019-10-21_21h59.10.007,SurveyExpMetaMem,3.2.3,Win32,60
,,,,,,,,,,,,,,,,,,,,5,2.076999903,5,0.223999977,1,0,1200,147,1,1199,cure,11141,2019-10-21_21h59.10.007,SurveyExpMetaMem,3.2.3,Win32,60
,,,,,,,,,,,,,,,,,,,,5,1.094000101,5,0.208999872,1,0,1200,611,1,1199,herring,11141,2019-10-21_21h59.10.007,SurveyExpMetaMem,3.2.3,Win32,60
,,,,,,,,,,,,,,,,,,,,8,3.536999941,1,4.303999901,1,0,1200,1042,1,1199,brutal,11141,2019-10-21_21h59.10.007,SurveyExpMetaMem,3.2.3,Win32,60
,,,,,,,,,,,,,,,,,,,,5,2.754999876,5,0.219000101,1,0,1200,321,1,1199,wart,11141,2019-10-21_21h59.10.007,SurveyExpMetaMem,3.2.3,Win32,60
,,,,,,,,,,,,,,,,,,,,9,1.819000006,1,0.676000118,1,0,1200,915,1,1199,abuse,11141,2019-10-21_21h59.10.007,SurveyExpMetaMem,3.2.3,Win32,60
,,,,,,,,,,,,,,,,,,,,7,2.733999968,9,0.767000198,1,0,1200,802,1,1199,familiar,11141,2019-10-21_21h59.10.007,SurveyExpMetaMem,3.2.3,Win32,60
,,,,,,,,,,,,,,,,,,,,8,8.397000074,1,1.385999918,1,0,1200,1081,1,1199,damage,11141,2019-10-21_21h59.10.007,SurveyExpMetaMem,3.2.3,Win32,60
,,,,,,,,,,,,,,,,,,,,9,2.960999966,9,0.186000109,1,0,1200,185,1,1199,flirt,11141,2019-10-21_21h59.10.007,SurveyExpMetaMem,3.2.3,Win32,60
,,,,,,,,,,,,,,,,,,,,7,5.627999783,3,2.375,1,0,1200,0,1,1199,dragon,11141,2019-10-21_21h59.10.007,SurveyExpMetaMem,3.2.3,Win32,60
,,,,,,,,,,,,,,,,,,,,5,1.655999899,5,0.18900013,1,0,1200,993,1,1199,remorse,11141,2019-10-21_21h59.10.007,SurveyExpMetaMem,3.2.3,Win32,60
,,,,,,,,,,,,,,,,,,,,5,1.670000076,5,0.178999901,1,0,1200,450,1,1199,overcast,11141,2019-10-21_21h59.10.007,SurveyExpMetaMem,3.2.3,Win32,60
,,,,,,,,,,,,,,,,,,,,5,2.218999863,5,0.193000078,1,0,1200,178,1,1199,alive,11141,2019-10-21_21h59.10.007,SurveyExpMetaMem,3.2.3,Win32,60
,,,,,,,,,,,,,,,,,,,,5,2.269999981,6,0.222999811,1,0,1200,6,1,1199,chest,11141,2019-10-21_21h59.10.007,SurveyExpMetaMem,3.2.3,Win32,60
,,,,,,,,,,,,,,,,,,,,5,1.583999872,6,0.237000227,1,0,1200,829,1,1199,innocent,11141,2019-10-21_21h59.10.007,SurveyExpMetaMem,3.2.3,Win32,60
,,,,,,,,,,,,,,,,,,,,5,1.835000038,5,0.184000015,1,0,1200,1123,1,1199,haunt,11141,2019-10-21_21h59.10.007,SurveyExpMetaMem,3.2.3,Win32,60
,,,,,,,,,,,,,,,,,,,,5,1.936000109,4,0.555999994,1,0,1200,558,1,1199,punk,11141,2019-10-21_21h59.10.007,SurveyExpMetaMem,3.2.3,Win32,60
,,,,,,,,,,,,,,,,,,,,5,2.986999989,6,0.493000031,1,0,1200,253,1,1199,soldier,11141,2019-10-21_21h59.10.007,SurveyExpMetaMem,3.2.3,Win32,60
,,,,,,,,,,,,,,,,,,,,5,1.38499999,6,0.411000013,1,0,1200,807,1,1199,person,11141,2019-10-21_21h59.10.007,SurveyExpMetaMem,3.2.3,Win32,60
,,,,,,,,,,,,,,,,,,,,5,1.671999931,6,0.509000063,1,0,1200,694,1,1199,pecan,11141,2019-10-21_21h59.10.007,SurveyExpMetaMem,3.2.3,Win32,60
,,,,,,,,,,,,,,,,,,,,5,1.617999792,5,0.128000021,1,0,1200,719,1,1199,western,11141,2019-10-21_21h59.10.007,SurveyExpMetaMem,3.2.3,Win32,60
,,,,,,,,,,,,,,,,,,,,5,1.55099988,4,0.468999863,1,0,1200,379,1,1199,slob,11141,2019-10-21_21h59.10.007,SurveyExpMetaMem,3.2.3,Win32,60
,,,,,,,,,,,,,,,,,,,,5,1.86500001,7,0.615999937,1,0,1200,213,1,1199,fair,11141,2019-10-21_21h59.10.007,SurveyExpMetaMem,3.2.3,Win32,60
,,,,,,,,,,,,,,,,,,,,5,1.121999979,3,0.644999981,1,0,1200,364,1,1199,stink,11141,2019-10-21_21h59.10.007,SurveyExpMetaMem,3.2.3,Win32,60
,,,,,,,,,,,,,,,,,,,,5,1.437000036,4,0.451999903,1,0,1200,1086,1,1199,irritate,11141,2019-10-21_21h59.10.007,SurveyExpMetaMem,3.2.3,Win32,60
,,,,,,,,,,,,,,,,,,,,5,1.233999968,4,0.587000132,1,0,1200,1079,1,1199,critic,11141,2019-10-21_21h59.10.007,SurveyExpMetaMem,3.2.3,Win32,60
,,,,,,,,,,,,,,,,,,,,5,1.009000063,4,0.255000114,1,0,1200,396,1,1199,unpopular,11141,2019-10-21_21h59.10.007,SurveyExpMetaMem,3.2.3,Win32,60
,,,,,,,,,,,,,,,,,,,,5,2.243999958,5,0.220999956,1,0,1200,489,1,1199,timid,11141,2019-10-21_21h59.10.007,SurveyExpMetaMem,3.2.3,Win32,60
,,,,,,,,,,,,,,,,,,,,5,1.075999975,4,0.256999969,1,0,1200,363,1,1199,dumb,11141,2019-10-21_21h59.10.007,SurveyExpMetaMem,3.2.3,Win32,60
,,,,,,,,,,,,,,,,,,,,5,1.174000025,4,0.194999933,1,0,1200,980,1,1199,liar,11141,2019-10-21_21h59.10.007,SurveyExpMetaMem,3.2.3,Win32,60
,,,,,,,,,,,,,,,,,,,,5,1.101999998,4,0.187000036,1,0,1200,1008,1,1199,gang,11141,2019-10-21_21h59.10.007,SurveyExpMetaMem,3.2.3,Win32,60
,,,,,,,,,,,,,,,,,,,,5,1.285000086,6,0.723999977,1,0,1200,686,1,1199,phone,11141,2019-10-21_21h59.10.007,SurveyExpMetaMem,3.2.3,Win32,60
,,,,,,,,,,,,,,,,,,,,5,1.220000029,5,0.236000061,1,0,1200,404,1,1199,nuisance,11141,2019-10-21_21h59.10.007,SurveyExpMetaMem,3.2.3,Win32,60
,,,,,,,,,,,,,,,,,,,,5,1.551000118,4,0.16899991,1,0,1200,911,1,1199,rejection,11141,2019-10-21_21h59.10.007,SurveyExpMetaMem,3.2.3,Win32,60
,,,,,,,,,,,,,,,,,,,,5,1.953000069,5,0.207000017,1,0,1200,23,1,1199,earn,11141,2019-10-21_21h59.10.007,SurveyExpMetaMem,3.2.3,Win32,60
,,,,,,,,,,,,,,,,,,,,7,3.730000019,8,0.96999979,1,0,1200,297,1,1199,pleasure,11141,2019-10-21_21h59.10.007,SurveyExpMetaMem,3.2.3,Win32,60
,,,,,,,,,,,,,,,,,,,,7,2.733999968,8,0.336000204,1,0,1200,114,1,1199,raise,11141,2019-10-21_21h59.10.007,SurveyExpMetaMem,3.2.3,Win32,60
,,,,,,,,,,,,,,,,,,,,6,9.88499999,4,0.295000076,1,0,1200,457,1,1199,confuse,11141,2019-10-21_21h59.10.007,SurveyExpMetaMem,3.2.3,Win32,60
,,,,,,,,,,,,,,,,,,,,8,4.996999979,9,0.273999929,1,0,1200,231,1,1199,cherish,11141,2019-10-21_21h59.10.007,SurveyExpMetaMem,3.2.3,Win32,60
,,,,,,,,,,,,,,,,,,,,6,3.479000092,3,0.509000063,1,0,1200,1009,1,1199,frightened,11141,2019-10-21_21h59.10.007,SurveyExpMetaMem,3.2.3,Win32,60
,,,,,,,,,,,,,,,,,,,,5,4.02699995,3,0.77699995,1,0,1200,382,1,1199,vulnerable,11141,2019-10-21_21h59.10.007,SurveyExpMetaMem,3.2.3,Win32,60
,,,,,,,,,,,,,,,,,,,,5,3.674000025,4,0.343999863,1,0,1200,597,1,1199,drool,11141,2019-10-21_21h59.10.007,SurveyExpMetaMem,3.2.3,Win32,60
,,,,,,,,,,,,,,,,,,,,5,1.102999926,3,0.756999969,1,0,1200,303,1,1199,death,11141,2019-10-21_21h59.10.007,SurveyExpMetaMem,3.2.3,Win32,60
,,,,,,,,,,,,,,,,,,,,7,2.384000063,7,0.153000116,1,0,1200,870,1,1199,safe,11141,2019-10-21_21h59.10.007,SurveyExpMetaMem,3.2.3,Win32,60
,,,,,,,,,,,,,,,,,,,,5,8.980999947,5,0.437999964,1,0,1200,621,1,1199,chew,11141,2019-10-21_21h59.10.007,SurveyExpMetaMem,3.2.3,Win32,60
,,,,,,,,,,,,,,,,,,,,5,2.5,6,0.370000124,1,0,1200,722,1,1199,consoled,11141,2019-10-21_21h59.10.007,SurveyExpMetaMem,3.2.3,Win32,60
,,,,,,,,,,,,,,,,,,,,5,6.523000002,4,0.242000103,1,0,1200,1084,1,1199,uneasy,11141,2019-10-21_21h59.10.007,SurveyExpMetaMem,3.2.3,Win32,60
,,,,,,,,,,,,,,,,,,,,4,5.114000082,3,1.71600008,1,0,1200,420,1,1199,smoke,11141,2019-10-21_21h59.10.007,SurveyExpMetaMem,3.2.3,Win32,60
,,,,,,,,,,,,,,,,,,,,5,1.654999971,5,0.192000151,1,0,1200,770,1,1199,buffalo,11141,2019-10-21_21h59.10.007,SurveyExpMetaMem,3.2.3,Win32,60
,,,,,,,,,,,,,,,,,,,,6,3.119999886,3,0.536999941,1,0,1200,453,1,1199,prude,11141,2019-10-21_21h59.10.007,SurveyExpMetaMem,3.2.3,Win32,60
,,,,,,,,,,,,,,,,,,,,5,3.710000038,2,0.539000034,1,0,1200,844,1,1199,soul,11141,2019-10-21_21h59.10.007,SurveyExpMetaMem,3.2.3,Win32,60
,,,,,,,,,,,,,,,,,,,,5,2.404000044,5,0.203999996,1,0,1200,324,1,1199,inferiority,11141,2019-10-21_21h59.10.007,SurveyExpMetaMem,3.2.3,Win32,60
,,,,,,,,,,,,,,,,,,,,5,2.325999975,5,0.20600009,1,0,1200,403,1,1199,wither,11141,2019-10-21_21h59.10.007,SurveyExpMetaMem,3.2.3,Win32,60
,,,,,,,,,,,,,,,,,,,,5,1.131999969,5,0.187999964,1,0,1200,743,1,1199,herbal,11141,2019-10-21_21h59.10.007,SurveyExpMetaMem,3.2.3,Win32,60
,,,,,,,,,,,,,,,,,,,,5,1.021000147,5,0.273999929,1,0,1200,49,1,1199,ecstatic,11141,2019-10-21_21h59.10.007,SurveyExpMetaMem,3.2.3,Win32,60
,,,,,,,,,,,,,,,,,,,,5,1.319999933,4,0.213999987,1,0,1200,101,1,1199,alien,11141,2019-10-21_21h59.10.007,SurveyExpMetaMem,3.2.3,Win32,60
,,,,,,,,,,,,,,,,,,,,5,1.07400012,5,0.191999912,1,0,1200,701,1,1199,telephone,11141,2019-10-21_21h59.10.007,SurveyExpMetaMem,3.2.3,Win32,60
,,,,,,,,,,,,,,,,,,,,6,1.89199996,6,0.207000017,1,0,1200,282,1,1199,luck,11141,2019-10-21_21h59.10.007,SurveyExpMetaMem,3.2.3,Win32,60
,,,,,,,,,,,,,,,,,,,,5,1.638999939,5,0.190999985,1,0,1200,1145,1,1199,officer,11141,2019-10-21_21h59.10.007,SurveyExpMetaMem,3.2.3,Win32,60
,,,,,,,,,,,,,,,,,,,,6,7.530999899,5,0.167000055,1,0,1200,17,1,1199,outgoing,11141,2019-10-21_21h59.10.007,SurveyExpMetaMem,3.2.3,Win32,60
,,,,,,,,,,,,,,,,,,,,5,4.269999981,5,0.197000027,1,0,1200,864,1,1199,blanket,11141,2019-10-21_21h59.10.007,SurveyExpMetaMem,3.2.3,Win32,60
,,,,,,,,,,,,,,,,,,,,5,1.200000048,5,0.222000122,1,0,1200,468,1,1199,noose,11141,2019-10-21_21h59.10.007,SurveyExpMetaMem,3.2.3,Win32,60
,,,,,,,,,,,,,,,,,,,,4,3.88499999,3,0.424999952,1,0,1200,322,1,1199,widow,11141,2019-10-21_21h59.10.007,SurveyExpMetaMem,3.2.3,Win32,60
,,,,,,,,,,,,,,,,,,,,7,1.65199995,7,0.194000006,1,0,1200,874,1,1199,butterfly,11141,2019-10-21_21h59.10.007,SurveyExpMetaMem,3.2.3,Win32,60
,,,,,,,,,,,,,,,,,,,,3,2.438999891,3,0.186000109,1,0,1200,381,1,1199,sloppy,11141,2019-10-21_21h59.10.007,SurveyExpMetaMem,3.2.3,Win32,60
,,,,,,,,,,,,,,,,,,,,5,3.183000088,5,0.154000044,1,0,1200,744,1,1199,village,11141,2019-10-21_21h59.10.007,SurveyExpMetaMem,3.2.3,Win32,60
,,,,,,,,,,,,,,,,,,,,3,3.402999878,3,0.188999891,1,0,1200,486,1,1199,fool,11141,2019-10-21_21h59.10.007,SurveyExpMetaMem,3.2.3,Win32,60
,,,,,,,,,,,,,,,,,,,,4,6.433000088,4,0.236999989,1,0,1200,1053,1,1199,surgery,11141,2019-10-21_21h59.10.007,SurveyExpMetaMem,3.2.3,Win32,60
,,,,,,,,,,,,,,,,,,,,5,3.914000034,5,0.186000109,1,0,1200,602,1,1199,vegetable,11141,2019-10-21_21h59.10.007,SurveyExpMetaMem,3.2.3,Win32,60
,,,,,,,,,,,,,,,,,,,,5,2.585000038,6,3.648999929,1,0,1200,888,1,1199,refreshment,11141,2019-10-21_21h59.10.007,SurveyExpMetaMem,3.2.3,Win32,60
,,,,,,,,,,,,,,,,,,,,5,1.385999918,4,0.174999952,1,0,1200,1139,1,1199,scare,11141,2019-10-21_21h59.10.007,SurveyExpMetaMem,3.2.3,Win32,60
,,,,,,,,,,,,,,,,,,,,5,4.21600008,5,0.19299984,1,0,1200,691,1,1199,circle,11141,2019-10-21_21h59.10.007,SurveyExpMetaMem,3.2.3,Win32,60
,,,,,,,,,,,,,,,,,,,,5,1.851999998,6,0.153999805,1,0,1200,863,1,1199,fireplace,11141,2019-10-21_21h59.10.007,SurveyExpMetaMem,3.2.3,Win32,60
,,,,,,,,,,,,,,,,,,,,5,2.761000156,5,0.221999884,1,0,1200,693,1,1199,key,11141,2019-10-21_21h59.10.007,SurveyExpMetaMem,3.2.3,Win32,60
,,,,,,,,,,,,,,,,,,,,5,1.521000147,6,0.813000202,1,0,1200,24,1,1199,model,11141,2019-10-21_21h59.10.007,SurveyExpMetaMem,3.2.3,Win32,60
,,,,,,,,,,,,,,,,,,,,5,2.815999985,4,1.173000097,1,0,1200,330,1,1199,sunburn,11141,2019-10-21_21h59.10.007,SurveyExpMetaMem,3.2.3,Win32,60
,,,,,,,,,,,,,,,,,,,,5,1.511000156,4,0.286000013,1,0,1200,1187,1,1199,drill,11141,2019-10-21_21h59.10.007,SurveyExpMetaMem,3.2.3,Win32,60
,,,,,,,,,,,,,,,,,,,,5,1.046000004,5,0.219000101,1,0,1200,603,1,1199,mane,11141,2019-10-21_21h59.10.007,SurveyExpMetaMem,3.2.3,Win32,60
,,,,,,,,,,,,,,,,,,,,5,5.017999887,4,0.421999931,1,0,1200,623,1,1199,suburban,11141,2019-10-21_21h59.10.007,SurveyExpMetaMem,3.2.3,Win32,60
,,,,,,,,,,,,,,,,,,,,5,1.815999985,5,0.187999964,1,0,1200,755,1,1199,soap,11141,2019-10-21_21h59.10.007,SurveyExpMetaMem,3.2.3,Win32,60
,,,,,,,,,,,,,,,,,,,,5,1.178000212,4,0.157999992,1,0,1200,1188,1,1199,swear,11141,2019-10-21_21h59.10.007,SurveyExpMetaMem,3.2.3,Win32,60
,,,,,,,,,,,,,,,,,,,,5,1.684999943,5,0.187000036,1,0,1200,625,1,1199,hat,11141,2019-10-21_21h59.10.007,SurveyExpMetaMem,3.2.3,Win32,60
,,,,,,,,,,,,,,,,,,,,5,1.730999947,4,0.937999964,1,0,1200,394,1,1199,dump,11141,2019-10-21_21h59.10.007,SurveyExpMetaMem,3.2.3,Win32,60
,,,,,,,,,,,,,,,,,,,,5,1.253999949,5,0.428999901,1,0,1200,785,1,1199,pond,11141,2019-10-21_21h59.10.007,SurveyExpMetaMem,3.2.3,Win32,60
,,,,,,,,,,,,,,,,,,,,5,1.307999849,5,0.238000154,1,0,1200,728,1,1199,patio,11141,2019-10-21_21h59.10.007,SurveyExpMetaMem,3.2.3,Win32,60
,,,,,,,,,,,,,,,,,,,,5,4.118000031,4,0.187000036,1,0,1200,458,1,1199,refuse,11141,2019-10-21_21h59.10.007,SurveyExpMetaMem,3.2.3,Win32,60
,,,,,,,,,,,,,,,,,,,,5,1.98300004,4,0.190000057,1,0,1200,386,1,1199,pale,11141,2019-10-21_21h59.10.007,SurveyExpMetaMem,3.2.3,Win32,60
,,,,,,,,,,,,,,,,,,,,5,1.709000111,6,0.253000021,1,0,1200,759,1,1199,prefer,11141,2019-10-21_21h59.10.007,SurveyExpMetaMem,3.2.3,Win32,60
,,,,,,,,,,,,,,,,,,,,5,1.873000145,5,0.32400012,1,0,1200,790,1,1199,binoculars,11141,2019-10-21_21h59.10.007,SurveyExpMetaMem,3.2.3,Win32,60
,,,,,,,,,,,,,,,,,,,,5,1.479000092,2,0.808000088,1,0,1200,1068,1,1199,riot,11141,2019-10-21_21h59.10.007,SurveyExpMetaMem,3.2.3,Win32,60
,,,,,,,,,,,,,,,,,,,,9,1.93599987,9,0.187999964,1,0,1200,45,1,1199,sex,11141,2019-10-21_21h59.10.007,SurveyExpMetaMem,3.2.3,Win32,60
,,,,,,,,,,,,,,,,,,,,7,3.383000135,6,1.291999817,1,0,1200,276,1,1199,pastry,11141,2019-10-21_21h59.10.007,SurveyExpMetaMem,3.2.3,Win32,60
,,,,,,,,,,,,,,,,,,,,2,3.720000029,1,0.32400012,1,0,1200,947,1,1199,shame,11141,2019-10-21_21h59.10.007,SurveyExpMetaMem,3.2.3,Win32,60
,,,,,,,,,,,,,,,,,,,,5,1.919999838,9,1.921000004,1,0,1200,136,1,1199,dog,11141,2019-10-21_21h59.10.007,SurveyExpMetaMem,3.2.3,Win32,60
,,,,,,,,,,,,,,,,,,,,7,2.114000082,9,0.480999947,1,0,1200,238,1,1199,sunshine,11141,2019-10-21_21h59.10.007,SurveyExpMetaMem,3.2.3,Win32,60
,,,,,,,,,,,,,,,,,,,,7,2.636000156,6,0.743999958,1,0,1200,820,1,1199,oxygen,11141,2019-10-21_21h59.10.007,SurveyExpMetaMem,3.2.3,Win32,60
,,,,,,,,,,,,,,,,,,,,8,2.981999874,9,0.24000001,1,0,1200,875,1,1199,fluffy,11141,2019-10-21_21h59.10.007,SurveyExpMetaMem,3.2.3,Win32,60
,,,,,,,,,,,,,,,,,,,,5,5.394999981,2,3.184999943,1,0,1200,559,1,1199,lazy,11141,2019-10-21_21h59.10.007,SurveyExpMetaMem,3.2.3,Win32,60
,,,,,,,,,,,,,,,,,,,,6,3.595000029,3,0.604000092,1,0,1200,448,1,1199,depart,11141,2019-10-21_21h59.10.007,SurveyExpMetaMem,3.2.3,Win32,60
,,,,,,,,,,,,,,,,,,,,6,3.332000017,2,2.623000145,1,0,1200,1108,1,1199,spider,11141,2019-10-21_21h59.10.007,SurveyExpMetaMem,3.2.3,Win32,60
,,,,,,,,,,,,,,,,,,,,5,3.023000002,7,0.792000055,1,0,1200,271,1,1199,applaud,11141,2019-10-21_21h59.10.007,SurveyExpMetaMem,3.2.3,Win32,60
,,,,,,,,,,,,,,,,,,,,5,1.588999987,6,0.180000067,1,0,1200,266,1,1199,juice,11141,2019-10-21_21h59.10.007,SurveyExpMetaMem,3.2.3,Win32,60
,,,,,,,,,,,,,,,,,,,,5,3.116999865,5,0.190999985,1,0,1200,540,1,1199,derelict,11141,2019-10-21_21h59.10.007,SurveyExpMetaMem,3.2.3,Win32,60
,,,,,,,,,,,,,,,,,,,,5,4.08100009,1,1.056999922,1,0,1200,319,1,1199,malaria,11141,2019-10-21_21h59.10.007,SurveyExpMetaMem,3.2.3,Win32,60
,,,,,,,,,,,,,,,,,,,,5,1.690999985,4,0.285000086,1,0,1200,395,1,1199,lack,11141,2019-10-21_21h59.10.007,SurveyExpMetaMem,3.2.3,Win32,60
,,,,,,,,,,,,,,,,,,,,5,1.3349998,4,0.161000013,1,0,1200,1152,1,1199,scream,11141,2019-10-21_21h59.10.007,SurveyExpMetaMem,3.2.3,Win32,60
,,,,,,,,,,,,,,,,,,,,5,3.651000023,5,0.522000074,1,0,1200,137,1,1199,money,11141,2019-10-21_21h59.10.007,SurveyExpMetaMem,3.2.3,Win32,60
,,,,,,,,,,,,,,,,,,,,7,3.986999989,9,1.375,1,0,1200,855,1,1199,girl,11141,2019-10-21_21h59.10.007,SurveyExpMetaMem,3.2.3,Win32,60
,,,,,,,,,,,,,,,,,,,,6,3.835999966,3,0.90199995,1,0,1200,921,1,1199,humiliation,11141,2019-10-21_21h59.10.007,SurveyExpMetaMem,3.2.3,Win32,60
,,,,,,,,,,,,,,,,,,,,7,2.136000156,7,0.256000042,1,0,1200,97,1,1199,enthusiastic,11141,2019-10-21_21h59.10.007,SurveyExpMetaMem,3.2.3,Win32,60
,,,,,,,,,,,,,,,,,,,,7,2.210999966,2,0.636999846,1,0,1200,1002,1,1199,wounds,11141,2019-10-21_21h59.10.007,SurveyExpMetaMem,3.2.3,Win32,60
,,,,,,,,,,,,,,,,,,,,5,1.867000103,5,0.203000069,1,0,1200,412,1,1199,mucus,11141,2019-10-21_21h59.10.007,SurveyExpMetaMem,3.2.3,Win32,60
,,,,,,,,,,,,,,,,,,,,6,2.167999983,2,0.641000032,1,0,1200,968,1,1199,insult,11141,2019-10-21_21h59.10.007,SurveyExpMetaMem,3.2.3,Win32,60
,,,,,,,,,,,,,,,,,,,,7,1.884000063,4,0.467000008,1,0,1200,1126,1,1199,offensive,11141,2019-10-21_21h59.10.007,SurveyExpMetaMem,3.2.3,Win32,60
,,,,,,,,,,,,,,,,,,,,5,1.140000105,5,0.210000038,1,0,1200,789,1,1199,green,11141,2019-10-21_21h59.10.007,SurveyExpMetaMem,3.2.3,Win32,60
,,,,,,,,,,,,,,,,,,,,5,2.453000069,5,0.171999931,1,0,1200,539,1,1199,novice,11141,2019-10-21_21h59.10.007,SurveyExpMetaMem,3.2.3,Win32,60
,,,,,,,,,,,,,,,,,,,,5,1.819999933,5,0.210999966,1,0,1200,626,1,1199,pan,11141,2019-10-21_21h59.10.007,SurveyExpMetaMem,3.2.3,Win32,60
,,,,,,,,,,,,,,,,,,,,5,1.070999861,4,0.236000061,1,0,1200,1044,1,1199,lost,11141,2019-10-21_21h59.10.007,SurveyExpMetaMem,3.2.3,Win32,60
,,,,,,,,,,,,,,,,,,,,5,0.806999922,4,0.228999853,1,0,1200,408,1,1199,bore,11141,2019-10-21_21h59.10.007,SurveyExpMetaMem,3.2.3,Win32,60
,,,,,,,,,,,,,,,,,,,,5,1.034999847,4,0.205999851,1,0,1200,505,1,1199,exhaust,11141,2019-10-21_21h59.10.007,SurveyExpMetaMem,3.2.3,Win32,60
,,,,,,,,,,,,,,,,,,,,5,2.125,6,0.161000013,1,0,1200,89,1,1199,cruiseship,11141,2019-10-21_21h59.10.007,SurveyExpMetaMem,3.2.3,Win32,60
,,,,,,,,,,,,,,,,,,,,5,2.7099998,6,0.292999983,1,0,1200,737,1,1199,lamb,11141,2019-10-21_21h59.10.007,SurveyExpMetaMem,3.2.3,Win32,60
,,,,,,,,,,,,,,,,,,,,9,3.835000038,2,1.76699996,1,0,1200,1116,1,1199,emergency,11141,2019-10-21_21h59.10.007,SurveyExpMetaMem,3.2.3,Win32,60
,,,,,,,,,,,,,,,,,,,,7,1.97300005,2,0.835999966,1,0,1200,1197,1,1199,command,11141,2019-10-21_21h59.10.007,SurveyExpMetaMem,3.2.3,Win32,60
,,,,,,,,,,,,,,,,,,,,5,2.180999994,5,0.170000076,1,0,1200,778,1,1199,adorn,11141,2019-10-21_21h59.10.007,SurveyExpMetaMem,3.2.3,Win32,60
,,,,,,,,,,,,,,,,,,,,5,1.61500001,6,0.150999784,1,0,1200,756,1,1199,plant,11141,2019-10-21_21h59.10.007,SurveyExpMetaMem,3.2.3,Win32,60
,,,,,,,,,,,,,,,,,,,,5,1.876000166,6,0.210000038,1,0,1200,1192,1,1199,startled,11141,2019-10-21_21h59.10.007,SurveyExpMetaMem,3.2.3,Win32,60
,,,,,,,,,,,,,,,,,,,,5,1.150000095,6,0.172999859,1,0,1200,815,1,1199,apple,11141,2019-10-21_21h59.10.007,SurveyExpMetaMem,3.2.3,Win32,60
,,,,,,,,,,,,,,,,,,,,6,2.253000021,3,0.440000057,1,0,1200,938,1,1199,seasick,11141,2019-10-21_21h59.10.007,SurveyExpMetaMem,3.2.3,Win32,60
,,,,,,,,,,,,,,,,,,,,5,2.720999956,5,1.101999998,1,0,1200,215,1,1199,salary,11141,2019-10-21_21h59.10.007,SurveyExpMetaMem,3.2.3,Win32,60
,,,,,,,,,,,,,,,,,,,,5,2.019999981,3,0.430000067,1,0,1200,490,1,1199,detached,11141,2019-10-21_21h59.10.007,SurveyExpMetaMem,3.2.3,Win32,60
,,,,,,,,,,,,,,,,,,,,5,1.390000105,5,0.205000162,1,0,1200,393,1,1199,droop,11141,2019-10-21_21h59.10.007,SurveyExpMetaMem,3.2.3,Win32,60
,,,,,,,,,,,,,,,,,,,,5,1.210999966,7,0.526000023,1,0,1200,834,1,1199,crown,11141,2019-10-21_21h59.10.007,SurveyExpMetaMem,3.2.3,Win32,60
,,,,,,,,,,,,,,,,,,,,5,1.223999977,3,0.503000021,1,0,1200,1016,1,1199,awful,11141,2019-10-21_21h59.10.007,SurveyExpMetaMem,3.2.3,Win32,60
,,,,,,,,,,,,,,,,,,,,5,2.059999943,5,0.273000002,1,0,1200,591,1,1199,bereavement,11141,2019-10-21_21h59.10.007,SurveyExpMetaMem,3.2.3,Win32,60
,,,,,,,,,,,,,,,,,,,,5,2.027000189,5,0.20600009,1,0,1200,111,1,1199,band,11141,2019-10-21_21h59.10.007,SurveyExpMetaMem,3.2.3,Win32,60
,,,,,,,,,,,,,,,,,,,,6,3.111000061,3,0.369999886,1,0,1200,345,1,1199,unfortunate,11141,2019-10-21_21h59.10.007,SurveyExpMetaMem,3.2.3,Win32,60
,,,,,,,,,,,,,,,,,,,,8,2.252999783,2,0.854000092,1,0,1200,937,1,1199,prison,11141,2019-10-21_21h59.10.007,SurveyExpMetaMem,3.2.3,Win32,60
,,,,,,,,,,,,,,,,,,,,8,1.588000059,8,0.188999891,1,0,1200,184,1,1199,surprised,11141,2019-10-21_21h59.10.007,SurveyExpMetaMem,3.2.3,Win32,60
,,,,,,,,,,,,,,,,,,,,6,2.491999865,6,0.433000088,1,0,1200,776,1,1199,doll,11141,2019-10-21_21h59.10.007,SurveyExpMetaMem,3.2.3,Win32,60
,,,,,,,,,,,,,,,,,,,,5,1.248000145,5,0.27699995,1,0,1200,1104,1,1199,avalanche,11141,2019-10-21_21h59.10.007,SurveyExpMetaMem,3.2.3,Win32,60
,,,,,,,,,,,,,,,,,,,,5,2.415999889,5,0.238000154,1,0,1200,745,1,1199,inform,11141,2019-10-21_21h59.10.007,SurveyExpMetaMem,3.2.3,Win32,60
,,,,,,,,,,,,,,,,,,,,8,2.083999872,9,0.315000057,1,0,1200,82,1,1199,stunning,11141,2019-10-21_21h59.10.007,SurveyExpMetaMem,3.2.3,Win32,60
,,,,,,,,,,,,,,,,,,,,8,1.789000034,2,1.299999952,1,0,1200,1048,1,1199,paranoid,11141,2019-10-21_21h59.10.007,SurveyExpMetaMem,3.2.3,Win32,60
,,,,,,,,,,,,,,,,,,,,5,1.728999853,5,0.753000021,1,0,1200,732,1,1199,humble,11141,2019-10-21_21h59.10.007,SurveyExpMetaMem,3.2.3,Win32,60
,,,,,,,,,,,,,,,,,,,,6,1.894999981,3,0.463999987,1,0,1200,326,1,1199,scam,11141,2019-10-21_21h59.10.007,SurveyExpMetaMem,3.2.3,Win32,60
,,,,,,,,,,,,,,,,,,,,6,2.364000082,6,0.238000154,1,0,1200,158,1,1199,engage,11141,2019-10-21_21h59.10.007,SurveyExpMetaMem,3.2.3,Win32,60
,,,,,,,,,,,,,,,,,,,,5,2.898000002,5,0.268999815,1,0,1200,650,1,1199,native,11141,2019-10-21_21h59.10.007,SurveyExpMetaMem,3.2.3,Win32,60
,,,,,,,,,,,,,,,,,,,,6,2.415999889,3,0.504999876,1,0,1200,1194,1,1199,obsession,11141,2019-10-21_21h59.10.007,SurveyExpMetaMem,3.2.3,Win32,60
,,,,,,,,,,,,,,,,,,,,5,1.519999981,5,0.210000038,1,0,1200,121,1,1199,self,11141,2019-10-21_21h59.10.007,SurveyExpMetaMem,3.2.3,Win32,60
,,,,,,,,,,,,,,,,,,,,6,2.49000001,4,0.842000008,1,0,1200,451,1,1199,lame,11141,2019-10-21_21h59.10.007,SurveyExpMetaMem,3.2.3,Win32,60
,,,,,,,,,,,,,,,,,,,,5,1.387000084,5,0.191999912,1,0,1200,699,1,1199,leg,11141,2019-10-21_21h59.10.007,SurveyExpMetaMem,3.2.3,Win32,60
,,,,,,,,,,,,,,,,,,,,7,6.055000067,8,1.368999958,1,0,1200,246,1,1199,complete,11141,2019-10-21_21h59.10.007,SurveyExpMetaMem,3.2.3,Win32,60
,,,,,,,,,,,,,,,,,,,,6,3.730999947,6,0.220000029,1,0,1200,156,1,1199,gym,11141,2019-10-21_21h59.10.007,SurveyExpMetaMem,3.2.3,Win32,60
,,,,,,,,,,,,,,,,,,,,5,2.208999872,5,0.211999893,1,0,1200,761,1,1199,corn,11141,2019-10-21_21h59.10.007,SurveyExpMetaMem,3.2.3,Win32,60
,,,,,,,,,,,,,,,,,,,,7,1.899000168,9,1.003999949,1,0,1200,188,1,1199,profit,11141,2019-10-21_21h59.10.007,SurveyExpMetaMem,3.2.3,Win32,60
,,,,,,,,,,,,,,,,,,,,8,6.56400013,6,3.271999836,1,0,1200,204,1,1199,crazy,11141,2019-10-21_21h59.10.007,SurveyExpMetaMem,3.2.3,Win32,60
,,,,,,,,,,,,,,,,,,,,5,1.401000023,5,0.186999798,1,0,1200,169,1,1199,aid,11141,2019-10-21_21h59.10.007,SurveyExpMetaMem,3.2.3,Win32,60
,,,,,,,,,,,,,,,,,,,,5,0.991000175,6,0.808000088,1,0,1200,263,1,1199,answer,11141,2019-10-21_21h59.10.007,SurveyExpMetaMem,3.2.3,Win32,60
,,,,,,,,,,,,,,,,,,,,7,3.440999985,8,0.552000046,1,0,1200,164,1,1199,marry,11141,2019-10-21_21h59.10.007,SurveyExpMetaMem,3.2.3,Win32,60
,,,,,,,,,,,,,,,,,,,,9,2.79399991,7,0.599999905,1,0,1200,74,1,1199,explore,11141,2019-10-21_21h59.10.007,SurveyExpMetaMem,3.2.3,Win32,60
,,,,,,,,,,,,,,,,,,,,5,4.469000101,6,0.328999996,1,0,1200,771,1,1199,practical,11141,2019-10-21_21h59.10.007,SurveyExpMetaMem,3.2.3,Win32,60
,,,,,,,,,,,,,,,,,,,,5,2.568000078,4,0.257999897,1,0,1200,521,1,1199,laundry,11141,2019-10-21_21h59.10.007,SurveyExpMetaMem,3.2.3,Win32,60
,,,,,,,,,,,,,,,,,,,,5,2.756000042,5,0.860000134,1,0,1200,715,1,1199,sheltered,11141,2019-10-21_21h59.10.007,SurveyExpMetaMem,3.2.3,Win32,60
,,,,,,,,,,,,,,,,,,,,6,1.776000023,3,0.512000084,1,0,1200,1025,1,1199,deadly,11141,2019-10-21_21h59.10.007,SurveyExpMetaMem,3.2.3,Win32,60
,,,,,,,,,,,,,,,,,,,,5,2.14199996,5,0.184999943,1,0,1200,1089,1,1199,ridicule,11141,2019-10-21_21h59.10.007,SurveyExpMetaMem,3.2.3,Win32,60
,,,,,,,,,,,,,,,,,,,,5,1.575999975,6,0.178000212,1,0,1200,189,1,1199,thoughtful,11141,2019-10-21_21h59.10.007,SurveyExpMetaMem,3.2.3,Win32,60
,,,,,,,,,,,,,,,,,,,,6,2.386000156,8,1.006999969,1,0,1200,177,1,1199,frosting,11141,2019-10-21_21h59.10.007,SurveyExpMetaMem,3.2.3,Win32,60
,,,,,,,,,,,,,,,,,,,,8,1.996999979,8,0.176000118,1,0,1200,175,1,1199,playground,11141,2019-10-21_21h59.10.007,SurveyExpMetaMem,3.2.3,Win32,60
,,,,,,,,,,,,,,,,,,,,7,1.527000189,8,0.24000001,1,0,1200,105,1,1199,curious,11141,2019-10-21_21h59.10.007,SurveyExpMetaMem,3.2.3,Win32,60
,,,,,,,,,,,,,,,,,,,,6,5.116999865,4,0.541000128,1,0,1200,552,1,1199,shadow,11141,2019-10-21_21h59.10.007,SurveyExpMetaMem,3.2.3,Win32,60
,,,,,,,,,,,,,,,,,,,,5,7.5,2,0.602999926,1,0,1200,562,1,1199,average,11141,2019-10-21_21h59.10.007,SurveyExpMetaMem,3.2.3,Win32,60
,,,,,,,,,,,,,,,,,,,,5,2.921999931,5,0.207999945,1,0,1200,607,1,1199,greyhound,11141,2019-10-21_21h59.10.007,SurveyExpMetaMem,3.2.3,Win32,60
,,,,,,,,,,,,,,,,,,,,5,1.856000185,4,0.243999958,1,0,1200,553,1,1199,corner,11141,2019-10-21_21h59.10.007,SurveyExpMetaMem,3.2.3,Win32,60
,,,,,,,,,,,,,,,,,,,,5,1.278000116,1,1.024999857,1,0,1200,976,1,1199,tumor,11141,2019-10-21_21h59.10.007,SurveyExpMetaMem,3.2.3,Win32,60
,,,,,,,,,,,,,,,,,,,,6,6.295000076,3,0.153000116,1,0,1200,279,1,1199,bargain,11141,2019-10-21_21h59.10.007,SurveyExpMetaMem,3.2.3,Win32,60
,,,,,,,,,,,,,,,,,,,,5,6.572000027,5,0.220000029,1,0,1200,627,1,1199,introductory,11141,2019-10-21_21h59.10.007,SurveyExpMetaMem,3.2.3,Win32,60
,,,,,,,,,,,,,,,,,,,,5,2.266000032,4,0.337000132,1,0,1200,332,1,1199,sewage,11141,2019-10-21_21h59.10.007,SurveyExpMetaMem,3.2.3,Win32,60
,,,,,,,,,,,,,,,,,,,,5,1.378000021,5,0.213999987,1,0,1200,830,1,1199,pear,11141,2019-10-21_21h59.10.007,SurveyExpMetaMem,3.2.3,Win32,60
,,,,,,,,,,,,,,,,,,,,5,1.687999964,6,0.203000069,1,0,1200,885,1,1199,cozy,11141,2019-10-21_21h59.10.007,SurveyExpMetaMem,3.2.3,Win32,60
,,,,,,,,,,,,,,,,,,,,6,2.167000055,2,0.169999838,1,0,1200,1051,1,1199,insane,11141,2019-10-21_21h59.10.007,SurveyExpMetaMem,3.2.3,Win32,60
,,,,,,,,,,,,,,,,,,,,6,4.305999994,3,0.615999937,1,0,1200,916,1,1199,starvation,11141,2019-10-21_21h59.10.007,SurveyExpMetaMem,3.2.3,Win32,60
,,,,,,,,,,,,,,,,,,,,6,5.118000031,8,0.570000172,1,0,1200,91,1,1199,pretty,11141,2019-10-21_21h59.10.007,SurveyExpMetaMem,3.2.3,Win32,60
,,,,,,,,,,,,,,,,,,,,6,1.573000193,8,0.334000111,1,0,1200,688,1,1199,jelly,11141,2019-10-21_21h59.10.007,SurveyExpMetaMem,3.2.3,Win32,60
,,,,,,,,,,,,,,,,,,,,5,5.042999983,6,0.174000025,1,0,1200,704,1,1199,flute,11141,2019-10-21_21h59.10.007,SurveyExpMetaMem,3.2.3,Win32,60
,,,,,,,,,,,,,,,,,,,,5,1.551000118,6,0.187000036,1,0,1200,660,1,1199,rock,11141,2019-10-21_21h59.10.007,SurveyExpMetaMem,3.2.3,Win32,60
,,,,,,,,,,,,,,,,,,,,5,2.655999899,4,0.111999989,1,0,1200,988,1,1199,deserter,11141,2019-10-21_21h59.10.007,SurveyExpMetaMem,3.2.3,Win32,60
,,,,,,,,,,,,,,,,,,,,5,1.878999949,4,0.138999939,1,0,1200,13,1,1199,mingle,11141,2019-10-21_21h59.10.007,SurveyExpMetaMem,3.2.3,Win32,60
,,,,,,,,,,,,,,,,,,,,5,6.115999937,6,0.636000156,1,0,1200,689,1,1199,land,11141,2019-10-21_21h59.10.007,SurveyExpMetaMem,3.2.3,Win32,60
,,,,,,,,,,,,,,,,,,,,7,1.971999884,3,0.171999931,1,0,1200,924,1,1199,terrible,11141,2019-10-21_21h59.10.007,SurveyExpMetaMem,3.2.3,Win32,60
,,,,,,,,,,,,,,,,,,,,7,1.052999973,2,0.569999933,1,0,1200,537,1,1199,absurd,11141,2019-10-21_21h59.10.007,SurveyExpMetaMem,3.2.3,Win32,60
,,,,,,,,,,,,,,,,,,,,5,1.318000078,5,0.193000078,1,0,1200,498,1,1199,alimony,11141,2019-10-21_21h59.10.007,SurveyExpMetaMem,3.2.3,Win32,60
,,,,,,,,,,,,,,,,,,,,5,1.368999958,5,0.197999954,1,0,1200,811,1,1199,tenderness,11141,2019-10-21_21h59.10.007,SurveyExpMetaMem,3.2.3,Win32,60
,,,,,,,,,,,,,,,,,,,,5,1.351999998,5,0.193000078,1,0,1200,630,1,1199,website,11141,2019-10-21_21h59.10.007,SurveyExpMetaMem,3.2.3,Win32,60
,,,,,,,,,,,,,,,,,,,,5,1.24000001,7,1.217999935,1,0,1200,893,1,1199,nature,11141,2019-10-21_21h59.10.007,SurveyExpMetaMem,3.2.3,Win32,60
,,,,,,,,,,,,,,,,,,,,5,1.7900002,5,0.302999973,1,0,1200,474,1,1199,weary,11141,2019-10-21_21h59.10.007,SurveyExpMetaMem,3.2.3,Win32,60
,,,,,,,,,,,,,,,,,,,,6,3.749000072,2,0.953000069,1,0,1200,714,1,1199,courtyard,11141,2019-10-21_21h59.10.007,SurveyExpMetaMem,3.2.3,Win32,60
,,,,,,,,,,,,,,,,,,,,5,3.197999954,5,0.278000116,1,0,1200,1165,1,1199,revolt,11141,2019-10-21_21h59.10.007,SurveyExpMetaMem,3.2.3,Win32,60
,,,,,,,,,,,,,,,,,,,,5,1.650000095,4,0.297999859,1,0,1200,9,1,1199,try,11141,2019-10-21_21h59.10.007,SurveyExpMetaMem,3.2.3,Win32,60
,,,,,,,,,,,,,,,,,,,,5,3.121999979,8,0.776000023,1,0,1200,38,1,1199,cheeseburger,11141,2019-10-21_21h59.10.007,SurveyExpMetaMem,3.2.3,Win32,60
,,,,,,,,,,,,,,,,,,,,5,1.531999826,5,0.172999859,1,0,1200,567,1,1199,folly,11141,2019-10-21_21h59.10.007,SurveyExpMetaMem,3.2.3,Win32,60
,,,,,,,,,,,,,,,,,,,,5,1.330000162,5,0.560000181,1,0,1200,483,1,1199,condescension,11141,2019-10-21_21h59.10.007,SurveyExpMetaMem,3.2.3,Win32,60
,,,,,,,,,,,,,,,,,,,,5,2.267999887,6,11.38499999,1,0,1200,692,1,1199,medicine,11141,2019-10-21_21h59.10.007,SurveyExpMetaMem,3.2.3,Win32,60
,,,,,,,,,,,,,,,,,,,,5,2.055000067,4,0.485000134,1,0,1200,463,1,1199,limp,11141,2019-10-21_21h59.10.007,SurveyExpMetaMem,3.2.3,Win32,60
,,,,,,,,,,,,,,,,,,,,5,6.865999937,5,0.513999939,1,0,1200,151,1,1199,react,11141,2019-10-21_21h59.10.007,SurveyExpMetaMem,3.2.3,Win32,60
,,,,,,,,,,,,,,,,,,,,7,1.670000076,2,1.019999981,1,0,1200,1033,1,1199,horror,11141,2019-10-21_21h59.10.007,SurveyExpMetaMem,3.2.3,Win32,60
,,,,,,,,,,,,,,,,,,,,5,6.622999907,5,0.588000059,1,0,1200,780,1,1199,grass,11141,2019-10-21_21h59.10.007,SurveyExpMetaMem,3.2.3,Win32,60
,,,,,,,,,,,,,,,,,,,,6,1.786000013,4,0.447999954,1,0,1200,1046,1,1199,unsafe,11141,2019-10-21_21h59.10.007,SurveyExpMetaMem,3.2.3,Win32,60
,,,,,,,,,,,,,,,,,,,,5,1.217000008,5,0.210999966,1,0,1200,1131,1,1199,envious,11141,2019-10-21_21h59.10.007,SurveyExpMetaMem,3.2.3,Win32,60
,,,,,,,,,,,,,,,,,,,,6,1.336999893,4,0.388000011,1,0,1200,1120,1,1199,gun,11141,2019-10-21_21h59.10.007,SurveyExpMetaMem,3.2.3,Win32,60
,,,,,,,,,,,,,,,,,,,,5,2.433000088,6,1.204999924,1,0,1200,805,1,1199,autumn,11141,2019-10-21_21h59.10.007,SurveyExpMetaMem,3.2.3,Win32,60
,,,,,,,,,,,,,,,,,,,,5,1.69900012,5,0.219000101,1,0,1200,1118,1,1199,frantic,11141,2019-10-21_21h59.10.007,SurveyExpMetaMem,3.2.3,Win32,60
,,,,,,,,,,,,,,,,,,,,6,3.282999992,4,0.375999928,1,0,1200,1098,1,1199,confused,11141,2019-10-21_21h59.10.007,SurveyExpMetaMem,3.2.3,Win32,60
,,,,,,,,,,,,,,,,,,,,5,3.205000162,7,0.407999992,1,0,1200,1129,1,1199,spanking,11141,2019-10-21_21h59.10.007,SurveyExpMetaMem,3.2.3,Win32,60
,,,,,,,,,,,,,,,,,,,,5,5.470000029,6,0.357999802,1,0,1200,754,1,1199,reflection,11141,2019-10-21_21h59.10.007,SurveyExpMetaMem,3.2.3,Win32,60
,,,,,,,,,,,,,,,,,,,,5,1.115999937,5,0.190999985,1,0,1200,560,1,1199,spurn,11141,2019-10-21_21h59.10.007,SurveyExpMetaMem,3.2.3,Win32,60
,,,,,,,,,,,,,,,,,,,,5,1.950999975,4,0.246000051,1,0,1200,439,1,1199,spit,11141,2019-10-21_21h59.10.007,SurveyExpMetaMem,3.2.3,Win32,60
,,,,,,,,,,,,,,,,,,,,5,2.303999901,4,0.236999989,1,0,1200,482,1,1199,cell,11141,2019-10-21_21h59.10.007,SurveyExpMetaMem,3.2.3,Win32,60
,,,,,,,,,,,,,,,,,,,,6,3.174000025,6,1.15199995,1,0,1200,1172,1,1199,overwhelmed,11141,2019-10-21_21h59.10.007,SurveyExpMetaMem,3.2.3,Win32,60
,,,,,,,,,,,,,,,,,,,,5,3.187999964,5,0.369999886,1,0,1200,645,1,1199,telescope,11141,2019-10-21_21h59.10.007,SurveyExpMetaMem,3.2.3,Win32,60
,,,,,,,,,,,,,,,,,,,,7,1.821000099,3,0.601999998,1,0,1200,481,1,1199,melancholy,11141,2019-10-21_21h59.10.007,SurveyExpMetaMem,3.2.3,Win32,60
,,,,,,,,,,,,,,,,,,,,5,1.696999788,7,0.421999931,1,0,1200,738,1,1199,horse,11141,2019-10-21_21h59.10.007,SurveyExpMetaMem,3.2.3,Win32,60
,,,,,,,,,,,,,,,,,,,,5,2.577000141,5,0.186999798,1,0,1200,366,1,1199,fatigue,11141,2019-10-21_21h59.10.007,SurveyExpMetaMem,3.2.3,Win32,60
,,,,,,,,,,,,,,,,,,,,5,1.555999994,5,0.209000111,1,0,1200,165,1,1199,sizzle,11141,2019-10-21_21h59.10.007,SurveyExpMetaMem,3.2.3,Win32,60
,,,,,,,,,,,,,,,,,,,,8,15.15100002,7,1.437999964,1,0,1200,78,1,1199,energetic,11141,2019-10-21_21h59.10.007,SurveyExpMetaMem,3.2.3,Win32,60
,,,,,,,,,,,,,,,,,,,,5,2.363999844,5,0.320999861,1,0,1200,415,1,1199,grime,11141,2019-10-21_21h59.10.007,SurveyExpMetaMem,3.2.3,Win32,60
,,,,,,,,,,,,,,,,,,,,8,3.532999992,9,1.029999971,1,0,1200,113,1,1199,bridesmaid,11141,2019-10-21_21h59.10.007,SurveyExpMetaMem,3.2.3,Win32,60
,,,,,,,,,,,,,,,,,,,,6,2.934000015,3,0.661999941,1,0,1200,517,1,1199,habit,11141,2019-10-21_21h59.10.007,SurveyExpMetaMem,3.2.3,Win32,60
,,,,,,,,,,,,,,,,,,,,3,3.805999994,3,1.875,1,0,1200,436,1,1199,mediocre,11141,2019-10-21_21h59.10.007,SurveyExpMetaMem,3.2.3,Win32,60
,,,,,,,,,,,,,,,,,,,,5,3.420000076,5,0.187999964,1,0,1200,216,1,1199,vigorous,11141,2019-10-21_21h59.10.007,SurveyExpMetaMem,3.2.3,Win32,60
,,,,,,,,,,,,,,,,,,,,6,1.171999931,4,0.376999855,1,0,1200,1037,1,1199,scared,11141,2019-10-21_21h59.10.007,SurveyExpMetaMem,3.2.3,Win32,60
,,,,,,,,,,,,,,,,,,,,7,3.36500001,3,1.486999989,1,0,1200,940,1,1199,war,11141,2019-10-21_21h59.10.007,SurveyExpMetaMem,3.2.3,Win32,60
,,,,,,,,,,,,,,,,,,,,5,26.86299992,6,0.869000196,1,0,1200,668,1,1199,unit,11141,2019-10-21_21h59.10.007,SurveyExpMetaMem,3.2.3,Win32,60
,,,,,,,,,,,,,,,,,,,,5,3.049000025,5,0.222000122,1,0,1200,549,1,1199,beet,11141,2019-10-21_21h59.10.007,SurveyExpMetaMem,3.2.3,Win32,60
,,,,,,,,,,,,,,,,,,,,7,1.395000219,4,0.417000055,1,0,1200,909,1,1199,terrified,11141,2019-10-21_21h59.10.007,SurveyExpMetaMem,3.2.3,Win32,60
,,,,,,,,,,,,,,,,,,,,5,2.461000204,6,0.852999926,1,0,1200,140,1,1199,riches,11141,2019-10-21_21h59.10.007,SurveyExpMetaMem,3.2.3,Win32,60
,,,,,,,,,,,,,,,,,,,,9,2.305999994,1,0.753999949,1,0,1200,1028,1,1199,terror,11141,2019-10-21_21h59.10.007,SurveyExpMetaMem,3.2.3,Win32,60
,,,,,,,,,,,,,,,,,,,,6,4.21600008,7,0.653999805,1,0,1200,724,1,1199,owl,11141,2019-10-21_21h59.10.007,SurveyExpMetaMem,3.2.3,Win32,60
,,,,,,,,,,,,,,,,,,,,5,3.558000088,5,0.236999989,1,0,1200,647,1,1199,accord,11141,2019-10-21_21h59.10.007,SurveyExpMetaMem,3.2.3,Win32,60
,,,,,,,,,,,,,,,,,,,,7,4.124000072,3,0.496999979,1,0,1200,392,1,1199,moody,11141,2019-10-21_21h59.10.007,SurveyExpMetaMem,3.2.3,Win32,60
,,,,,,,,,,,,,,,,,,,,7,2.890000105,9,0.703999996,1,0,1200,43,1,1199,diamond,11141,2019-10-21_21h59.10.007,SurveyExpMetaMem,3.2.3,Win32,60
,,,,,,,,,,,,,,,,,,,,7,3.388999939,2,0.707000017,1,0,1200,1000,1,1199,threat,11141,2019-10-21_21h59.10.007,SurveyExpMetaMem,3.2.3,Win32,60
,,,,,,,,,,,,,,,,,,,,8,2.407000065,8,0.210999966,1,0,1200,222,1,1199,waterskiing,11141,2019-10-21_21h59.10.007,SurveyExpMetaMem,3.2.3,Win32,60
,,,,,,,,,,,,,,,,,,,,5,6.316999912,6,0.272000074,1,0,1200,840,1,1199,cuisine,11141,2019-10-21_21h59.10.007,SurveyExpMetaMem,3.2.3,Win32,60
,,,,,,,,,,,,,,,,,,,,5,2.231999874,5,0.187000036,1,0,1200,652,1,1199,tend,11141,2019-10-21_21h59.10.007,SurveyExpMetaMem,3.2.3,Win32,60
,,,,,,,,,,,,,,,,,,,,7,3.184999943,3,0.48300004,1,0,1200,1182,1,1199,pierce,11141,2019-10-21_21h59.10.007,SurveyExpMetaMem,3.2.3,Win32,60
,,,,,,,,,,,,,,,,,,,,9,2.917999983,1,0.631000042,1,0,1200,1102,1,1199,nuclear,11141,2019-10-21_21h59.10.007,SurveyExpMetaMem,3.2.3,Win32,60
,,,,,,,,,,,,,,,,,,,,7,3.221999884,2,0.903000116,1,0,1200,1141,1,1199,shark,11141,2019-10-21_21h59.10.007,SurveyExpMetaMem,3.2.3,Win32,60
,,,,,,,,,,,,,,,,,,,,5,5.309000015,8,1.243999958,1,0,1200,703,1,1199,book,11141,2019-10-21_21h59.10.007,SurveyExpMetaMem,3.2.3,Win32,60
,,,,,,,,,,,,,,,,,,,,6,2.136999846,4,0.387000084,1,0,1200,373,1,1199,ignorance,11141,2019-10-21_21h59.10.007,SurveyExpMetaMem,3.2.3,Win32,60
,,,,,,,,,,,,,,,,,,,,5,6.749000072,5,0.187999964,1,0,1200,822,1,1199,clearer,11141,2019-10-21_21h59.10.007,SurveyExpMetaMem,3.2.3,Win32,60
,,,,,,,,,,,,,,,,,,,,5,1.164000034,5,0.193000078,1,0,1200,683,1,1199,scarf,11141,2019-10-21_21h59.10.007,SurveyExpMetaMem,3.2.3,Win32,60
,,,,,,,,,,,,,,,,,,,,7,1.59100008,7,0.286999941,1,0,1200,183,1,1199,congratulate,11141,2019-10-21_21h59.10.007,SurveyExpMetaMem,3.2.3,Win32,60
,,,,,,,,,,,,,,,,,,,,7,1.926000118,3,1.486000061,1,0,1200,1117,1,1199,court,11141,2019-10-21_21h59.10.007,SurveyExpMetaMem,3.2.3,Win32,60
,,,,,,,,,,,,,,,,,,,,5,2.503000021,5,0.205999851,1,0,1200,338,1,1199,obesity,11141,2019-10-21_21h59.10.007,SurveyExpMetaMem,3.2.3,Win32,60
,,,,,,,,,,,,,,,,,,,,7,3.503000021,8,0.598999977,1,0,1200,90,1,1199,satisfaction,11141,2019-10-21_21h59.10.007,SurveyExpMetaMem,3.2.3,Win32,60
,,,,,,,,,,,,,,,,,,,,7,5.990999937,8,2.103000164,1,0,1200,1087,1,1199,affair,11141,2019-10-21_21h59.10.007,SurveyExpMetaMem,3.2.3,Win32,60
,,,,,,,,,,,,,,,,,,,,8,7.920000076,5,2.063999891,1,0,1200,292,1,1199,birthday,11141,2019-10-21_21h59.10.007,SurveyExpMetaMem,3.2.3,Win32,60
,,,,,,,,,,,,,,,,,,,,6,3.932999849,5,2.551000118,1,0,1200,55,1,1199,rare,11141,2019-10-21_21h59.10.007,SurveyExpMetaMem,3.2.3,Win32,60
,,,,,,,,,,,,,,,,,,,,5,3.549999952,5,0.171999931,1,0,1200,352,1,1199,negligent,11141,2019-10-21_21h59.10.007,SurveyExpMetaMem,3.2.3,Win32,60
,,,,,,,,,,,,,,,,,,,,7,1.749000072,4,0.787999868,1,0,1200,1054,1,1199,jealous,11141,2019-10-21_21h59.10.007,SurveyExpMetaMem,3.2.3,Win32,60
,,,,,,,,,,,,,,,,,,,,5,2.381000042,5,0.294999838,1,0,1200,227,1,1199,musician,11141,2019-10-21_21h59.10.007,SurveyExpMetaMem,3.2.3,Win32,60
,,,,,,,,,,,,,,,,,,,,7,2.07400012,7,0.203999996,1,0,1200,144,1,1199,aroused,11141,2019-10-21_21h59.10.007,SurveyExpMetaMem,3.2.3,Win32,60
,,,,,,,,,,,,,,,,,,,,5,1.404000044,5,0.256000042,1,0,1200,649,1,1199,donkey,11141,2019-10-21_21h59.10.007,SurveyExpMetaMem,3.2.3,Win32,60
,,,,,,,,,,,,,,,,,,,,5,1.432999849,4,0.2900002,1,0,1200,1193,1,1199,damn,11141,2019-10-21_21h59.10.007,SurveyExpMetaMem,3.2.3,Win32,60
,,,,,,,,,,,,,,,,,,,,5,1.937000036,5,0.178999901,1,0,1200,640,1,1199,cabin,11141,2019-10-21_21h59.10.007,SurveyExpMetaMem,3.2.3,Win32,60
,,,,,,,,,,,,,,,,,,,,5,1.542000055,5,0.207000017,1,0,1200,335,1,1199,decay,11141,2019-10-21_21h59.10.007,SurveyExpMetaMem,3.2.3,Win32,60
,,,,,,,,,,,,,,,,,,,,6,1.617000103,4,0.663000107,1,0,1200,384,1,1199,idiot,11141,2019-10-21_21h59.10.007,SurveyExpMetaMem,3.2.3,Win32,60
,,,,,,,,,,,,,,,,,,,,6,1.920000076,4,0.312999964,1,0,1200,1058,1,1199,bloody,11141,2019-10-21_21h59.10.007,SurveyExpMetaMem,3.2.3,Win32,60
,,,,,,,,,,,,,,,,,,,,5,5.614000082,7,0.397000074,1,0,1200,836,1,1199,lounge,11141,2019-10-21_21h59.10.007,SurveyExpMetaMem,3.2.3,Win32,60
,,,,,,,,,,,,,,,,,,,,5,3.5,5,0.226000071,1,0,1200,666,1,1199,verify,11141,2019-10-21_21h59.10.007,SurveyExpMetaMem,3.2.3,Win32,60
,,,,,,,,,,,,,,,,,,,,6,107.362,7,0.228999853,1,0,1200,30,1,1199,impressed,11141,2019-10-21_21h59.10.007,SurveyExpMetaMem,3.2.3,Win32,60
,,,,,,,,,,,,,,,,,,,,5,3.859999895,6,0.184000015,1,0,1200,34,1,1199,personality,11141,2019-10-21_21h59.10.007,SurveyExpMetaMem,3.2.3,Win32,60
,,,,,,,,,,,,,,,,,,,,5,9.463999987,5,0.212000132,1,0,1200,150,1,1199,vodka,11141,2019-10-21_21h59.10.007,SurveyExpMetaMem,3.2.3,Win32,60
,,,,,,,,,,,,,,,,,,,,5,4.912999868,4,0.404000044,1,0,1200,711,1,1199,sympathetic,11141,2019-10-21_21h59.10.007,SurveyExpMetaMem,3.2.3,Win32,60
,,,,,,,,,,,,,,,,,,,,5,2.515999794,4,0.287999868,1,0,1200,507,1,1199,smudge,11141,2019-10-21_21h59.10.007,SurveyExpMetaMem,3.2.3,Win32,60
,,,,,,,,,,,,,,,,,,,,5,1.835999966,6,0.720000029,1,0,1200,259,1,1199,thin,11141,2019-10-21_21h59.10.007,SurveyExpMetaMem,3.2.3,Win32,60
,,,,,,,,,,,,,,,,,,,,5,1.63499999,5,0.40899992,1,0,1200,859,1,1199,serene,11141,2019-10-21_21h59.10.007,SurveyExpMetaMem,3.2.3,Win32,60
,,,,,,,,,,,,,,,,,,,,5,1.066999912,6,0.270999908,1,0,1200,182,1,1199,genius,11141,2019-10-21_21h59.10.007,SurveyExpMetaMem,3.2.3,Win32,60
,,,,,,,,,,,,,,,,,,,,6,3.199999809,4,0.309000015,1,0,1200,430,1,1199,cancel,11141,2019-10-21_21h59.10.007,SurveyExpMetaMem,3.2.3,Win32,60
,,,,,,,,,,,,,,,,,,,,5,1.011999846,5,0.255000114,1,0,1200,511,1,1199,slouch,11141,2019-10-21_21h59.10.007,SurveyExpMetaMem,3.2.3,Win32,60
,,,,,,,,,,,,,,,,,,,,5,0.934999943,5,0.193000078,1,0,1200,663,1,1199,trout,11141,2019-10-21_21h59.10.007,SurveyExpMetaMem,3.2.3,Win32,60
,,,,,,,,,,,,,,,,,,,,5,0.880000114,5,0.204999924,1,0,1200,548,1,1199,vague,11141,2019-10-21_21h59.10.007,SurveyExpMetaMem,3.2.3,Win32,60
,,,,,,,,,,,,,,,,,,,,5,0.983999968,5,0.204999924,1,0,1200,984,1,1199,despairing,11141,2019-10-21_21h59.10.007,SurveyExpMetaMem,3.2.3,Win32,60
,,,,,,,,,,,,,,,,,,,,6,2.224000216,4,0.291999817,1,0,1200,966,1,1199,regretful,11141,2019-10-21_21h59.10.007,SurveyExpMetaMem,3.2.3,Win32,60
,,,,,,,,,,,,,,,,,,,,6,6.546000004,4,0.328000069,1,0,1200,496,1,1199,slow,11141,2019-10-21_21h59.10.007,SurveyExpMetaMem,3.2.3,Win32,60
,,,,,,,,,,,,,,,,,,,,6,7.479000092,4,0.422999859,1,0,1200,989,1,1199,banish,11141,2019-10-21_21h59.10.007,SurveyExpMetaMem,3.2.3,Win32,60
,,,,,,,,,,,,,,,,,,,,6,22.83599997,8,0.858999968,1,0,1200,63,1,1199,clothes,11141,2019-10-21_21h59.10.007,SurveyExpMetaMem,3.2.3,Win32,60
,,,,,,,,,,,,,,,,,,,,5,17.99000001,4,0.322000027,1,0,1200,751,1,1199,listen,11141,2019-10-21_21h59.10.007,SurveyExpMetaMem,3.2.3,Win32,60
,,,,,,,,,,,,,,,,,,,,5,4.59800005,5,0.311000109,1,0,1200,644,1,1199,farm,11141,2019-10-21_21h59.10.007,SurveyExpMetaMem,3.2.3,Win32,60
,,,,,,,,,,,,,,,,,,,,6,3.201000214,6,0.389999866,1,0,1200,254,1,1199,crush,11141,2019-10-21_21h59.10.007,SurveyExpMetaMem,3.2.3,Win32,60
,,,,,,,,,,,,,,,,,,,,5,2.74000001,6,0.170999765,1,0,1200,109,1,1199,new,11141,2019-10-21_21h59.10.007,SurveyExpMetaMem,3.2.3,Win32,60
,,,,,,,,,,,,,,,,,,,,9,2.48300004,8,0.603999853,1,0,1200,125,1,1199,dancing,11141,2019-10-21_21h59.10.007,SurveyExpMetaMem,3.2.3,Win32,60
,,,,,,,,,,,,,,,,,,,,7,6.147000074,7,0.410000086,1,0,1200,77,1,1199,adore,11141,2019-10-21_21h59.10.007,SurveyExpMetaMem,3.2.3,Win32,60
,,,,,,,,,,,,,,,,,,,,6,13.07000017,3,0.498000145,1,0,1200,928,1,1199,cruel,11141,2019-10-21_21h59.10.007,SurveyExpMetaMem,3.2.3,Win32,60
,,,,,,,,,,,,,,,,,,,,5,1.811000109,4,0.393999815,1,0,1200,310,1,1199,lonely,11141,2019-10-21_21h59.10.007,SurveyExpMetaMem,3.2.3,Win32,60
,,,,,,,,,,,,,,,,,,,,5,5.944000006,7,0.592000008,1,0,1200,148,1,1199,victory,11141,2019-10-21_21h59.10.007,SurveyExpMetaMem,3.2.3,Win32,60
,,,,,,,,,,,,,,,,,,,,5,17.91000009,4,0.220999956,1,0,1200,502,1,1199,crap,11141,2019-10-21_21h59.10.007,SurveyExpMetaMem,3.2.3,Win32,60
,,,,,,,,,,,,,,,,,,,,5,3.155999899,5,0.290999889,1,0,1200,721,1,1199,contemporary,11141,2019-10-21_21h59.10.007,SurveyExpMetaMem,3.2.3,Win32,60
,,,,,,,,,,,,,,,,,,,,5,3.500999928,6,0.173000097,1,0,1200,226,1,1199,prize,11141,2019-10-21_21h59.10.007,SurveyExpMetaMem,3.2.3,Win32,60
,,,,,,,,,,,,,,,,,,,,8,1.707999945,8,0.204999924,1,0,1200,116,1,1199,carnival,11141,2019-10-21_21h59.10.007,SurveyExpMetaMem,3.2.3,Win32,60
,,,,,,,,,,,,,,,,,,,,5,1.898000002,7,1.069999933,1,0,1200,794,1,1199,pray,11141,2019-10-21_21h59.10.007,SurveyExpMetaMem,3.2.3,Win32,60
,,,,,,,,,,,,,,,,,,,,2,0.551999807,9,5.150000095,1,0,1200,775,1,1199,pancakes,11141,2019-10-21_21h59.10.007,SurveyExpMetaMem,3.2.3,Win32,60
,,,,,,,,,,,,,,,,,,,,7,4.421999931,8,0.486000061,1,0,1200,107,1,1199,sandwich,11141,2019-10-21_21h59.10.007,SurveyExpMetaMem,3.2.3,Win32,60
,,,,,,,,,,,,,,,,,,,,5,1.710999966,5,0.203999996,1,0,1200,606,1,1199,easel,11141,2019-10-21_21h59.10.007,SurveyExpMetaMem,3.2.3,Win32,60
,,,,,,,,,,,,,,,,,,,,6,1.417000055,8,0.429000139,1,0,1200,99,1,1199,funny,11141,2019-10-21_21h59.10.007,SurveyExpMetaMem,3.2.3,Win32,60
,,,,,,,,,,,,,,,,,,,,6,2.434999943,3,0.587999821,1,0,1200,512,1,1199,insect,11141,2019-10-21_21h59.10.007,SurveyExpMetaMem,3.2.3,Win32,60
,,,,,,,,,,,,,,,,,,,,5,1.286000013,5,0.203999996,1,0,1200,491,1,1199,meek,11141,2019-10-21_21h59.10.007,SurveyExpMetaMem,3.2.3,Win32,60
,,,,,,,,,,,,,,,,,,,,6,3.652999878,2,0.553999901,1,0,1200,391,1,1199,detach,11141,2019-10-21_21h59.10.007,SurveyExpMetaMem,3.2.3,Win32,60
,,,,,,,,,,,,,,,,,,,,5,5.773999929,5,0.203000069,1,0,1200,205,1,1199,outspoken,11141,2019-10-21_21h59.10.007,SurveyExpMetaMem,3.2.3,Win32,60
,,,,,,,,,,,,,,,,,,,,5,0.833999872,5,0.190000057,1,0,1200,1020,1,1199,malice,11141,2019-10-21_21h59.10.007,SurveyExpMetaMem,3.2.3,Win32,60
,,,,,,,,,,,,,,,,,,,,5,1.975000143,7,0.523999929,1,0,1200,122,1,1199,prince,11141,2019-10-21_21h59.10.007,SurveyExpMetaMem,3.2.3,Win32,60
,,,,,,,,,,,,,,,,,,,,5,1.850999832,5,0.204999924,1,0,1200,390,1,1199,impair,11141,2019-10-21_21h59.10.007,SurveyExpMetaMem,3.2.3,Win32,60
,,,,,,,,,,,,,,,,,,,,5,2.75,2,0.503999949,1,0,1200,1106,1,1199,pushy,11141,2019-10-21_21h59.10.007,SurveyExpMetaMem,3.2.3,Win32,60
,,,,,,,,,,,,,,,,,,,,6,4.145999908,4,4.007999897,1,0,1200,54,1,1199,alcohol,11141,2019-10-21_21h59.10.007,SurveyExpMetaMem,3.2.3,Win32,60
,,,,,,,,,,,,,,,,,,,,5,1.835000038,5,0.35800004,1,0,1200,951,1,1199,castrate,11141,2019-10-21_21h59.10.007,SurveyExpMetaMem,3.2.3,Win32,60
,,,,,,,,,,,,,,,,,,,,5,1.201999903,6,0.444999933,1,0,1200,110,1,1199,animal,11141,2019-10-21_21h59.10.007,SurveyExpMetaMem,3.2.3,Win32,60
,,,,,,,,,,,,,,,,,,,,5,3.416000128,1,3.248999834,1,0,1200,969,1,1199,whore,11141,2019-10-21_21h59.10.007,SurveyExpMetaMem,3.2.3,Win32,60
,,,,,,,,,,,,,,,,,,,,5,1.170000076,5,0.220000029,1,0,1200,545,1,1199,tar,11141,2019-10-21_21h59.10.007,SurveyExpMetaMem,3.2.3,Win32,60
,,,,,,,,,,,,,,,,,,,,5,1.18900013,4,0.213000059,1,0,1200,914,1,1199,fail,11141,2019-10-21_21h59.10.007,SurveyExpMetaMem,3.2.3,Win32,60
,,,,,,,,,,,,,,,,,,,,5,1.467999935,5,0.222999811,1,0,1200,821,1,1199,cottage,11141,2019-10-21_21h59.10.007,SurveyExpMetaMem,3.2.3,Win32,60
,,,,,,,,,,,,,,,,,,,,5,2.951999903,6,0.187000036,1,0,1200,69,1,1199,special,11141,2019-10-21_21h59.10.007,SurveyExpMetaMem,3.2.3,Win32,60
,,,,,,,,,,,,,,,,,,,,5,1.270999908,5,0.205000162,1,0,1200,995,1,1199,cult,11141,2019-10-21_21h59.10.007,SurveyExpMetaMem,3.2.3,Win32,60
,,,,,,,,,,,,,,,,,,,,5,2.342000008,6,0.536000013,1,0,1200,883,1,1199,sky,11141,2019-10-21_21h59.10.007,SurveyExpMetaMem,3.2.3,Win32,60
,,,,,,,,,,,,,,,,,,,,5,1.320999861,4,0.279000044,1,0,1200,378,1,1199,dislike,11141,2019-10-21_21h59.10.007,SurveyExpMetaMem,3.2.3,Win32,60
,,,,,,,,,,,,,,,,,,,,6,2.099999905,3,0.652999878,1,0,1200,904,1,1199,murderer,11141,2019-10-21_21h59.10.007,SurveyExpMetaMem,3.2.3,Win32,60
,,,,,,,,,,,,,,,,,,,,4,2.048999786,3,0.572000027,1,0,1200,423,1,1199,stain,11141,2019-10-21_21h59.10.007,SurveyExpMetaMem,3.2.3,Win32,60
,,,,,,,,,,,,,,,,,,,,5,4.555000067,5,0.188000202,1,0,1200,192,1,1199,pleased,11141,2019-10-21_21h59.10.007,SurveyExpMetaMem,3.2.3,Win32,60
,,,,,,,,,,,,,,,,,,,,5,2.098999977,5,0.194999933,1,0,1200,772,1,1199,ornament,11141,2019-10-21_21h59.10.007,SurveyExpMetaMem,3.2.3,Win32,60
,,,,,,,,,,,,,,,,,,,,5,2.282000065,7,1.09100008,1,0,1200,1,1,1199,fuck,11141,2019-10-21_21h59.10.007,SurveyExpMetaMem,3.2.3,Win32,60
,,,,,,,,,,,,,,,,,,,,5,1.953999996,4,0.305999994,1,0,1200,1142,1,1199,disturb,11141,2019-10-21_21h59.10.007,SurveyExpMetaMem,3.2.3,Win32,60
,,,,,,,,,,,,,,,,,,,,5,2.796999931,6,0.177999973,1,0,1200,857,1,1199,thankful,11141,2019-10-21_21h59.10.007,SurveyExpMetaMem,3.2.3,Win32,60
,,,,,,,,,,,,,,,,,,,,5,2.088999987,6,0.223999977,1,0,1200,64,1,1199,brain,11141,2019-10-21_21h59.10.007,SurveyExpMetaMem,3.2.3,Win32,60
,,,,,,,,,,,,,,,,,,,,5,3.167999983,5,0.213000059,1,0,1200,697,1,1199,clarinet,11141,2019-10-21_21h59.10.007,SurveyExpMetaMem,3.2.3,Win32,60
,,,,,,,,,,,,,,,,,,,,5,3.482000113,6,0.859999895,1,0,1200,735,1,1199,tea,11141,2019-10-21_21h59.10.007,SurveyExpMetaMem,3.2.3,Win32,60
,,,,,,,,,,,,,,,,,,,,5,3.890000105,5,0.236999989,1,0,1200,401,1,1199,feeble,11141,2019-10-21_21h59.10.007,SurveyExpMetaMem,3.2.3,Win32,60
,,,,,,,,,,,,,,,,,,,,5,6.948999882,5,0.240999937,1,0,1200,134,1,1199,dollar,11141,2019-10-21_21h59.10.007,SurveyExpMetaMem,3.2.3,Win32,60
,,,,,,,,,,,,,,,,,,,,5,0.933000088,5,0.236999989,1,0,1200,1017,1,1199,aggravated,11141,2019-10-21_21h59.10.007,SurveyExpMetaMem,3.2.3,Win32,60
,,,,,,,,,,,,,,,,,,,,4,3.450000048,3,2.054999828,1,0,1200,1059,1,1199,harsh,11141,2019-10-21_21h59.10.007,SurveyExpMetaMem,3.2.3,Win32,60
,,,,,,,,,,,,,,,,,,,,5,8.049000025,3,0.769999981,1,0,1200,1078,1,1199,trouble,11141,2019-10-21_21h59.10.007,SurveyExpMetaMem,3.2.3,Win32,60
,,,,,,,,,,,,,,,,,,,,5,3.274999857,6,1.437999964,1,0,1200,852,1,1199,caring,11141,2019-10-21_21h59.10.007,SurveyExpMetaMem,3.2.3,Win32,60
,,,,,,,,,,,,,,,,,,,,5,1.453999996,5,0.250999928,1,0,1200,564,1,1199,wane,11141,2019-10-21_21h59.10.007,SurveyExpMetaMem,3.2.3,Win32,60
,,,,,,,,,,,,,,,,,,,,5,1.167000055,5,0.705999851,1,0,1200,119,1,1199,stereo,11141,2019-10-21_21h59.10.007,SurveyExpMetaMem,3.2.3,Win32,60
,,,,,,,,,,,,,,,,,,,,5,1.6650002,5,0.287999868,1,0,1200,50,1,1199,bolt,11141,2019-10-21_21h59.10.007,SurveyExpMetaMem,3.2.3,Win32,60
,,,,,,,,,,,,,,,,,,,,5,1.167999983,5,0.237999916,1,0,1200,541,1,1199,apathy,11141,2019-10-21_21h59.10.007,SurveyExpMetaMem,3.2.3,Win32,60
,,,,,,,,,,,,,,,,,,,,5,0.823999882,5,0.187000036,1,0,1200,856,1,1199,leisurely,11141,2019-10-21_21h59.10.007,SurveyExpMetaMem,3.2.3,Win32,60
,,,,,,,,,,,,,,,,,,,,5,4.332000017,4,0.436999798,1,0,1200,527,1,1199,passive,11141,2019-10-21_21h59.10.007,SurveyExpMetaMem,3.2.3,Win32,60
,,,,,,,,,,,,,,,,,,,,5,3.877999783,5,0.251999855,1,0,1200,331,1,1199,casket,11141,2019-10-21_21h59.10.007,SurveyExpMetaMem,3.2.3,Win32,60
,,,,,,,,,,,,,,,,,,,,5,1.013999939,5,0.219000101,1,0,1200,339,1,1199,chore,11141,2019-10-21_21h59.10.007,SurveyExpMetaMem,3.2.3,Win32,60
,,,,,,,,,,,,,,,,,,,,4,4.09800005,1,0.861999989,1,0,1200,1143,1,1199,arrogant,11141,2019-10-21_21h59.10.007,SurveyExpMetaMem,3.2.3,Win32,60
,,,,,,,,,,,,,,,,,,,,8,2.554000139,2,1.920000076,1,0,1200,1149,1,1199,fight,11141,2019-10-21_21h59.10.007,SurveyExpMetaMem,3.2.3,Win32,60
,,,,,,,,,,,,,,,,,,,,5,1.367000103,5,0.224999905,1,0,1200,440,1,1199,forgot,11141,2019-10-21_21h59.10.007,SurveyExpMetaMem,3.2.3,Win32,60
,,,,,,,,,,,,,,,,,,,,3,13.16499996,7,1.503000021,1,0,1200,272,1,1199,confidence,11141,2019-10-21_21h59.10.007,SurveyExpMetaMem,3.2.3,Win32,60
,,,,,,,,,,,,,,,,,,,,5,2.197000027,5,0.251000166,1,0,1200,532,1,1199,recede,11141,2019-10-21_21h59.10.007,SurveyExpMetaMem,3.2.3,Win32,60
,,,,,,,,,,,,,,,,,,,,5,1.708999872,5,0.453999996,1,0,1200,493,1,1199,little,11141,2019-10-21_21h59.10.007,SurveyExpMetaMem,3.2.3,Win32,60
,,,,,,,,,,,,,,,,,,,,5,2.549999952,5,0.270999908,1,0,1200,461,1,1199,ail,11141,2019-10-21_21h59.10.007,SurveyExpMetaMem,3.2.3,Win32,60
,,,,,,,,,,,,,,,,,,,,5,0.717999935,5,0.220999956,1,0,1200,351,1,1199,germs,11141,2019-10-21_21h59.10.007,SurveyExpMetaMem,3.2.3,Win32,60
,,,,,,,,,,,,,,,,,,,,4,2.264999866,3,0.379999876,1,0,1200,305,1,1199,frown,11141,2019-10-21_21h59.10.007,SurveyExpMetaMem,3.2.3,Win32,60
,,,,,,,,,,,,,,,,,,,,6,2.434000015,3,0.625,1,0,1200,1061,1,1199,difficult,11141,2019-10-21_21h59.10.007,SurveyExpMetaMem,3.2.3,Win32,60
,,,,,,,,,,,,,,,,,,,,5,1.164999962,5,0.196000099,1,0,1200,681,1,1199,fig,11141,2019-10-21_21h59.10.007,SurveyExpMetaMem,3.2.3,Win32,60
,,,,,,,,,,,,,,,,,,,,5,0.739000082,5,0.253999949,1,0,1200,504,1,1199,cane,11141,2019-10-21_21h59.10.007,SurveyExpMetaMem,3.2.3,Win32,60
,,,,,,,,,,,,,,,,,,,,2,2.651000023,4,0.585999966,1,0,1200,333,1,1199,weak,11141,2019-10-21_21h59.10.007,SurveyExpMetaMem,3.2.3,Win32,60
,,,,,,,,,,,,,,,,,,,,2,3.467000008,7,3.734000206,1,0,1200,833,1,1199,nice,11141,2019-10-21_21h59.10.007,SurveyExpMetaMem,3.2.3,Win32,60
,,,,,,,,,,,,,,,,,,,,5,1.242000103,5,0.197000027,1,0,1200,590,1,1199,stool,11141,2019-10-21_21h59.10.007,SurveyExpMetaMem,3.2.3,Win32,60
,,,,,,,,,,,,,,,,,,,,5,3.319000006,5,0.219000101,1,0,1200,598,1,1199,feet,11141,2019-10-21_21h59.10.007,SurveyExpMetaMem,3.2.3,Win32,60
,,,,,,,,,,,,,,,,,,,,5,1.378000021,5,0.587000132,1,0,1200,913,1,1199,ulcer,11141,2019-10-21_21h59.10.007,SurveyExpMetaMem,3.2.3,Win32,60
,,,,,,,,,,,,,,,,,,,,5,3.416000128,4,0.871000051,1,0,1200,459,1,1199,heavy,11141,2019-10-21_21h59.10.007,SurveyExpMetaMem,3.2.3,Win32,60
,,,,,,,,,,,,,,,,,,,,4,3.549000025,2,0.620000124,1,0,1200,432,1,1199,resign,11141,2019-10-21_21h59.10.007,SurveyExpMetaMem,3.2.3,Win32,60
,,,,,,,,,,,,,,,,,,,,5,3.498000145,5,0.171000004,1,0,1200,385,1,1199,tiresome,11141,2019-10-21_21h59.10.007,SurveyExpMetaMem,3.2.3,Win32,60
,,,,,,,,,,,,,,,,,,,,5,0.717000008,5,0.193000078,1,0,1200,1191,1,1199,evade,11141,2019-10-21_21h59.10.007,SurveyExpMetaMem,3.2.3,Win32,60
,,,,,,,,,,,,,,,,,,,,5,0.822999954,5,0.203000069,1,0,1200,793,1,1199,virtue,11141,2019-10-21_21h59.10.007,SurveyExpMetaMem,3.2.3,Win32,60
,,,,,,,,,,,,,,,,,,,,5,0.819000006,5,0.159999847,1,0,1200,1136,1,1199,appall,11141,2019-10-21_21h59.10.007,SurveyExpMetaMem,3.2.3,Win32,60
,,,,,,,,,,,,,,,,,,,,7,3.433000088,2,1.619999886,1,0,1200,902,1,1199,rejected,11141,2019-10-21_21h59.10.007,SurveyExpMetaMem,3.2.3,Win32,60
,,,,,,,,,,,,,,,,,,,,4,2.656999826,8,1.14199996,1,0,1200,161,1,1199,limousine,11141,2019-10-21_21h59.10.007,SurveyExpMetaMem,3.2.3,Win32,60
,,,,,,,,,,,,,,,,,,,,4,1.559000015,8,0.769999981,1,0,1200,889,1,1199,wise,11141,2019-10-21_21h59.10.007,SurveyExpMetaMem,3.2.3,Win32,60
,,,,,,,,,,,,,,,,,,,,3,4.29700017,2,0.29399991,1,0,1200,1107,1,1199,snake,11141,2019-10-21_21h59.10.007,SurveyExpMetaMem,3.2.3,Win32,60
,,,,,,,,,,,,,,,,,,,,5,1.95600009,5,0.20299983,1,0,1200,994,1,1199,repulsed,11141,2019-10-21_21h59.10.007,SurveyExpMetaMem,3.2.3,Win32,60
,,,,,,,,,,,,,,,,,,,,5,1.025000095,5,0.194000006,1,0,1200,633,1,1199,cattle,11141,2019-10-21_21h59.10.007,SurveyExpMetaMem,3.2.3,Win32,60
,,,,,,,,,,,,,,,,,,,,5,1.34100008,4,0.254999876,1,0,1200,362,1,1199,despair,11141,2019-10-21_21h59.10.007,SurveyExpMetaMem,3.2.3,Win32,60
,,,,,,,,,,,,,,,,,,,,5,3.320000172,3,0.487000227,1,0,1200,1030,1,1199,offend,11141,2019-10-21_21h59.10.007,SurveyExpMetaMem,3.2.3,Win32,60
,,,,,,,,,,,,,,,,,,,,4,1.878999949,4,0.253999949,1,0,1200,528,1,1199,dirt,11141,2019-10-21_21h59.10.007,SurveyExpMetaMem,3.2.3,Win32,60
,,,,,,,,,,,,,,,,,,,,5,1.187000036,5,0.185000181,1,0,1200,905,1,1199,suffocate,11141,2019-10-21_21h59.10.007,SurveyExpMetaMem,3.2.3,Win32,60
,,,,,,,,,,,,,,,,,,,,5,1.252000093,4,0.180999994,1,0,1200,417,1,1199,dummy,11141,2019-10-21_21h59.10.007,SurveyExpMetaMem,3.2.3,Win32,60
,,,,,,,,,,,,,,,,,,,,5,1.848999977,5,0.190000057,1,0,1200,609,1,1199,candlestick,11141,2019-10-21_21h59.10.007,SurveyExpMetaMem,3.2.3,Win32,60
,,,,,,,,,,,,,,,,,,,,5,0.784000158,5,0.204999924,1,0,1200,421,1,1199,stale,11141,2019-10-21_21h59.10.007,SurveyExpMetaMem,3.2.3,Win32,60
,,,,,,,,,,,,,,,,,,,,4,6.75999999,6,0.322999954,1,0,1200,809,1,1199,boy,11141,2019-10-21_21h59.10.007,SurveyExpMetaMem,3.2.3,Win32,60
,,,,,,,,,,,,,,,,,,,,5,3.506000042,7,0.417999983,1,0,1200,876,1,1199,politeness,11141,2019-10-21_21h59.10.007,SurveyExpMetaMem,3.2.3,Win32,60
,,,,,,,,,,,,,,,,,,,,5,13.44099998,5,0.171000004,1,0,1200,730,1,1199,slogan,11141,2019-10-21_21h59.10.007,SurveyExpMetaMem,3.2.3,Win32,60
,,,,,,,,,,,,,,,,,,,,8,2.707000017,6,0.773000002,1,0,1200,289,1,1199,concert,11141,2019-10-21_21h59.10.007,SurveyExpMetaMem,3.2.3,Win32,60
,,,,,,,,,,,,,,,,,,,,7,3.119999886,6,0.528000116,1,0,1200,298,1,1199,success,11141,2019-10-21_21h59.10.007,SurveyExpMetaMem,3.2.3,Win32,60
,,,,,,,,,,,,,,,,,,,,5,1.852999926,7,1.120000124,1,0,1200,22,1,1199,doughnut,11141,2019-10-21_21h59.10.007,SurveyExpMetaMem,3.2.3,Win32,60
,,,,,,,,,,,,,,,,,,,,4,3.930000067,1,1.400000095,1,0,1200,1040,1,1199,communism,11141,2019-10-21_21h59.10.007,SurveyExpMetaMem,3.2.3,Win32,60
,,,,,,,,,,,,,,,,,,,,4,3.171999931,8,0.746000051,1,0,1200,218,1,1199,charming,11141,2019-10-21_21h59.10.007,SurveyExpMetaMem,3.2.3,Win32,60
,,,,,,,,,,,,,,,,,,,,7,8.269000053,5,0.624000072,1,0,1200,854,1,1199,river,11141,2019-10-21_21h59.10.007,SurveyExpMetaMem,3.2.3,Win32,60
,,,,,,,,,,,,,,,,,,,,5,2.402999878,5,0.56799984,1,0,1200,1155,1,1199,tangle,11141,2019-10-21_21h59.10.007,SurveyExpMetaMem,3.2.3,Win32,60
,,,,,,,,,,,,,,,,,,,,7,4.63499999,5,0.335000038,1,0,1200,75,1,1199,actor,11141,2019-10-21_21h59.10.007,SurveyExpMetaMem,3.2.3,Win32,60
,,,,,,,,,,,,,,,,,,,,5,3.878000021,5,0.255000114,1,0,1200,18,1,1199,mail,11141,2019-10-21_21h59.10.007,SurveyExpMetaMem,3.2.3,Win32,60
,,,,,,,,,,,,,,,,,,,,3,2.502000093,8,1.955999851,1,0,1200,3,1,1199,nudist,11141,2019-10-21_21h59.10.007,SurveyExpMetaMem,3.2.3,Win32,60
,,,,,,,,,,,,,,,,,,,,8,3.922999859,2,1.03399992,1,0,1200,910,1,1199,abusive,11141,2019-10-21_21h59.10.007,SurveyExpMetaMem,3.2.3,Win32,60
