"","SUBJ","RT.median","Confidence_RT.median","Accuracy_in_percent","Handedness_R_1","Total_Accepted_Trials","Gender_M_1","meta_d_0_30","meta_d_0_60","meta_d_0_90","meta_d_1_30","meta_d_1_60","meta_d_1_90","d_0_30","d_0_60","d_0_90","d_1_30","d_1_60","d_1_90","criterion_0_30","criterion_0_60","criterion_0_90","criterion_1_30","criterion_1_60","criterion_1_90","mratio_0_30","mratio_0_60","mratio_0_90","mratio_1_30","mratio_1_60","mratio_1_90","Confidence.mean_0_30","Confidence.mean_0_60","Confidence.mean_0_90","Confidence.mean_1_30","Confidence.mean_1_60","Confidence.mean_1_90","Accuracy.mean_0_30","Accuracy.mean_0_60","Accuracy.mean_0_90","Accuracy.mean_1_30","Accuracy.mean_1_60","Accuracy.mean_1_90"
"1","Subject_11114.txt",1.61116163745464,0.8655,0.857142857142857,1,42,1,0.918894796077515,NA,NA,NA,NA,NA,0.64608709572484,NA,NA,NA,NA,NA,0.165732863252249,NA,NA,NA,NA,NA,1.42224601320448,NA,NA,NA,NA,NA,2.76086956521739,NA,NA,NA,NA,NA,0.630434782608696,NA,NA,NA,NA,NA
"2","Subject_11115.txt",1.4278098900686,0.9425,0.625,1,48,1,NA,1.19833901078675,NA,NA,NA,NA,NA,1.28617823787879,NA,NA,NA,NA,NA,0.29898665605638,NA,NA,NA,NA,NA,0.931705245427795,NA,NA,NA,NA,NA,3.1,NA,NA,NA,NA,NA,0.74,NA,NA,NA,NA
"3","Subject_11116.txt",1.66019031267206,0.992,0.702127659574468,1,47,1,NA,NA,1.62135057980645,NA,NA,NA,NA,NA,1.28617823787879,NA,NA,NA,NA,NA,0.29898665605638,NA,NA,NA,NA,NA,1.26059556292947,NA,NA,NA,NA,NA,4.1,NA,NA,NA,NA,NA,0.74,NA,NA,NA
"4","Subject_11117.txt",1.51737015372782,1.025,0.86046511627907,1,43,1,NA,NA,NA,0.584390130616909,NA,NA,NA,NA,NA,1.39050125830171,NA,NA,NA,NA,NA,0.246825145844921,NA,NA,NA,NA,NA,0.42027299661034,NA,NA,NA,NA,NA,3.02,NA,NA,NA,NA,NA,0.76,NA,NA
"5","Subject_11118.txt",1.50395789663889,0.9925,0.76,1,50,1,NA,NA,NA,NA,1.79576761246396,NA,NA,NA,NA,NA,1.34897950039216,NA,NA,NA,NA,NA,0,NA,NA,NA,NA,NA,1.33120452307979,NA,NA,NA,NA,NA,3.62,NA,NA,NA,NA,NA,0.76,NA
"6","Subject_11119.txt",1.37934855348431,1.138,0.76,1,50,1,NA,NA,NA,NA,NA,2.8867825498683,NA,NA,NA,NA,NA,2.02535544506789,NA,NA,NA,NA,NA,0.0144765503810565,NA,NA,NA,NA,NA,1.4253214451311,NA,NA,NA,NA,NA,5.76744186046512,NA,NA,NA,NA,NA,0.86046511627907
"7","Subject_11120.txt",1.61257060054049,1.0005,0.930232558139535,1,43,1,0.437862554816322,NA,NA,NA,NA,NA,1.23237451303568,NA,NA,NA,NA,NA,0.0583024936782415,NA,NA,NA,NA,NA,0.355299911013045,NA,NA,NA,NA,NA,2.32,NA,NA,NA,NA,NA,0.74,NA,NA,NA,NA,NA
"8","Subject_11121.txt",1.52448779121914,0.9015,0.74,1,50,1,NA,0.188080769785701,NA,NA,NA,NA,NA,1.88415154999155,NA,NA,NA,NA,NA,2.22044604925031e-16,NA,NA,NA,NA,NA,0.0998225274323313,NA,NA,NA,NA,NA,2.92,NA,NA,NA,NA,NA,0.84,NA,NA,NA,NA
"9","Subject_11122.txt",1.52513934043236,1.026,0.84,1,50,1,NA,NA,1.9314732905296,NA,NA,NA,NA,NA,2.71980363628988,NA,NA,NA,NA,NA,0.152487767922739,NA,NA,NA,NA,NA,0.710151742117805,NA,NA,NA,NA,NA,4.93023255813953,NA,NA,NA,NA,NA,0.930232558139535,NA,NA,NA
"10","Subject_11123.txt",1.59968590259086,1.016,0.74,1,50,1,NA,NA,NA,0.486560122284007,NA,NA,NA,NA,NA,0.671759493677215,NA,NA,NA,NA,NA,0.436313467350077,NA,NA,NA,NA,NA,0.724307027833093,NA,NA,NA,NA,NA,2.9375,NA,NA,NA,NA,NA,0.625,NA,NA
"11","Subject_11125.txt",1.58182861079695,0.891,0.630434782608696,1,46,1,NA,NA,NA,NA,0.996972545934116,NA,NA,NA,NA,NA,1.03634019101461,NA,NA,NA,NA,NA,0.254023118681381,NA,NA,NA,NA,NA,0.96201281642667,NA,NA,NA,NA,NA,3.31914893617021,NA,NA,NA,NA,NA,0.702127659574468,NA
"12","Subject_11126.txt",1.44430008345807,1.243,0.74,1,50,1,NA,NA,NA,NA,NA,1.86270818312163,NA,NA,NA,NA,NA,2.03701543783304,NA,NA,NA,NA,NA,-0.161253398695341,NA,NA,NA,NA,NA,0.914430076731852,NA,NA,NA,NA,NA,4.80952380952381,NA,NA,NA,NA,NA,0.857142857142857
"13","Subject_11127.txt",1.72813941804634,1.084,0.833333333333333,0,48,0,0.486496945696938,NA,NA,NA,NA,NA,0.610961576198795,NA,NA,NA,NA,NA,0,NA,NA,NA,NA,NA,0.796280755859909,NA,NA,NA,NA,NA,2.77083333333333,NA,NA,NA,NA,NA,0.625,NA,NA,NA,NA,NA
"14","Subject_11129.txt",1.88933047305909,1.082,0.52,0,50,0,NA,0.905644633292963,NA,NA,NA,NA,NA,0.901987225722614,NA,NA,NA,NA,NA,-0.106891149978291,NA,NA,NA,NA,NA,1.00405483300212,NA,NA,NA,NA,NA,3.52,NA,NA,NA,NA,NA,0.68,NA,NA,NA,NA
"15","Subject_11130.txt",1.80635146571149,1.208,0.8,0,50,0,NA,NA,0.927526383361578,NA,NA,NA,NA,NA,1.65520731510832,NA,NA,NA,NA,NA,0.727169937042692,NA,NA,NA,NA,NA,0.560368707227999,NA,NA,NA,NA,NA,3.625,NA,NA,NA,NA,NA,0.75,NA,NA,NA
"16","Subject_11132.txt",1.61971310019726,0.993,0.791666666666667,0,48,0,NA,NA,NA,1.07597758306315,NA,NA,NA,NA,NA,1.13469512289437,NA,NA,NA,NA,NA,-0.0429470487391459,NA,NA,NA,NA,NA,0.948252584640136,NA,NA,NA,NA,NA,3.34042553191489,NA,NA,NA,NA,NA,0.723404255319149,NA,NA
"17","Subject_11133.txt",1.81148959351412,1.1495,0.723404255319149,0,47,0,NA,NA,NA,NA,1.02966006082093,NA,NA,NA,NA,NA,0.772193214188685,NA,NA,NA,NA,NA,0.386096607094342,NA,NA,NA,NA,NA,1.3334228298066,NA,NA,NA,NA,NA,2.58333333333333,NA,NA,NA,NA,NA,0.645833333333333,NA
"18","Subject_11134.txt",1.52226318867179,1.3605,0.645833333333333,0,48,0,NA,NA,NA,NA,NA,1.38161381141208,NA,NA,NA,NA,NA,1.55237038518211,NA,NA,NA,NA,NA,0.165890582404722,NA,NA,NA,NA,NA,0.890002685312761,NA,NA,NA,NA,NA,4.5,NA,NA,NA,NA,NA,0.791666666666667
"19","Subject_11135.txt",1.63441867120855,1.027,0.78,0,50,0,-0.0958669571075089,NA,NA,NA,NA,NA,0.703005704050373,NA,NA,NA,NA,NA,0.206381910814412,NA,NA,NA,NA,NA,-0.136367253573009,NA,NA,NA,NA,NA,2.4,NA,NA,NA,NA,NA,0.64,NA,NA,NA,NA,NA
"20","Subject_11136.txt",1.92780315323034,1.102,0.64,0,50,0,NA,0.712003658082361,NA,NA,NA,NA,NA,0.929503898798856,NA,NA,NA,NA,NA,0.307441264789257,NA,NA,NA,NA,NA,0.766003950066742,NA,NA,NA,NA,NA,3.19148936170213,NA,NA,NA,NA,NA,0.680851063829787,NA,NA,NA,NA
"21","Subject_11137.txt",1.76369793139747,1.1155,0.680851063829787,0,47,0,NA,NA,1.03766471171663,NA,NA,NA,NA,NA,1.47558427947803,NA,NA,NA,NA,NA,-0.0633023895429342,NA,NA,NA,NA,NA,0.703222937617422,NA,NA,NA,NA,NA,3.76,NA,NA,NA,NA,NA,0.78,NA,NA,NA
"22","Subject_11139.txt",1.75979665634804,1.056,0.75,0,48,0,NA,NA,NA,0.641596669064187,NA,NA,NA,NA,NA,0.116604987356483,NA,NA,NA,NA,NA,0.61618725651784,NA,NA,NA,NA,NA,5.50230898017001,NA,NA,NA,NA,NA,2.72,NA,NA,NA,NA,NA,0.52,NA,NA
"23","Subject_11140.txt",1.86152189827408,1.108,0.625,0,48,0,NA,NA,NA,NA,1.25838236191348,NA,NA,NA,NA,NA,1.61656552519186,NA,NA,NA,NA,NA,0.133793012399847,NA,NA,NA,NA,NA,0.778429542325004,NA,NA,NA,NA,NA,3.48,NA,NA,NA,NA,NA,0.8,NA
"24","Subject_11141.txt",1.61105497075187,1.19,0.68,0,50,0,NA,NA,NA,NA,NA,1.9349623249551,NA,NA,NA,NA,NA,1.93265131125918,NA,NA,NA,NA,NA,0.291835905433507,NA,NA,NA,NA,NA,1.00119577374483,NA,NA,NA,NA,NA,4.5,NA,NA,NA,NA,NA,0.833333333333333
"25","Subject_11142.txt",1.23788074379263,1.176,0.8,1,50,0,1.0189032745052,NA,NA,NA,NA,NA,1.6478851349865,NA,NA,NA,NA,NA,0.479840104610236,NA,NA,NA,NA,NA,0.618309646026117,NA,NA,NA,NA,NA,3.18,NA,NA,NA,NA,NA,0.78,NA,NA,NA,NA,NA
"26","Subject_43336.txt",1.31915271071193,1.2245,0.673913043478261,1,46,0,NA,0.918572887596966,NA,NA,NA,NA,NA,0.606107836395521,NA,NA,NA,NA,NA,0.254830844641838,NA,NA,NA,NA,NA,1.51552715942373,NA,NA,NA,NA,NA,3.54,NA,NA,NA,NA,NA,0.62,NA,NA,NA,NA
"27","Subject_47203.txt",1.23063126123452,1.1675,0.84,1,50,0,NA,NA,2.08328210059596,NA,NA,NA,NA,NA,1.54718684991412,NA,NA,NA,NA,NA,0.530189247146428,NA,NA,NA,NA,NA,1.34649677297322,NA,NA,NA,NA,NA,4.88,NA,NA,NA,NA,NA,0.76,NA,NA,NA
"28","Subject_47284.txt",1.36400371105992,1.193,0.86,1,50,0,NA,NA,NA,1.2888112051255,NA,NA,NA,NA,NA,0.967610268218755,NA,NA,NA,NA,NA,0.431559953733437,NA,NA,NA,NA,NA,1.3319527990314,NA,NA,NA,NA,NA,4.53191489361702,NA,NA,NA,NA,NA,0.680851063829787,NA,NA
"29","Subject_47617.txt",1.14532152055472,1.1825,0.680851063829787,1,47,0,NA,NA,NA,NA,1.97485278645295,NA,NA,NA,NA,NA,1.05661267040619,NA,NA,NA,NA,NA,0.576529408759016,NA,NA,NA,NA,NA,1.86904136375136,NA,NA,NA,NA,NA,4.86,NA,NA,NA,NA,NA,0.68,NA
"30","Subject_11114.txt",0.984695661594742,1.2345,0.68,1,50,0,NA,NA,NA,NA,NA,2.85169047122756,NA,NA,NA,NA,NA,2.24893471541312,NA,NA,NA,NA,NA,0.44997760751048,NA,NA,NA,NA,NA,1.26801834294408,NA,NA,NA,NA,NA,5.74,NA,NA,NA,NA,NA,0.86
"31","Subject_11115.txt",1.27634762485104,1.1255,0.82,1,50,0,1.45325829119882,NA,NA,NA,NA,NA,1.39050125830171,NA,NA,NA,NA,NA,0.246825145844921,NA,NA,NA,NA,NA,1.04513266890082,NA,NA,NA,NA,NA,4.84,NA,NA,NA,NA,NA,0.76,NA,NA,NA,NA,NA
"32","Subject_11116.txt",1.25017836589541,1.358,0.76,1,50,0,NA,1.09699159057961,NA,NA,NA,NA,NA,0.893852701439854,NA,NA,NA,NA,NA,0.495149424275849,NA,NA,NA,NA,NA,1.22726215271546,NA,NA,NA,NA,NA,4.2,NA,NA,NA,NA,NA,0.66,NA,NA,NA,NA
"33","Subject_11117.txt",1.27055618716986,1.268,0.66,1,50,0,NA,NA,1.79113737513348,NA,NA,NA,NA,NA,2.02287044852298,NA,NA,NA,NA,NA,0.563009740955554,NA,NA,NA,NA,NA,0.885443443222624,NA,NA,NA,NA,NA,5.44,NA,NA,NA,NA,NA,0.82,NA,NA,NA
"34","Subject_11118.txt",1.80441170053382,1.25,0.76,1,50,0,NA,NA,NA,0.837352817537292,NA,NA,NA,NA,NA,0.957688040732648,NA,NA,NA,NA,NA,0.378410299854854,NA,NA,NA,NA,NA,0.874348203092003,NA,NA,NA,NA,NA,3.95652173913043,NA,NA,NA,NA,NA,0.673913043478261,NA,NA
"35","Subject_11119.txt",1.25438456071424,1.151,0.78,1,50,0,NA,NA,NA,NA,1.97440030984315,NA,NA,NA,NA,NA,1.97827242229957,NA,NA,NA,NA,NA,0.314646460953702,NA,NA,NA,NA,NA,0.998042679859069,NA,NA,NA,NA,NA,5.32,NA,NA,NA,NA,NA,0.84,NA
"36","Subject_11120.txt",1.21553031128133,1.0845,0.62,1,50,0,NA,NA,NA,NA,NA,1.72723174421989,NA,NA,NA,NA,NA,1.91854742810006,NA,NA,NA,NA,NA,0.615171251167014,NA,NA,NA,NA,NA,0.900280972428382,NA,NA,NA,NA,NA,4.82,NA,NA,NA,NA,NA,0.8
"37","Subject_11121.txt",1.62700292697991,1.208,0.813953488372093,1,43,0,0.25702836884403,NA,NA,NA,NA,NA,1.20417444291728,NA,NA,NA,NA,NA,0.313277866384175,NA,NA,NA,NA,NA,0.21344778603783,NA,NA,NA,NA,NA,2.22222222222222,NA,NA,NA,NA,NA,0.733333333333333,NA,NA,NA,NA,NA
"38","Subject_11122.txt",1.55314934485068,1.026,0.604651162790698,1,43,0,NA,0.826407545110257,NA,NA,NA,NA,NA,1.18465634363009,NA,NA,NA,NA,NA,-0.17986504237364,NA,NA,NA,NA,NA,0.697592639041575,NA,NA,NA,NA,NA,2.875,NA,NA,NA,NA,NA,0.729166666666667,NA,NA,NA,NA
"39","Subject_11123.txt",1.64482828756445,1.076,0.74,1,50,0,NA,NA,0.968356510757007,NA,NA,NA,NA,NA,1.06524150610787,NA,NA,NA,NA,NA,0.268473776228013,NA,NA,NA,NA,NA,0.909048798046876,NA,NA,NA,NA,NA,2.95833333333333,NA,NA,NA,NA,NA,0.708333333333333,NA,NA,NA
"40","Subject_11125.txt",1.51899692928419,1.223,0.666666666666667,1,45,0,NA,NA,NA,0.11303411608946,NA,NA,NA,NA,NA,1.08711217748033,NA,NA,NA,NA,NA,0.371808999102651,NA,NA,NA,NA,NA,0.103976497026688,NA,NA,NA,NA,NA,2.28888888888889,NA,NA,NA,NA,NA,0.711111111111111,NA,NA
"41","Subject_11126.txt",1.40089786049793,1.0175,0.711111111111111,1,45,0,NA,NA,NA,NA,0.875451101998973,NA,NA,NA,NA,NA,1.35897929212155,NA,NA,NA,NA,NA,0.121604883221176,NA,NA,NA,NA,NA,0.644197529038339,NA,NA,NA,NA,NA,2.88,NA,NA,NA,NA,NA,0.76,NA
"42","Subject_11127.txt",1.42984029196668,1.192,0.76,1,50,0,NA,NA,NA,NA,NA,1.68640588877349,NA,NA,NA,NA,NA,0.850794525552948,NA,NA,NA,NA,NA,0.316196781085042,NA,NA,NA,NA,NA,1.9821541372489,NA,NA,NA,NA,NA,3.42222222222222,NA,NA,NA,NA,NA,0.666666666666667
"43","Subject_11129.txt",1.51532486971701,1.234,0.78,1,50,0,1.03793004823168,NA,NA,NA,NA,NA,0.976350503590213,NA,NA,NA,NA,NA,0.15517015359781,NA,NA,NA,NA,NA,1.06307114546982,NA,NA,NA,NA,NA,3.15217391304348,NA,NA,NA,NA,NA,0.695652173913043,NA,NA,NA,NA,NA
"44","Subject_11130.txt",1.34970348275965,1.101,0.695652173913043,1,46,0,NA,-0.233767951045394,NA,NA,NA,NA,NA,1.41138913946828,NA,NA,NA,NA,NA,0.0953999595478088,NA,NA,NA,NA,NA,-0.165629693830195,NA,NA,NA,NA,NA,2.45833333333333,NA,NA,NA,NA,NA,0.770833333333333,NA,NA,NA,NA
"45","Subject_11132.txt",1.34284345377819,1.026,0.770833333333333,1,48,0,NA,NA,0.477692336561706,NA,NA,NA,NA,NA,1.55326122726805,NA,NA,NA,NA,NA,0.328205130328088,NA,NA,NA,NA,NA,0.307541531440848,NA,NA,NA,NA,NA,3.46,NA,NA,NA,NA,NA,0.78,NA,NA,NA
"46","Subject_11133.txt",1.69744558236562,0.993,0.708333333333333,1,48,0,NA,NA,NA,-0.125969318486467,NA,NA,NA,NA,NA,0.557271881088499,NA,NA,NA,NA,NA,0.775836511225803,NA,NA,NA,NA,NA,-0.226046428612935,NA,NA,NA,NA,NA,2.65116279069767,NA,NA,NA,NA,NA,0.604651162790698,NA,NA
"47","Subject_11134.txt",1.69583563775814,1.056,0.733333333333333,1,45,0,NA,NA,NA,NA,0.644289952609978,NA,NA,NA,NA,NA,1.23237451303568,NA,NA,NA,NA,NA,0.0583024936782415,NA,NA,NA,NA,NA,0.522803697897738,NA,NA,NA,NA,NA,2.64,NA,NA,NA,NA,NA,0.74,NA
"48","Subject_11135.txt",1.45201957662357,1.258,0.729166666666667,1,48,0,NA,NA,NA,NA,NA,0.892431287376375,NA,NA,NA,NA,NA,1.77101366817146,NA,NA,NA,NA,NA,0.347987727882959,NA,NA,NA,NA,NA,0.503909881338066,NA,NA,NA,NA,NA,3.72093023255814,NA,NA,NA,NA,NA,0.813953488372093
"49","Subject_11136.txt",1.29328759977943,1.2675,0.92,1,50,0,1.35621881073816,NA,NA,NA,NA,NA,0.979885620303486,NA,NA,NA,NA,NA,0.590376530663213,NA,NA,NA,NA,NA,1.38405828459665,NA,NA,NA,NA,NA,2.66666666666667,NA,NA,NA,NA,NA,0.666666666666667,NA,NA,NA,NA,NA
"50","Subject_11137.txt",1.27812023408478,1.218,0.7,1,50,0,NA,0.851812490089329,NA,NA,NA,NA,NA,1.74317030427773,NA,NA,NA,NA,NA,0.070490622856913,NA,NA,NA,NA,NA,0.488657068101142,NA,NA,NA,NA,NA,3.4,NA,NA,NA,NA,NA,0.82,NA,NA,NA,NA
"51","Subject_11139.txt",1.47271882396308,1.184,0.76,1,50,0,NA,NA,1.71719894162088,NA,NA,NA,NA,NA,1.90593027324406,NA,NA,NA,NA,NA,0.15187060734008,NA,NA,NA,NA,NA,0.900976791085885,NA,NA,NA,NA,NA,4.46,NA,NA,NA,NA,NA,0.84,NA,NA,NA
"52","Subject_11140.txt",1.35977432852087,1.326,0.84,1,50,0,NA,NA,NA,1.66817372625553,NA,NA,NA,NA,NA,0.643345405392917,NA,NA,NA,NA,NA,0.321672702696458,NA,NA,NA,NA,NA,2.59296749813066,NA,NA,NA,NA,NA,2.9375,NA,NA,NA,NA,NA,0.625,NA,NA
"53","Subject_11141.txt",1.41337363250204,1.3845,0.625,1,48,0,NA,NA,NA,NA,2.45782244694427,NA,NA,NA,NA,NA,1.34823992177274,NA,NA,NA,NA,NA,0.43071578307574,NA,NA,NA,NA,NA,1.82298595914041,NA,NA,NA,NA,NA,4.64,NA,NA,NA,NA,NA,0.74,NA
"54","Subject_11142.txt",1.25863615454,1.1435,0.74,1,50,0,NA,NA,NA,NA,NA,3.07442650349672,NA,NA,NA,NA,NA,1.97827242229957,NA,NA,NA,NA,NA,0.314646460953702,NA,NA,NA,NA,NA,1.55409662938281,NA,NA,NA,NA,NA,5.16,NA,NA,NA,NA,NA,0.84
"55","Subject_43336.txt",1.36523229604063,1.093,0.770833333333333,1,48,0,1.26027517412624,NA,NA,NA,NA,NA,1.14519699216497,NA,NA,NA,NA,NA,0.228496033199467,NA,NA,NA,NA,NA,1.10048767395357,NA,NA,NA,NA,NA,2.86,NA,NA,NA,NA,NA,0.72,NA,NA,NA,NA,NA
"56","Subject_47203.txt",1.50300591623818,1.2515,0.72,1,50,0,NA,1.38248566324887,NA,NA,NA,NA,NA,1.28478436038241,NA,NA,NA,NA,NA,-0.0320975700048745,NA,NA,NA,NA,NA,1.07604490362676,NA,NA,NA,NA,NA,3.875,NA,NA,NA,NA,NA,0.75,NA,NA,NA,NA
"57","Subject_47284.txt",1.4659718733601,1.102,0.75,1,48,0,NA,NA,1.46845770729596,NA,NA,NA,NA,NA,1.44503132185847,NA,NA,NA,NA,NA,0.164630898089639,NA,NA,NA,NA,NA,1.01621168003982,NA,NA,NA,NA,NA,3.875,NA,NA,NA,NA,NA,0.770833333333333,NA,NA,NA
"58","Subject_47617.txt",1.30664884930593,1.1765,0.84,1,50,0,NA,NA,NA,1.1200016727401,NA,NA,NA,NA,NA,1.00631024614553,NA,NA,NA,NA,NA,0.054729639766832,NA,NA,NA,NA,NA,1.11297850442251,NA,NA,NA,NA,NA,3.18,NA,NA,NA,NA,NA,0.7,NA,NA
"59","Subject_11114.txt",1.24206239217892,1.3515,0.666666666666667,1,48,0,NA,NA,NA,NA,2.09036197819893,NA,NA,NA,NA,NA,1.39050125830171,NA,NA,NA,NA,NA,0.246825145844921,NA,NA,NA,NA,NA,1.50331541645061,NA,NA,NA,NA,NA,4.4,NA,NA,NA,NA,NA,0.76,NA
"60","Subject_11115.txt",1.40026341064367,1.243,0.82,1,50,0,NA,NA,NA,NA,NA,2.32576546568481,NA,NA,NA,NA,NA,2.67928070917915,NA,NA,NA,NA,NA,0.234804610627466,NA,NA,NA,NA,NA,0.868055914304461,NA,NA,NA,NA,NA,5.1,NA,NA,NA,NA,NA,0.92
"61","Subject_11116.txt",0.97004028633819,1.1425,0.854166666666667,1,48,0,1.79313793233427,NA,NA,NA,NA,NA,0.959680209220471,NA,NA,NA,NA,NA,0.823942567493251,NA,NA,NA,NA,NA,1.86847443044678,NA,NA,NA,NA,NA,3.6,NA,NA,NA,NA,NA,0.64,NA,NA,NA,NA,NA
"62","Subject_11117.txt",0.992471414923784,1.268,0.68,1,50,0,NA,2.15404717570763,NA,NA,NA,NA,NA,1.86025438269625,NA,NA,NA,NA,NA,0.624646403248728,NA,NA,NA,NA,NA,1.15793151503589,NA,NA,NA,NA,NA,4.45833333333333,NA,NA,NA,NA,NA,0.791666666666667,NA,NA,NA,NA
"63","Subject_11118.txt",0.927174541400746,1.126,0.875,1,48,0,NA,NA,2.18827913638441,NA,NA,NA,NA,NA,2.24585844709926,NA,NA,NA,NA,NA,0.180853448553856,NA,NA,NA,NA,NA,0.974362003629739,NA,NA,NA,NA,NA,4.76,NA,NA,NA,NA,NA,0.88,NA,NA,NA
"64","Subject_11119.txt",0.621844990979298,1.101,0.957446808510638,1,47,0,NA,NA,NA,1.5700799987537,NA,NA,NA,NA,NA,1.92478088968428,NA,NA,NA,NA,NA,1.10751138605291,NA,NA,NA,NA,NA,0.815718821382957,NA,NA,NA,NA,NA,3.4,NA,NA,NA,NA,NA,0.72,NA,NA
"65","Subject_11120.txt",1.0009701057279,1.36,0.72,1,50,0,NA,NA,NA,NA,2.78846863081688,NA,NA,NA,NA,NA,2.13232972805664,NA,NA,NA,NA,NA,-0.508280101188722,NA,NA,NA,NA,NA,1.30770986969179,NA,NA,NA,NA,NA,5.42,NA,NA,NA,NA,NA,0.84,NA
"66","Subject_11121.txt",0.84896088973619,1.326,0.84,1,50,0,NA,NA,NA,NA,NA,3.48673136698824,NA,NA,NA,NA,NA,3.0888941389494,NA,NA,NA,NA,NA,-0.0103265251221535,NA,NA,NA,NA,NA,1.12879600599526,NA,NA,NA,NA,NA,6.34042553191489,NA,NA,NA,NA,NA,0.957446808510638
"67","Subject_11122.txt",0.699576476996299,1.151,0.791666666666667,1,48,0,1.6781428725426,NA,NA,NA,NA,NA,1.23034250233403,NA,NA,NA,NA,NA,0.959273714050029,NA,NA,NA,NA,NA,1.36396399324503,NA,NA,NA,NA,NA,3.42,NA,NA,NA,NA,NA,0.66,NA,NA,NA,NA,NA
"68","Subject_11123.txt",1.02644259917724,1.2765,0.66,1,50,0,NA,2.91499660536168,NA,NA,NA,NA,NA,1.93757366103613,NA,NA,NA,NA,NA,-0.111532510296889,NA,NA,NA,NA,NA,1.5044571796062,NA,NA,NA,NA,NA,5.32608695652174,NA,NA,NA,NA,NA,0.847826086956522,NA,NA,NA,NA
"69","Subject_11125.txt",1.02955389893032,1.168,0.847826086956522,1,46,0,NA,NA,2.54626523302722,NA,NA,NA,NA,NA,1.69401469498601,NA,NA,NA,NA,NA,0.434544218051598,NA,NA,NA,NA,NA,1.50309512695712,NA,NA,NA,NA,NA,4.9375,NA,NA,NA,NA,NA,0.791666666666667,NA,NA,NA
"70","Subject_11126.txt",0.683499637161731,1.168,0.88,1,50,0,NA,NA,NA,1.93950264538982,NA,NA,NA,NA,NA,0.946215470492724,NA,NA,NA,NA,NA,0.327986794035588,NA,NA,NA,NA,NA,2.04974734177603,NA,NA,NA,NA,NA,3.52,NA,NA,NA,NA,NA,0.68,NA,NA
"71","Subject_11127.txt",0.937567408560426,1.41,0.64,1,50,0,NA,NA,NA,NA,3.22394402635841,NA,NA,NA,NA,NA,2.19691665338742,NA,NA,NA,NA,NA,-0.183093238850893,NA,NA,NA,NA,NA,1.46748581535281,NA,NA,NA,NA,NA,5.58333333333333,NA,NA,NA,NA,NA,0.875,NA
"72","Subject_11129.txt",0.919887841140735,1.343,0.791666666666667,1,48,0,NA,NA,NA,NA,NA,3.50995397095047,NA,NA,NA,NA,NA,1.99568442865777,NA,NA,NA,NA,NA,-0.082477126486071,NA,NA,NA,NA,NA,1.75877203857884,NA,NA,NA,NA,NA,5.83333333333333,NA,NA,NA,NA,NA,0.854166666666667
"73","Subject_11130.txt",1.60003583358775,1.192,0.78,1,50,0,1.03129105380275,NA,NA,NA,NA,NA,0.675543001789908,NA,NA,NA,NA,NA,-0.237337780383484,NA,NA,NA,NA,NA,1.52661052082585,NA,NA,NA,NA,NA,2.65217391304348,NA,NA,NA,NA,NA,0.630434782608696,NA,NA,NA,NA,NA
"74","Subject_11132.txt",1.43793765407463,1.1925,0.604166666666667,1,48,0,NA,1.64026929553175,NA,NA,NA,NA,NA,1.05580853483432,NA,NA,NA,NA,NA,0.115441137975756,NA,NA,NA,NA,NA,1.55356699762722,NA,NA,NA,NA,NA,4.4375,NA,NA,NA,NA,NA,0.708333333333333,NA,NA,NA,NA
"75","Subject_11133.txt",1.46158941969043,1.254,0.936170212765957,1,47,0,NA,NA,1.04338957203069,NA,NA,NA,NA,NA,2.13232972805664,NA,NA,NA,NA,NA,-0.508280101188722,NA,NA,NA,NA,NA,0.489319057133631,NA,NA,NA,NA,NA,4.88,NA,NA,NA,NA,NA,0.84,NA,NA,NA
"76","Subject_11134.txt",1.31679465595516,1.1685,0.891304347826087,1,46,0,NA,NA,NA,0.894441042210901,NA,NA,NA,NA,NA,1.6021890585639,NA,NA,NA,NA,NA,0,NA,NA,NA,NA,NA,0.558261858942303,NA,NA,NA,NA,NA,3.26,NA,NA,NA,NA,NA,0.8,NA,NA
"77","Subject_11135.txt",1.26699015265331,1.1185,0.8,1,50,0,NA,NA,NA,NA,2.30180614404105,NA,NA,NA,NA,NA,1.8160463239027,NA,NA,NA,NA,NA,-0.350138399111749,NA,NA,NA,NA,NA,1.2674820646064,NA,NA,NA,NA,NA,4.875,NA,NA,NA,NA,NA,0.8125,NA
"78","Subject_11136.txt",1.25614191380737,1.4495,0.8125,1,48,0,NA,NA,NA,NA,NA,2.19641430906353,NA,NA,NA,NA,NA,2.31381390278365,NA,NA,NA,NA,NA,0.0765876105768677,NA,NA,NA,NA,NA,0.949261436462597,NA,NA,NA,NA,NA,5.04347826086957,NA,NA,NA,NA,NA,0.891304347826087
"79","Subject_11137.txt",1.47733967282693,1.227,0.916666666666667,1,48,0,0.564867280025038,NA,NA,NA,NA,NA,0.896850966611869,NA,NA,NA,NA,NA,2.77555756156289e-17,NA,NA,NA,NA,NA,0.629834053877422,NA,NA,NA,NA,NA,3.3,NA,NA,NA,NA,NA,0.68,NA,NA,NA,NA,NA
"80","Subject_11139.txt",1.43836287704471,1.2015,0.68,1,50,0,NA,1.71181431276653,NA,NA,NA,NA,NA,0.587506640693647,NA,NA,NA,NA,NA,-0.0503491425361922,NA,NA,NA,NA,NA,2.91369355543872,NA,NA,NA,NA,NA,3.86,NA,NA,NA,NA,NA,0.62,NA,NA,NA,NA
"81","Subject_11140.txt",1.41617605354986,1.3575,0.62,1,50,0,NA,NA,1.41445245606725,NA,NA,NA,NA,NA,2.63509293541181,NA,NA,NA,NA,NA,-0.237227126890948,NA,NA,NA,NA,NA,0.536775169125561,NA,NA,NA,NA,NA,4.95833333333333,NA,NA,NA,NA,NA,0.916666666666667,NA,NA,NA
"82","Subject_11141.txt",1.46619934376213,1.2185,0.84,1,50,0,NA,NA,NA,0.550777637123523,NA,NA,NA,NA,NA,0.519216351408498,NA,NA,NA,NA,NA,0.114487234493475,NA,NA,NA,NA,NA,1.06078638630969,NA,NA,NA,NA,NA,3.375,NA,NA,NA,NA,NA,0.604166666666667,NA,NA
"83","Subject_11142.txt",1.43712794993189,1.093,0.630434782608696,1,46,0,NA,NA,NA,NA,1.08713598984304,NA,NA,NA,NA,NA,3.09705610381005,NA,NA,NA,NA,NA,-0.521373778990026,NA,NA,NA,NA,NA,0.351022375250362,NA,NA,NA,NA,NA,4.34042553191489,NA,NA,NA,NA,NA,0.936170212765957,NA
"84","Subject_43336.txt",1.51754514005734,1.398,0.708333333333333,1,48,0,NA,NA,NA,NA,NA,1.72888331097603,NA,NA,NA,NA,NA,1.55326122726805,NA,NA,NA,NA,NA,-0.328205130328088,NA,NA,NA,NA,NA,1.11306667585908,NA,NA,NA,NA,NA,4.56,NA,NA,NA,NA,NA,0.78
"85","Subject_47203.txt",1.57716359194137,1.1425,0.833333333333333,1,48,1,0.911308172946285,NA,NA,NA,NA,NA,1.49996053783537,NA,NA,NA,NA,NA,-0.192095506078088,NA,NA,NA,NA,NA,0.607554765581643,NA,NA,NA,NA,NA,4.2,NA,NA,NA,NA,NA,0.78,NA,NA,NA,NA,NA
"86","Subject_47284.txt",1.5680237868155,1.151,0.595744680851064,1,47,1,NA,2.19152820289648,NA,NA,NA,NA,NA,1.59361215507678,NA,NA,NA,NA,NA,-0.30802966642372,NA,NA,NA,NA,NA,1.3751954614019,NA,NA,NA,NA,NA,4.60416666666667,NA,NA,NA,NA,NA,0.791666666666667,NA,NA,NA,NA
"87","Subject_47617.txt",1.4408276174463,1.2765,0.78,1,50,1,NA,NA,2.33768634935705,NA,NA,NA,NA,NA,1.72366474620787,NA,NA,NA,NA,NA,-0.21848696771102,NA,NA,NA,NA,NA,1.35623029623368,NA,NA,NA,NA,NA,4.97916666666667,NA,NA,NA,NA,NA,0.8125,NA,NA,NA
"88","Subject_11114.txt",1.68504636709486,1.1595,0.78,1,50,1,NA,NA,NA,0.387135569181825,NA,NA,NA,NA,NA,2.24893471541312,NA,NA,NA,NA,NA,0.44997760751048,NA,NA,NA,NA,NA,0.172141755173497,NA,NA,NA,NA,NA,3.42,NA,NA,NA,NA,NA,0.86,NA,NA
"89","Subject_11115.txt",1.38190080870936,1.2335,0.86,1,50,1,NA,NA,NA,NA,1.68535783455267,NA,NA,NA,NA,NA,2.20967148792422,NA,NA,NA,NA,NA,0,NA,NA,NA,NA,NA,0.762718731613768,NA,NA,NA,NA,NA,5.12,NA,NA,NA,NA,NA,0.88,NA
"90","Subject_11116.txt",1.54843321980138,1.393,0.88,1,50,1,NA,NA,NA,NA,NA,1.69654138344304,NA,NA,NA,NA,NA,1.47558427947803,NA,NA,NA,NA,NA,-0.0633023895429342,NA,NA,NA,NA,NA,1.14974211032065,NA,NA,NA,NA,NA,4.96,NA,NA,NA,NA,NA,0.78
"91","Subject_11117.txt",1.82906089428616,1.0495,0.84,1,50,1,1.2545655325333,NA,NA,NA,NA,NA,0.819610691406856,NA,NA,NA,NA,NA,0.264684404492654,NA,NA,NA,NA,NA,1.53068468443212,NA,NA,NA,NA,NA,3.34,NA,NA,NA,NA,NA,0.66,NA,NA,NA,NA,NA
"92","Subject_11118.txt",1.8104630485991,1.209,0.66,1,50,1,NA,1.12635951495584,NA,NA,NA,NA,NA,1.1157695256792,NA,NA,NA,NA,NA,0,NA,NA,NA,NA,NA,1.00949119780825,NA,NA,NA,NA,NA,3.9,NA,NA,NA,NA,NA,0.72,NA,NA,NA,NA
"93","Subject_11119.txt",1.47897079708673,1.1835,0.72,1,50,1,NA,NA,2.0962772588958,NA,NA,NA,NA,NA,1.90593027324406,NA,NA,NA,NA,NA,-0.15187060734008,NA,NA,NA,NA,NA,1.09987090730646,NA,NA,NA,NA,NA,5.32,NA,NA,NA,NA,NA,0.84,NA,NA,NA
"94","Subject_11120.txt",1.62910846920022,1.21,0.8125,1,48,1,NA,NA,NA,1.59024063852092,NA,NA,NA,NA,NA,0.509860889674863,NA,NA,NA,NA,NA,0.355364165348901,NA,NA,NA,NA,NA,3.11896964588715,NA,NA,NA,NA,NA,2.87234042553191,NA,NA,NA,NA,NA,0.595744680851064,NA,NA
"95","Subject_11121.txt",1.7719809418038,1.1985,0.78,1,50,1,NA,NA,NA,NA,1.08735293120457,NA,NA,NA,NA,NA,1.49996053783537,NA,NA,NA,NA,NA,-0.192095506078088,NA,NA,NA,NA,NA,0.72492102543828,NA,NA,NA,NA,NA,3.36,NA,NA,NA,NA,NA,0.78,NA
"96","Subject_11122.txt",1.5064027237363,1.45,0.791666666666667,1,48,1,NA,NA,NA,NA,NA,1.72215266202462,NA,NA,NA,NA,NA,2.09200530719214,NA,NA,NA,NA,NA,-0.488117890756474,NA,NA,NA,NA,NA,0.823206641065395,NA,NA,NA,NA,NA,4.875,NA,NA,NA,NA,NA,0.833333333333333
"97","Subject_11123.txt",1.37097406482417,1.4085,0.770833333333333,1,48,0,1.12651580884683,NA,NA,NA,NA,NA,1.04449870709258,NA,NA,NA,NA,NA,-0.278845175735659,NA,NA,NA,NA,NA,1.07852293276892,NA,NA,NA,NA,NA,3.24,NA,NA,NA,NA,NA,0.7,NA,NA,NA,NA,NA
"98","Subject_11125.txt",1.27033807637963,1.418,0.8125,1,48,0,NA,1.68611392156142,NA,NA,NA,NA,NA,1.35897929212155,NA,NA,NA,NA,NA,-0.121604883221176,NA,NA,NA,NA,NA,1.24072083462668,NA,NA,NA,NA,NA,4.56,NA,NA,NA,NA,NA,0.76,NA,NA,NA,NA
"99","Subject_11126.txt",1.41194631712187,1.3015,0.74,1,50,0,NA,NA,2.59878365922303,NA,NA,NA,NA,NA,1.18547995280641,NA,NA,NA,NA,NA,0.349335798592572,NA,NA,NA,NA,NA,2.19217849536037,NA,NA,NA,NA,NA,4.54,NA,NA,NA,NA,NA,0.72,NA,NA,NA
"100","Subject_11127.txt",1.3510183033145,1.6425,0.82,1,50,0,NA,NA,NA,1.25738062556929,NA,NA,NA,NA,NA,1.604719853523,NA,NA,NA,NA,NA,0.277959414053458,NA,NA,NA,NA,NA,0.783551485830278,NA,NA,NA,NA,NA,5.20833333333333,NA,NA,NA,NA,NA,0.791666666666667,NA,NA
"101","Subject_11129.txt",1.31764486982706,1.4845,0.791666666666667,1,48,0,NA,NA,NA,NA,1.76392279733415,NA,NA,NA,NA,NA,1.00631024614553,NA,NA,NA,NA,NA,-0.054729639766832,NA,NA,NA,NA,NA,1.7528618078674,NA,NA,NA,NA,NA,4.72,NA,NA,NA,NA,NA,0.7,NA
"102","Subject_11130.txt",1.48104898795191,1.475,0.7,1,50,0,NA,NA,NA,NA,NA,2.10504539285405,NA,NA,NA,NA,NA,1.77932549415819,NA,NA,NA,NA,NA,0.215172996883014,NA,NA,NA,NA,NA,1.18305807440249,NA,NA,NA,NA,NA,4.66,NA,NA,NA,NA,NA,0.82
"103","Subject_11132.txt",1.32586989264405,1.4505,0.72,1,50,0,1.29799601724925,NA,NA,NA,NA,NA,1.49996053783537,NA,NA,NA,NA,NA,-0.192095506078088,NA,NA,NA,NA,NA,0.865353443979544,NA,NA,NA,NA,NA,4.74,NA,NA,NA,NA,NA,0.78,NA,NA,NA,NA,NA
"104","Subject_11133.txt",1.39875513081461,1.392,0.78,1,50,0,NA,1.69941136277887,NA,NA,NA,NA,NA,1.49996053783537,NA,NA,NA,NA,NA,-0.192095506078088,NA,NA,NA,NA,NA,1.13297071483716,NA,NA,NA,NA,NA,4.12,NA,NA,NA,NA,NA,0.78,NA,NA,NA,NA
"105","Subject_11134.txt",1.47210216236044,1.3835,0.78,1,50,0,NA,NA,2.47248712424505,NA,NA,NA,NA,NA,1.12291523350202,NA,NA,NA,NA,NA,0.113032133445074,NA,NA,NA,NA,NA,2.2018466314097,NA,NA,NA,NA,NA,4.74,NA,NA,NA,NA,NA,0.72,NA,NA,NA
"106","Subject_11135.txt",1.30462531217972,1.6015,0.72,1,50,0,NA,NA,NA,0.783651695086129,NA,NA,NA,NA,NA,1.80595207825264,NA,NA,NA,NA,NA,0.37857552641828,NA,NA,NA,NA,NA,0.433927181414667,NA,NA,NA,NA,NA,4.75,NA,NA,NA,NA,NA,0.8125,NA,NA
"107","Subject_11136.txt",1.27449774556931,1.435,0.7,1,50,0,NA,NA,NA,NA,1.30348543276556,NA,NA,NA,NA,NA,1.28617823787879,NA,NA,NA,NA,NA,0.29898665605638,NA,NA,NA,NA,NA,1.01345629585159,NA,NA,NA,NA,NA,4.38,NA,NA,NA,NA,NA,0.74,NA
"108","Subject_11137.txt",1.31302998368733,1.393,0.76,1,50,0,NA,NA,NA,NA,NA,2.19992111117409,NA,NA,NA,NA,NA,1.41138913946828,NA,NA,NA,NA,NA,-0.0953999595478086,NA,NA,NA,NA,NA,1.55869210670197,NA,NA,NA,NA,NA,4.66666666666667,NA,NA,NA,NA,NA,0.770833333333333
"109","Subject_11139.txt",1.10849802466601,1.26,0.84,1,50,0,1.13178592942196,NA,NA,NA,NA,NA,0.291627251366553,NA,NA,NA,NA,NA,0.0975905521273544,NA,NA,NA,NA,NA,3.88093336311491,NA,NA,NA,NA,NA,3.78,NA,NA,NA,NA,NA,0.56,NA,NA,NA,NA,NA
"110","Subject_11140.txt",1.04187578897017,1.16,0.74,1,50,0,NA,1.15275112729243,NA,NA,NA,NA,NA,1.28987094039662,NA,NA,NA,NA,NA,0.15615905908364,NA,NA,NA,NA,NA,0.893694935818903,NA,NA,NA,NA,NA,4.75,NA,NA,NA,NA,NA,0.75,NA,NA,NA,NA
"111","Subject_11141.txt",1.09396091678627,1.1855,0.68,1,50,0,NA,NA,0.986692745812438,NA,NA,NA,NA,NA,1.24952001258788,NA,NA,NA,NA,NA,-0.176334522988008,NA,NA,NA,NA,NA,0.789657417146041,NA,NA,NA,NA,NA,4.2,NA,NA,NA,NA,NA,0.74,NA,NA,NA
"112","Subject_11142.txt",1.2761968693012,1.102,0.8,1,50,0,NA,NA,NA,1.59656688703963,NA,NA,NA,NA,NA,0.606107836395521,NA,NA,NA,NA,NA,0.254830844641838,NA,NA,NA,NA,NA,2.63413008571923,NA,NA,NA,NA,NA,3.78,NA,NA,NA,NA,NA,0.62,NA,NA
"113","Subject_43336.txt",1.03028700482355,1.135,0.62,1,50,0,NA,NA,NA,NA,2.15610556342147,NA,NA,NA,NA,NA,1.14519699216497,NA,NA,NA,NA,NA,0.228496033199467,NA,NA,NA,NA,NA,1.88273771078058,NA,NA,NA,NA,NA,4.82,NA,NA,NA,NA,NA,0.72,NA
"114","Subject_47203.txt",1.1112150507106,1.243,0.72,1,50,0,NA,NA,NA,NA,NA,1.76776769048086,NA,NA,NA,NA,NA,1.91854742810006,NA,NA,NA,NA,NA,0.615171251167014,NA,NA,NA,NA,NA,0.921409429128101,NA,NA,NA,NA,NA,4.52,NA,NA,NA,NA,NA,0.8
"115","Subject_47284.txt",1.06079295648851,1.1685,0.84,1,50,0,1.13221160297367,NA,NA,NA,NA,NA,0.496648556861857,NA,NA,NA,NA,NA,0.200101204875006,NA,NA,NA,NA,NA,2.27970380127087,NA,NA,NA,NA,NA,4.24,NA,NA,NA,NA,NA,0.6,NA,NA,NA,NA,NA
"116","Subject_47617.txt",1.09014354251212,1.227,0.6,1,50,0,NA,1.40740237797792,NA,NA,NA,NA,NA,1.49996053783537,NA,NA,NA,NA,NA,0.192095506078089,NA,NA,NA,NA,NA,0.938292936698837,NA,NA,NA,NA,NA,4.64,NA,NA,NA,NA,NA,0.78,NA,NA,NA,NA
"117","Subject_11114.txt",1.06446099778896,1.1765,0.78,1,50,0,NA,NA,1.91475833873768,NA,NA,NA,NA,NA,1.88415154999155,NA,NA,NA,NA,NA,2.22044604925031e-16,NA,NA,NA,NA,NA,1.0162443348818,NA,NA,NA,NA,NA,4.74,NA,NA,NA,NA,NA,0.84,NA,NA,NA
"118","Subject_11115.txt",1.23187673533403,1.219,0.74,1,50,0,NA,NA,NA,0.71283151010292,NA,NA,NA,NA,NA,1.44890361331426,NA,NA,NA,NA,NA,0.579330865446356,NA,NA,NA,NA,NA,0.491979938177095,NA,NA,NA,NA,NA,3.5,NA,NA,NA,NA,NA,0.74,NA,NA
"119","Subject_11116.txt",1.12081422560914,1.16,0.56,1,50,0,NA,NA,NA,NA,1.58794272223566,NA,NA,NA,NA,NA,0.946215470492724,NA,NA,NA,NA,NA,0.327986794035588,NA,NA,NA,NA,NA,1.67820414245475,NA,NA,NA,NA,NA,4.56,NA,NA,NA,NA,NA,0.68,NA
"120","Subject_11117.txt",1.06353709023733,1.327,0.75,1,48,0,NA,NA,NA,NA,NA,1.92081610810246,NA,NA,NA,NA,NA,1.97827242229957,NA,NA,NA,NA,NA,0.314646460953702,NA,NA,NA,NA,NA,0.970956318477955,NA,NA,NA,NA,NA,4.78,NA,NA,NA,NA,NA,0.84
"121","Subject_11118.txt",1.73395437363615,1.3175,0.875,0,48,1,0.871020624974292,NA,NA,NA,NA,NA,0.691829661116566,NA,NA,NA,NA,NA,0.102510652747652,NA,NA,NA,NA,NA,1.25901023608691,NA,NA,NA,NA,NA,4.04,NA,NA,NA,NA,NA,0.64,NA,NA,NA,NA,NA
"122","Subject_11119.txt",1.72856634615346,1.339,0.625,0,48,1,NA,1.38481643180164,NA,NA,NA,NA,NA,1.21403622565354,NA,NA,NA,NA,NA,0.497817631135339,NA,NA,NA,NA,NA,1.14067142523376,NA,NA,NA,NA,NA,5.14893617021277,NA,NA,NA,NA,NA,0.723404255319149,NA,NA,NA,NA
"123","Subject_11120.txt",1.70096503612695,1.4095,0.78,0,50,1,NA,NA,0.849727726853714,NA,NA,NA,NA,NA,1.77932549415819,NA,NA,NA,NA,NA,0.215172996883014,NA,NA,NA,NA,NA,0.477556090576741,NA,NA,NA,NA,NA,4.48,NA,NA,NA,NA,NA,0.82,NA,NA,NA
"124","Subject_11121.txt",1.72828885255512,1.389,0.8,0,50,1,NA,NA,NA,0.500659695447472,NA,NA,NA,NA,NA,0.330387287313066,NA,NA,NA,NA,NA,0.509296106539549,NA,NA,NA,NA,NA,1.51537215465879,NA,NA,NA,NA,NA,3.24,NA,NA,NA,NA,NA,0.56,NA,NA
"125","Subject_11122.txt",1.85075175101701,1.44,0.56,0,50,1,NA,NA,NA,NA,1.35722919628546,NA,NA,NA,NA,NA,1.13574107062639,NA,NA,NA,NA,NA,0.223768072430179,NA,NA,NA,NA,NA,1.19501639184089,NA,NA,NA,NA,NA,5.06666666666667,NA,NA,NA,NA,NA,0.711111111111111,NA
"126","Subject_11123.txt",1.58974030769332,1.198,0.711111111111111,0,45,1,NA,NA,NA,NA,NA,2.99741091346619,NA,NA,NA,NA,NA,1.66272050680171,NA,NA,NA,NA,NA,0.273475490561256,NA,NA,NA,NA,NA,1.80271482862252,NA,NA,NA,NA,NA,5.94,NA,NA,NA,NA,NA,0.8
"127","Subject_11125.txt",1.95198157699087,1.3205,0.8,0,50,1,1.1851949386209,NA,NA,NA,NA,NA,1.66272050680171,NA,NA,NA,NA,NA,0.273475490561256,NA,NA,NA,NA,NA,0.712804667875695,NA,NA,NA,NA,NA,4.74,NA,NA,NA,NA,NA,0.8,NA,NA,NA,NA,NA
"128","Subject_11126.txt",1.42979010897216,1.2595,0.8,0,50,1,NA,2.86310243090336,NA,NA,NA,NA,NA,1.77932549415819,NA,NA,NA,NA,NA,-0.215172996883014,NA,NA,NA,NA,NA,1.60909425526885,NA,NA,NA,NA,NA,5.68,NA,NA,NA,NA,NA,0.82,NA,NA,NA,NA
"129","Subject_11127.txt",1.61367790018539,1.2455,0.82,0,50,1,NA,NA,1.85784601599807,NA,NA,NA,NA,NA,1.61656552519186,NA,NA,NA,NA,NA,-0.133793012399847,NA,NA,NA,NA,NA,1.1492550020684,NA,NA,NA,NA,NA,5.18,NA,NA,NA,NA,NA,0.8,NA,NA,NA
"130","Subject_11129.txt",1.72565827737708,1.334,0.82,0,50,1,NA,NA,NA,1.09703923304125,NA,NA,NA,NA,NA,0.610129943215539,NA,NA,NA,NA,NA,0.252819791231829,NA,NA,NA,NA,NA,1.7980419503091,NA,NA,NA,NA,NA,3.89583333333333,NA,NA,NA,NA,NA,0.625,NA,NA
"131","Subject_11130.txt",1.87783592845881,1.32,0.64,0,50,1,NA,NA,NA,NA,0.900116120511527,NA,NA,NA,NA,NA,1.47558427947803,NA,NA,NA,NA,NA,0.0633023895429342,NA,NA,NA,NA,NA,0.610006580464473,NA,NA,NA,NA,NA,5.2,NA,NA,NA,NA,NA,0.78,NA
"132","Subject_11132.txt",1.75889318870304,1.334,0.723404255319149,0,47,1,NA,NA,NA,NA,NA,1.81291477739769,NA,NA,NA,NA,NA,2.19092923112236,NA,NA,NA,NA,NA,0.208318056542305,NA,NA,NA,NA,NA,0.827463868592862,NA,NA,NA,NA,NA,5.45833333333333,NA,NA,NA,NA,NA,0.875
"133","Subject_11133.txt",2.11348022821858,1.3805,0.75,1,48,1,0.402120850219462,NA,NA,NA,NA,NA,0.205021305495304,NA,NA,NA,NA,NA,0.345914830558283,NA,NA,NA,NA,NA,1.96136128022399,NA,NA,NA,NA,NA,1.72,NA,NA,NA,NA,NA,0.54,NA,NA,NA,NA,NA
"134","Subject_11134.txt",1.70621359908546,1.342,0.479166666666667,1,48,1,NA,1.60815361866695,NA,NA,NA,NA,NA,1.99568442865777,NA,NA,NA,NA,NA,-0.082477126486071,NA,NA,NA,NA,NA,0.805815586659933,NA,NA,NA,NA,NA,5.64583333333333,NA,NA,NA,NA,NA,0.854166666666667,NA,NA,NA,NA
"135","Subject_11135.txt",1.86377512475156,1.4635,0.739130434782609,1,46,1,NA,NA,2.82558334829123,NA,NA,NA,NA,NA,1.82467588632288,NA,NA,NA,NA,NA,0.0550836229402615,NA,NA,NA,NA,NA,1.54853986369349,NA,NA,NA,NA,NA,6.02380952380952,NA,NA,NA,NA,NA,0.833333333333333,NA,NA,NA
"136","Subject_11136.txt",1.90780445240125,1.317,0.847826086956522,1,46,1,NA,NA,NA,0.487421655628498,NA,NA,NA,NA,NA,0.62626667664016,NA,NA,NA,NA,NA,0.361356411876002,NA,NA,NA,NA,NA,0.778297287416684,NA,NA,NA,NA,NA,2.36,NA,NA,NA,NA,NA,0.62,NA,NA
"137","Subject_11137.txt",1.89118486331427,1.3865,0.62,1,50,1,NA,NA,NA,NA,1.41540277333327,NA,NA,NA,NA,NA,1.00631024614553,NA,NA,NA,NA,NA,0.054729639766832,NA,NA,NA,NA,NA,1.40652724023697,NA,NA,NA,NA,NA,4.28,NA,NA,NA,NA,NA,0.7,NA
"138","Subject_11139.txt",1.78849430337232,1.383,0.7,1,50,1,NA,NA,NA,NA,NA,2.27889275689678,NA,NA,NA,NA,NA,1.94161901078893,NA,NA,NA,NA,NA,0.0836629463755885,NA,NA,NA,NA,NA,1.17370748032118,NA,NA,NA,NA,NA,4.67391304347826,NA,NA,NA,NA,NA,0.847826086956522
"139","Subject_11140.txt",1.72757607400308,1.4975,0.914893617021277,1,47,1,0.547478762740979,NA,NA,NA,NA,NA,1.05661267040619,NA,NA,NA,NA,NA,0.576529408759016,NA,NA,NA,NA,NA,0.518145180419343,NA,NA,NA,NA,NA,3.82,NA,NA,NA,NA,NA,0.68,NA,NA,NA,NA,NA
"140","Subject_11141.txt",1.7438637942123,1.4385,0.68,1,50,1,NA,1.51057260434137,NA,NA,NA,NA,NA,0.614356608583255,NA,NA,NA,NA,NA,0.105284825149777,NA,NA,NA,NA,NA,2.45878791444083,NA,NA,NA,NA,NA,4.64583333333333,NA,NA,NA,NA,NA,0.625,NA,NA,NA,NA
"141","Subject_11142.txt",1.84946209653208,1.375,0.625,1,48,1,NA,NA,2.47635103452662,NA,NA,NA,NA,NA,2.5397131266077,NA,NA,NA,NA,NA,-0.0116950022407522,NA,NA,NA,NA,NA,0.975051476713155,NA,NA,NA,NA,NA,5.85106382978723,NA,NA,NA,NA,NA,0.914893617021277,NA,NA,NA
"142","Subject_43336.txt",2.09047316577926,1.3915,0.833333333333333,1,42,1,NA,NA,NA,1.23213682416385,NA,NA,NA,NA,NA,-0.118944892684876,NA,NA,NA,NA,NA,0.583872959050479,NA,NA,NA,NA,NA,-10.3588880224406,NA,NA,NA,NA,NA,2.58333333333333,NA,NA,NA,NA,NA,0.479166666666667,NA,NA
"143","Subject_47203.txt",1.99422365299597,1.3975,0.54,1,50,1,NA,NA,NA,NA,1.14928611567739,NA,NA,NA,NA,NA,1.23037045497619,NA,NA,NA,NA,NA,0.126408816373424,NA,NA,NA,NA,NA,0.934097621597742,NA,NA,NA,NA,NA,3.84782608695652,NA,NA,NA,NA,NA,0.739130434782609,NA
"144","Subject_47284.txt",1.66145428822983,1.424,0.854166666666667,1,48,1,NA,NA,NA,NA,NA,2.53503901082285,NA,NA,NA,NA,NA,1.28669081078583,NA,NA,NA,NA,NA,0,NA,NA,NA,NA,NA,1.97020060264097,NA,NA,NA,NA,NA,5.10416666666667,NA,NA,NA,NA,NA,0.75
"145","Subject_47617.txt",1.61756402791616,1.1685,0.977272727272727,1,44,0,0.66069204799129,NA,NA,NA,NA,NA,0.392325536438938,NA,NA,NA,NA,NA,0.147939694663547,NA,NA,NA,NA,NA,1.68404038643077,NA,NA,NA,NA,NA,2.26,NA,NA,NA,NA,NA,0.58,NA,NA,NA,NA,NA
"146","Subject_11114.txt",1.57872317901274,1.293,0.577777777777778,1,45,0,NA,1.18130746187826,NA,NA,NA,NA,NA,2.16103699232467,NA,NA,NA,NA,NA,-0.223264175941154,NA,NA,NA,NA,NA,0.546639167248823,NA,NA,NA,NA,NA,4.5531914893617,NA,NA,NA,NA,NA,0.872340425531915,NA,NA,NA,NA
"147","Subject_11115.txt",1.26922553770419,1.2765,0.791666666666667,1,48,0,NA,NA,2.69086290175646,NA,NA,NA,NA,NA,3.14888993043409,NA,NA,NA,NA,NA,0,NA,NA,NA,NA,NA,0.854543334700022,NA,NA,NA,NA,NA,6.1,NA,NA,NA,NA,NA,0.96,NA,NA,NA
"148","Subject_11116.txt",1.34937515939782,1.1845,0.955555555555556,1,45,0,NA,NA,NA,1.72593621358983,NA,NA,NA,NA,NA,0.752545887084348,NA,NA,NA,NA,NA,0.267072461850743,NA,NA,NA,NA,NA,2.29346308738298,NA,NA,NA,NA,NA,3.23913043478261,NA,NA,NA,NA,NA,0.652173913043478,NA,NA
"149","Subject_11117.txt",1.30711088013413,1.2575,0.652173913043478,1,46,0,NA,NA,NA,NA,2.09977297880018,NA,NA,NA,NA,NA,2.32696680878554,NA,NA,NA,NA,NA,0.391290190204084,NA,NA,NA,NA,NA,0.90236481709684,NA,NA,NA,NA,NA,5.0625,NA,NA,NA,NA,NA,0.875,NA
"150","Subject_11118.txt",1.2250391778507,1.36,0.875,1,48,0,NA,NA,NA,NA,NA,2.97791294814885,NA,NA,NA,NA,NA,3.27724776164624,NA,NA,NA,NA,NA,-0.380462319760023,NA,NA,NA,NA,NA,0.908662745307048,NA,NA,NA,NA,NA,5.77777777777778,NA,NA,NA,NA,NA,0.955555555555556
"151","Subject_11119.txt",1.680680868536,1.136,0.875,1,48,0,0.582214761183371,NA,NA,NA,NA,NA,0.509860889674863,NA,NA,NA,NA,NA,0.355364165348901,NA,NA,NA,NA,NA,1.14190904416036,NA,NA,NA,NA,NA,1.93617021276596,NA,NA,NA,NA,NA,0.595744680851064,NA,NA,NA,NA,NA
"152","Subject_11120.txt",1.48146121753598,1.127,0.595744680851064,1,47,0,NA,1.49917813890136,NA,NA,NA,NA,NA,1.13508800366139,NA,NA,NA,NA,NA,0.347821086012117,NA,NA,NA,NA,NA,1.32075938963811,NA,NA,NA,NA,NA,3.89130434782609,NA,NA,NA,NA,NA,0.717391304347826,NA,NA,NA,NA
"153","Subject_11121.txt",1.21500611928423,1.301,0.717391304347826,1,46,0,NA,NA,3.33007200193187,NA,NA,NA,NA,NA,2.32696680878554,NA,NA,NA,NA,NA,-0.391290190204085,NA,NA,NA,NA,NA,1.43107842765916,NA,NA,NA,NA,NA,6.08333333333333,NA,NA,NA,NA,NA,0.875,NA,NA,NA
"154","Subject_11122.txt",1.48599590337108,1.259,0.96,1,50,0,NA,NA,NA,0.884843701237518,NA,NA,NA,NA,NA,0.585738042711482,NA,NA,NA,NA,NA,0.705332150797146,NA,NA,NA,NA,NA,1.51064748525027,NA,NA,NA,NA,NA,2.17777777777778,NA,NA,NA,NA,NA,0.577777777777778,NA,NA
"155","Subject_11123.txt",1.40463589862156,1.466,0.58,1,50,0,NA,NA,NA,NA,2.5724110975578,NA,NA,NA,NA,NA,1.55871049323573,NA,NA,NA,NA,NA,0.136009841224949,NA,NA,NA,NA,NA,1.65034565990361,NA,NA,NA,NA,NA,5.1875,NA,NA,NA,NA,NA,0.791666666666667,NA
"156","Subject_11125.txt",1.34496494444647,1.6885,0.872340425531915,1,47,0,NA,NA,NA,NA,NA,3.83132545261736,NA,NA,NA,NA,NA,3.53552599124413,NA,NA,NA,NA,NA,-0.212989401025213,NA,NA,NA,NA,NA,1.08366490929661,NA,NA,NA,NA,NA,6.43181818181818,NA,NA,NA,NA,NA,0.977272727272727
"157","Subject_11126.txt",1.30902393149699,1.127,0.8,1,50,0,1.13742662196353,NA,NA,NA,NA,NA,-0.098283236599857,NA,NA,NA,NA,NA,0.194262559510703,NA,NA,NA,NA,NA,-11.5729463264866,NA,NA,NA,NA,NA,3.88,NA,NA,NA,NA,NA,0.48,NA,NA,NA,NA,NA
"158","Subject_11127.txt",1.1994798839587,1.135,0.78,1,50,0,NA,1.2218012932526,NA,NA,NA,NA,NA,0.79252794618895,NA,NA,NA,NA,NA,-0.0521615102114594,NA,NA,NA,NA,NA,1.54165073815745,NA,NA,NA,NA,NA,4.4,NA,NA,NA,NA,NA,0.66,NA,NA,NA,NA
"159","Subject_11129.txt",1.36455120302162,1.059,0.729166666666667,1,48,0,NA,NA,1.14562499142532,NA,NA,NA,NA,NA,1.61656552519186,NA,NA,NA,NA,NA,0.133793012399847,NA,NA,NA,NA,NA,0.708678351463269,NA,NA,NA,NA,NA,4.32,NA,NA,NA,NA,NA,0.8,NA,NA,NA
"160","Subject_11130.txt",1.32583346726824,1.085,0.84,1,50,0,NA,NA,NA,0.792783296116061,NA,NA,NA,NA,NA,0.688204925766031,NA,NA,NA,NA,NA,8.32667268468867e-17,NA,NA,NA,NA,NA,1.15195818343442,NA,NA,NA,NA,NA,3.86,NA,NA,NA,NA,NA,0.64,NA,NA
"161","Subject_11132.txt",1.09633968296475,0.9925,0.64,1,50,0,NA,NA,NA,NA,0.634987784792649,NA,NA,NA,NA,NA,1.88415154999155,NA,NA,NA,NA,NA,2.22044604925031e-16,NA,NA,NA,NA,NA,0.33701523892571,NA,NA,NA,NA,NA,3.92,NA,NA,NA,NA,NA,0.84,NA
"162","Subject_11133.txt",1.28353606406199,1.06,0.84,1,50,0,NA,NA,NA,NA,NA,1.66088263270786,NA,NA,NA,NA,NA,1.90593027324406,NA,NA,NA,NA,NA,0.15187060734008,NA,NA,NA,NA,NA,0.871428853418072,NA,NA,NA,NA,NA,5.06,NA,NA,NA,NA,NA,0.84
"163","Subject_11134.txt",1.32652559726193,1.1175,0.74,1,50,0,0.781561253374879,NA,NA,NA,NA,NA,0.819610691406856,NA,NA,NA,NA,NA,-0.264684404492654,NA,NA,NA,NA,NA,0.953576205836621,NA,NA,NA,NA,NA,4.06,NA,NA,NA,NA,NA,0.66,NA,NA,NA,NA,NA
"164","Subject_11135.txt",1.30212316288817,0.96,0.66,1,50,0,NA,0.504111227802221,NA,NA,NA,NA,NA,1.35897929212155,NA,NA,NA,NA,NA,0.121604883221176,NA,NA,NA,NA,NA,0.370948424839672,NA,NA,NA,NA,NA,4.04,NA,NA,NA,NA,NA,0.76,NA,NA,NA,NA
"165","Subject_11136.txt",1.13348837686681,1.0975,0.76,1,50,0,NA,NA,1.24338552613671,NA,NA,NA,NA,NA,1.23237451303568,NA,NA,NA,NA,NA,0.0583024936782415,NA,NA,NA,NA,NA,1.00893479456493,NA,NA,NA,NA,NA,4.54,NA,NA,NA,NA,NA,0.74,NA,NA,NA
"166","Subject_11137.txt",1.3302215553831,1.093,0.8,1,50,0,NA,NA,NA,1.03878259493913,NA,NA,NA,NA,NA,1.49996053783537,NA,NA,NA,NA,NA,0.192095506078089,NA,NA,NA,NA,NA,0.692539949376413,NA,NA,NA,NA,NA,4.14,NA,NA,NA,NA,NA,0.78,NA,NA
"167","Subject_11139.txt",1.18392163580575,1.01,0.48,1,50,0,NA,NA,NA,NA,1.33046883246463,NA,NA,NA,NA,NA,1.22084587594221,NA,NA,NA,NA,NA,0.304942149871708,NA,NA,NA,NA,NA,1.0897926254924,NA,NA,NA,NA,NA,4.9375,NA,NA,NA,NA,NA,0.729166666666667,NA
"168","Subject_11140.txt",1.21070586352107,1.2015,0.66,1,50,0,NA,NA,NA,NA,NA,1.98853365377671,NA,NA,NA,NA,NA,1.6021890585639,NA,NA,NA,NA,NA,0,NA,NA,NA,NA,NA,1.24113545973102,NA,NA,NA,NA,NA,5.24,NA,NA,NA,NA,NA,0.8
"169","Subject_11141.txt",1.34411032996104,1.217,0.9,1,50,0,1.31592556199601,NA,NA,NA,NA,NA,1.55326122726805,NA,NA,NA,NA,NA,0.328205130328088,NA,NA,NA,NA,NA,0.847201706251643,NA,NA,NA,NA,NA,3.66,NA,NA,NA,NA,NA,0.78,NA,NA,NA,NA,NA
"170","Subject_11142.txt",1.46576778161216,1.225,0.68,1,50,0,NA,1.21802690695422,NA,NA,NA,NA,NA,1.47558427947803,NA,NA,NA,NA,NA,0.0633023895429342,NA,NA,NA,NA,NA,0.825453973652447,NA,NA,NA,NA,NA,4.42,NA,NA,NA,NA,NA,0.78,NA,NA,NA,NA
"171","Subject_43336.txt",1.43071447246803,1.248,0.833333333333333,1,48,0,NA,NA,2.4586211936172,NA,NA,NA,NA,NA,2.24585844709926,NA,NA,NA,NA,NA,-0.180853448553855,NA,NA,NA,NA,NA,1.09473559956227,NA,NA,NA,NA,NA,5.6,NA,NA,NA,NA,NA,0.88,NA,NA,NA
"172","Subject_47203.txt",1.2779109102903,1.0675,0.94,1,50,0,NA,NA,NA,0.699004287995165,NA,NA,NA,NA,NA,0.593546424516709,NA,NA,NA,NA,NA,0.15165227104758,NA,NA,NA,NA,NA,1.17767416182201,NA,NA,NA,NA,NA,3.16,NA,NA,NA,NA,NA,0.62,NA,NA
"173","Subject_47284.txt",1.16682337806924,1.341,0.62,1,50,0,NA,NA,NA,NA,3.09576952471918,NA,NA,NA,NA,NA,2.58533423764809,NA,NA,NA,NA,NA,-0.0111155532794432,NA,NA,NA,NA,NA,1.19743493109635,NA,NA,NA,NA,NA,6.18367346938776,NA,NA,NA,NA,NA,0.918367346938776,NA
"174","Subject_47617.txt",0.972829899958015,1.268,0.918367346938776,1,49,0,NA,NA,NA,NA,NA,5.23755115347446,NA,NA,NA,NA,NA,2.87822763732053,NA,NA,NA,NA,NA,0.135331146556778,NA,NA,NA,NA,NA,1.81971400926104,NA,NA,NA,NA,NA,6.66,NA,NA,NA,NA,NA,0.94
"175","Subject_11114.txt",1.46599282367424,1.2005,0.8125,1,48,0,1.2178086299876,NA,NA,NA,NA,NA,1.49996053783537,NA,NA,NA,NA,NA,0.192095506078089,NA,NA,NA,NA,NA,0.81189377938239,NA,NA,NA,NA,NA,4.48,NA,NA,NA,NA,NA,0.78,NA,NA,NA,NA,NA
"176","Subject_11115.txt",1.28386032956041,1.243,0.78,1,50,0,NA,3.00043485630132,NA,NA,NA,NA,NA,3.14888993043409,NA,NA,NA,NA,NA,0,NA,NA,NA,NA,NA,0.952854790922369,NA,NA,NA,NA,NA,6,NA,NA,NA,NA,NA,0.96,NA,NA,NA,NA
"177","Subject_11116.txt",1.3186470528799,0.993,0.96,1,50,0,NA,NA,0.757200679546048,NA,NA,NA,NA,NA,1.72366474620787,NA,NA,NA,NA,NA,0.21848696771102,NA,NA,NA,NA,NA,0.439296957956539,NA,NA,NA,NA,NA,4.08333333333333,NA,NA,NA,NA,NA,0.8125,NA,NA,NA
"178","Subject_11117.txt",1.55662286125698,1.2015,0.88,1,50,0,NA,NA,NA,0.630040569781283,NA,NA,NA,NA,NA,1.05661267040619,NA,NA,NA,NA,NA,0.576529408759016,NA,NA,NA,NA,NA,0.596283375571371,NA,NA,NA,NA,NA,3.82,NA,NA,NA,NA,NA,0.68,NA,NA
"179","Subject_11118.txt",1.11920476582236,1.335,0.78,1,50,0,NA,NA,NA,NA,3.34569691476399,NA,NA,NA,NA,NA,1.83073017568563,NA,NA,NA,NA,NA,1.11022302462516e-16,NA,NA,NA,NA,NA,1.82752049384393,NA,NA,NA,NA,NA,5.79166666666667,NA,NA,NA,NA,NA,0.833333333333333,NA
"180","Subject_11119.txt",1.25749094939238,1.202,0.78,1,50,0,NA,NA,NA,NA,NA,2.90211066642023,NA,NA,NA,NA,NA,2.51652074021282,NA,NA,NA,NA,NA,0.316184595110634,NA,NA,NA,NA,NA,1.1532234247252,NA,NA,NA,NA,NA,5.48,NA,NA,NA,NA,NA,0.9
"181","Subject_11120.txt",1.40740810247371,1.0765,0.761904761904762,1,42,0,0.778616361612949,NA,NA,NA,NA,NA,1.55326122726805,NA,NA,NA,NA,NA,0.328205130328088,NA,NA,NA,NA,NA,0.501278437872565,NA,NA,NA,NA,NA,4.16,NA,NA,NA,NA,NA,0.78,NA,NA,NA,NA,NA
"182","Subject_11121.txt",1.34598092194938,1.059,0.697674418604651,1,43,0,NA,1.69325044007391,NA,NA,NA,NA,NA,1.34823992177274,NA,NA,NA,NA,NA,0.43071578307574,NA,NA,NA,NA,NA,1.25589697555279,NA,NA,NA,NA,NA,5,NA,NA,NA,NA,NA,0.74,NA,NA,NA,NA
"183","Subject_11122.txt",1.32024672823172,1.2505,0.717391304347826,1,46,0,NA,NA,3.29097905818178,NA,NA,NA,NA,NA,1.35244790880194,NA,NA,NA,NA,NA,-0.0328785490080536,NA,NA,NA,NA,NA,2.43334995511737,NA,NA,NA,NA,NA,5.71739130434783,NA,NA,NA,NA,NA,0.760869565217391,NA,NA,NA
"184","Subject_11123.txt",1.59672173220315,1.2015,0.826086956521739,1,46,0,NA,NA,NA,1.10371449582384,NA,NA,NA,NA,NA,1.12429408027726,NA,NA,NA,NA,NA,0.671347521830062,NA,NA,NA,NA,NA,0.981695550288461,NA,NA,NA,NA,NA,4.25,NA,NA,NA,NA,NA,0.681818181818182,NA,NA
"185","Subject_11125.txt",1.3633738024073,1.2665,0.681818181818182,1,44,0,NA,NA,NA,NA,1.80134788932351,NA,NA,NA,NA,NA,1.86166743494309,NA,NA,NA,NA,NA,0.372948954631944,NA,NA,NA,NA,NA,0.967599183136906,NA,NA,NA,NA,NA,5.18,NA,NA,NA,NA,NA,0.82,NA
"186","Subject_11126.txt",1.27951796405978,1.2665,0.82,1,50,0,NA,NA,NA,NA,NA,2.91074085768005,NA,NA,NA,NA,NA,1.86845617124943,NA,NA,NA,NA,NA,0.323933475438382,NA,NA,NA,NA,NA,1.55783202328672,NA,NA,NA,NA,NA,5.58695652173913,NA,NA,NA,NA,NA,0.826086956521739
"187","Subject_11127.txt",1.49356504806201,0.968,0.878048780487805,1,41,0,0.659980385389264,NA,NA,NA,NA,NA,0.784765090385605,NA,NA,NA,NA,NA,0.549693229802973,NA,NA,NA,NA,NA,0.840991009252175,NA,NA,NA,NA,NA,3.72916666666667,NA,NA,NA,NA,NA,0.645833333333333,NA,NA,NA,NA,NA
"188","Subject_11129.txt",1.38295855728938,1.1845,0.645833333333333,1,48,0,NA,1.27821520510266,NA,NA,NA,NA,NA,1.11568945405924,NA,NA,NA,NA,NA,0.183749316831896,NA,NA,NA,NA,NA,1.14567292937304,NA,NA,NA,NA,NA,4.3695652173913,NA,NA,NA,NA,NA,0.717391304347826,NA,NA,NA,NA
"189","Subject_11130.txt",1.3466914966848,1.155,0.717391304347826,1,46,0,NA,NA,2.99375954053331,NA,NA,NA,NA,NA,2.17750365329101,NA,NA,NA,NA,NA,0.0615975537305041,NA,NA,NA,NA,NA,1.37485856154989,NA,NA,NA,NA,NA,6,NA,NA,NA,NA,NA,0.878048780487805,NA,NA,NA
"190","Subject_11132.txt",1.65589223644929,1.127,0.760869565217391,1,46,0,NA,NA,NA,1.19128621593721,NA,NA,NA,NA,NA,1.10740165384432,NA,NA,NA,NA,NA,0.444500345230728,NA,NA,NA,NA,NA,1.07574899477681,NA,NA,NA,NA,NA,4.34883720930233,NA,NA,NA,NA,NA,0.697674418604651,NA,NA
"191","Subject_11133.txt",1.29452552695875,1.177,0.78,1,50,0,NA,NA,NA,NA,1.6535188063186,NA,NA,NA,NA,NA,1.53769311588386,NA,NA,NA,NA,NA,0.720623484386009,NA,NA,NA,NA,NA,1.07532432137355,NA,NA,NA,NA,NA,4.67391304347826,NA,NA,NA,NA,NA,0.717391304347826,NA
"192","Subject_11134.txt",1.57578223371092,1.309,0.74,1,50,0,NA,NA,NA,NA,NA,1.83850833967138,NA,NA,NA,NA,NA,1.3465866643714,NA,NA,NA,NA,NA,0.0358091712233234,NA,NA,NA,NA,NA,1.36531007495876,NA,NA,NA,NA,NA,4.90476190476191,NA,NA,NA,NA,NA,0.761904761904762
"193","Subject_11135.txt",1.74672244769317,1.066,0.895833333333333,1,48,0,0.863901842082572,NA,NA,NA,NA,NA,1.23237451303568,NA,NA,NA,NA,NA,0.0583024936782415,NA,NA,NA,NA,NA,0.701005930376263,NA,NA,NA,NA,NA,4.42,NA,NA,NA,NA,NA,0.74,NA,NA,NA,NA,NA
"194","Subject_11136.txt",1.46870978948573,1.1345,0.72,1,50,0,NA,1.7612571556702,NA,NA,NA,NA,NA,1.66272050680171,NA,NA,NA,NA,NA,0.273475490561256,NA,NA,NA,NA,NA,1.05926230443746,NA,NA,NA,NA,NA,4.26,NA,NA,NA,NA,NA,0.8,NA,NA,NA,NA
"195","Subject_11137.txt",1.32081259749975,1.1845,0.88,1,50,0,NA,NA,2.35729070712281,NA,NA,NA,NA,NA,1.47558427947803,NA,NA,NA,NA,NA,-0.0633023895429342,NA,NA,NA,NA,NA,1.59753037485373,NA,NA,NA,NA,NA,5.2,NA,NA,NA,NA,NA,0.78,NA,NA,NA
"196","Subject_11139.txt",1.60969065398967,1.1755,0.9,1,50,0,NA,NA,NA,1.85893909608185,NA,NA,NA,NA,NA,1.62874060288039,NA,NA,NA,NA,NA,0.0727762575786797,NA,NA,NA,NA,NA,1.1413352702047,NA,NA,NA,NA,NA,4.5,NA,NA,NA,NA,NA,0.804347826086957,NA,NA
"197","Subject_11140.txt",1.11675727715192,1.0185,0.804347826086957,1,46,0,NA,NA,NA,NA,1.90292691175974,NA,NA,NA,NA,NA,2.10487720138544,NA,NA,NA,NA,NA,0.251344071410768,NA,NA,NA,NA,NA,0.904056023081643,NA,NA,NA,NA,NA,5,NA,NA,NA,NA,NA,0.86,NA
"198","Subject_11141.txt",1.10954260392464,1.0425,0.86,1,50,0,NA,NA,NA,NA,NA,1.7387546376219,NA,NA,NA,NA,NA,2.4086184160656,NA,NA,NA,NA,NA,0.0994734640706881,NA,NA,NA,NA,NA,0.72188879152643,NA,NA,NA,NA,NA,5.08,NA,NA,NA,NA,NA,0.9
"199","Subject_11142.txt",1.45828453135618,1.0435,0.82,1,50,0,0.94727211174734,NA,NA,NA,NA,NA,0.80128894065023,NA,NA,NA,NA,NA,0.157240292514484,NA,NA,NA,NA,NA,1.18218543111134,NA,NA,NA,NA,NA,3.66,NA,NA,NA,NA,NA,0.66,NA,NA,NA,NA,NA
"200","Subject_43336.txt",1.43465988105891,1.109,0.66,1,50,0,NA,1.30848054778556,NA,NA,NA,NA,NA,1.74317030427773,NA,NA,NA,NA,NA,-0.0704906228569128,NA,NA,NA,NA,NA,0.750632651654606,NA,NA,NA,NA,NA,4.54,NA,NA,NA,NA,NA,0.82,NA,NA,NA,NA
"201","Subject_47203.txt",1.17416557032266,1.141,0.82,1,50,0,NA,NA,2.56025522244029,NA,NA,NA,NA,NA,1.86166743494309,NA,NA,NA,NA,NA,-0.372948954631944,NA,NA,NA,NA,NA,1.37524843287521,NA,NA,NA,NA,NA,5.14,NA,NA,NA,NA,NA,0.82,NA,NA,NA
"202","Subject_47284.txt",1.55222044604307,1.1575,0.78,1,50,0,NA,NA,NA,0.842182310408466,NA,NA,NA,NA,NA,1.14519699216497,NA,NA,NA,NA,NA,0.228496033199467,NA,NA,NA,NA,NA,0.735403879132045,NA,NA,NA,NA,NA,3.56,NA,NA,NA,NA,NA,0.72,NA,NA
"203","Subject_47617.txt",1.22111861038866,1.1855,0.74,1,50,0,NA,NA,NA,NA,1.90245237010177,NA,NA,NA,NA,NA,2.24585844709926,NA,NA,NA,NA,NA,-0.180853448553855,NA,NA,NA,NA,NA,0.847093623624842,NA,NA,NA,NA,NA,5.32,NA,NA,NA,NA,NA,0.88,NA
"204","Subject_11114.txt",1.12962159176823,1.168,0.8,1,50,0,NA,NA,NA,NA,NA,3.43221787788433,NA,NA,NA,NA,NA,2.36187090635956,NA,NA,NA,NA,NA,0.100616112364823,NA,NA,NA,NA,NA,1.45317759266299,NA,NA,NA,NA,NA,5.66666666666667,NA,NA,NA,NA,NA,0.895833333333333
"205","Subject_11115.txt",1.16745615849504,1.244,0.88,1,50,0,0.989477108567712,NA,NA,NA,NA,NA,0.633897352325444,NA,NA,NA,NA,NA,0.171827734951948,NA,NA,NA,NA,NA,1.56094216979741,NA,NA,NA,NA,NA,4.375,NA,NA,NA,NA,NA,0.625,NA,NA,NA,NA,NA
"206","Subject_11116.txt",1.03617194304388,1.1755,0.729166666666667,1,48,0,NA,1.95932058383207,NA,NA,NA,NA,NA,2.37553949449899,NA,NA,NA,NA,NA,0.386675217967546,NA,NA,NA,NA,NA,0.824789732340482,NA,NA,NA,NA,NA,5.42,NA,NA,NA,NA,NA,0.88,NA,NA,NA,NA
"207","Subject_11117.txt",0.960293148171331,1.1185,0.8,1,50,0,NA,NA,3.31077243124089,NA,NA,NA,NA,NA,2.02287044852298,NA,NA,NA,NA,NA,0.563009740955554,NA,NA,NA,NA,NA,1.63667052116871,NA,NA,NA,NA,NA,5.82,NA,NA,NA,NA,NA,0.82,NA,NA,NA
"208","Subject_11118.txt",1.18318151414132,1.31,0.9,1,50,0,NA,NA,NA,1.94442130566572,NA,NA,NA,NA,NA,1.6875583020315,NA,NA,NA,NA,NA,-0.0715859368270645,NA,NA,NA,NA,NA,1.15220985451288,NA,NA,NA,NA,NA,5.35416666666667,NA,NA,NA,NA,NA,0.8125,NA,NA
"209","Subject_11119.txt",0.992427968085394,1.3105,0.8125,1,48,0,NA,NA,NA,NA,2.92195469463675,NA,NA,NA,NA,NA,2.04691151895789,NA,NA,NA,NA,NA,0.0813799844831674,NA,NA,NA,NA,NA,1.42749438242663,NA,NA,NA,NA,NA,5.54,NA,NA,NA,NA,NA,0.86,NA
"210","Subject_11120.txt",0.906322350703704,1.1495,0.86,1,50,0,NA,NA,NA,NA,NA,3.50864942392703,NA,NA,NA,NA,NA,2.870996360177,NA,NA,NA,NA,NA,0.634403650806551,NA,NA,NA,NA,NA,1.22210166219462,NA,NA,NA,NA,NA,5.9,NA,NA,NA,NA,NA,0.9
"211","Subject_11121.txt",1.1476308026904,1.276,0.84,1,50,0,2.16781251274683,NA,NA,NA,NA,NA,1.61656552519186,NA,NA,NA,NA,NA,-0.133793012399847,NA,NA,NA,NA,NA,1.34099885155571,NA,NA,NA,NA,NA,5.3,NA,NA,NA,NA,NA,0.8,NA,NA,NA,NA,NA
"212","Subject_11122.txt",1.12332866567886,1.31,0.8,1,50,0,NA,1.53802855857565,NA,NA,NA,NA,NA,2.10487720138544,NA,NA,NA,NA,NA,0.251344071410768,NA,NA,NA,NA,NA,0.730697523619582,NA,NA,NA,NA,NA,5.76,NA,NA,NA,NA,NA,0.86,NA,NA,NA,NA
"213","Subject_11123.txt",0.985551272853627,1.2105,0.86,1,50,0,NA,NA,2.60488222376847,NA,NA,NA,NA,NA,1.90593027324406,NA,NA,NA,NA,NA,0.15187060734008,NA,NA,NA,NA,NA,1.36672482741707,NA,NA,NA,NA,NA,5.4,NA,NA,NA,NA,NA,0.84,NA,NA,NA
"214","Subject_11125.txt",1.20447164838697,1.2025,0.82,1,50,0,NA,NA,NA,2.18065604769235,NA,NA,NA,NA,NA,1.16326616131075,NA,NA,NA,NA,NA,0.0928566695407061,NA,NA,NA,NA,NA,1.8745976804098,NA,NA,NA,NA,NA,5.33333333333333,NA,NA,NA,NA,NA,0.729166666666667,NA,NA
"215","Subject_11126.txt",0.934566493269813,1.252,0.625,1,48,0,NA,NA,NA,NA,2.74213447862025,NA,NA,NA,NA,NA,1.75220815540942,NA,NA,NA,NA,NA,0.427678594398776,NA,NA,NA,NA,NA,1.56495931727901,NA,NA,NA,NA,NA,5.92,NA,NA,NA,NA,NA,0.8,NA
"216","Subject_11127.txt",0.997673549456522,1.2685,0.88,1,50,0,NA,NA,NA,NA,NA,2.18972137969788,NA,NA,NA,NA,NA,2.37553949449899,NA,NA,NA,NA,NA,0.386675217967546,NA,NA,NA,NA,NA,0.921778562203907,NA,NA,NA,NA,NA,5.46,NA,NA,NA,NA,NA,0.88
"217","Subject_11129.txt",1.31413462578348,1.5,0.833333333333333,1,48,1,0.711435239843304,NA,NA,NA,NA,NA,1.18465634363009,NA,NA,NA,NA,NA,0.17986504237364,NA,NA,NA,NA,NA,0.600541451256053,NA,NA,NA,NA,NA,3.72916666666667,NA,NA,NA,NA,NA,0.729166666666667,NA,NA,NA,NA,NA
"218","Subject_11130.txt",1.77600363660167,1.4755,0.704545454545455,1,44,1,NA,2.00186206378518,NA,NA,NA,NA,NA,1.6459576914101,NA,NA,NA,NA,NA,0.410515716263643,NA,NA,NA,NA,NA,1.21622935646066,NA,NA,NA,NA,NA,4.60869565217391,NA,NA,NA,NA,NA,0.782608695652174,NA,NA,NA,NA
"219","Subject_11132.txt",1.52599858398025,1.349,0.897959183673469,1,49,1,NA,NA,1.04912033272852,NA,NA,NA,NA,NA,1.6021890585639,NA,NA,NA,NA,NA,0,NA,NA,NA,NA,NA,0.654804329814162,NA,NA,NA,NA,NA,4.36,NA,NA,NA,NA,NA,0.8,NA,NA,NA
"220","Subject_11133.txt",1.38948263964267,1.326,0.833333333333333,1,48,1,NA,NA,NA,1.01544180508907,NA,NA,NA,NA,NA,0.681711197318211,NA,NA,NA,NA,NA,0.183544914048935,NA,NA,NA,NA,NA,1.48954837339291,NA,NA,NA,NA,NA,4.1063829787234,NA,NA,NA,NA,NA,0.638297872340426,NA,NA
"221","Subject_11134.txt",1.51462936640019,1.292,0.638297872340426,1,47,1,NA,NA,NA,NA,2.42078586026869,NA,NA,NA,NA,NA,2.59471889454099,NA,NA,NA,NA,NA,0.739474684430895,NA,NA,NA,NA,NA,0.932966521098592,NA,NA,NA,NA,NA,5.5625,NA,NA,NA,NA,NA,0.854166666666667,NA
"222","Subject_11135.txt",1.47420672920271,1.3765,0.854166666666667,1,48,1,NA,NA,NA,NA,NA,2.10862923115865,NA,NA,NA,NA,NA,2.07917410730489,NA,NA,NA,NA,NA,0.515186540944406,NA,NA,NA,NA,NA,1.01416674233787,NA,NA,NA,NA,NA,5.10416666666667,NA,NA,NA,NA,NA,0.833333333333333
"223","Subject_11136.txt",1.51273984349973,1.226,0.777777777777778,1,45,1,1.05973194811158,NA,NA,NA,NA,NA,1.01317692382271,NA,NA,NA,NA,NA,0.0178120507966856,NA,NA,NA,NA,NA,1.04594955056144,NA,NA,NA,NA,NA,3.68085106382979,NA,NA,NA,NA,NA,0.702127659574468,NA,NA,NA,NA,NA
"224","Subject_11137.txt",1.5482830845358,1.456,0.702127659574468,1,47,1,NA,0.752410253359591,NA,NA,NA,NA,NA,1.42856786196778,NA,NA,NA,NA,NA,0.340188520786165,NA,NA,NA,NA,NA,0.526688492294084,NA,NA,NA,NA,NA,3.19565217391304,NA,NA,NA,NA,NA,0.760869565217391,NA,NA,NA,NA
"225","Subject_11139.txt",1.9341162823257,1.173,0.760869565217391,1,46,1,NA,NA,1.14821217105558,NA,NA,NA,NA,NA,1.75384346017113,NA,NA,NA,NA,NA,0.657198814266983,NA,NA,NA,NA,NA,0.654683383740271,NA,NA,NA,NA,NA,4.02222222222222,NA,NA,NA,NA,NA,0.777777777777778,NA,NA,NA
"226","Subject_11140.txt",1.76045789972704,1.417,0.8,1,50,1,NA,NA,NA,1.08513725798577,NA,NA,NA,NA,NA,1.04994729040378,NA,NA,NA,NA,NA,-0.112510515760486,NA,NA,NA,NA,NA,1.03351593732716,NA,NA,NA,NA,NA,3.72727272727273,NA,NA,NA,NA,NA,0.704545454545455,NA,NA
"227","Subject_11141.txt",1.49755885830382,1.407,0.729166666666667,1,48,1,NA,NA,NA,NA,2.06716013177009,NA,NA,NA,NA,NA,2.49684936959263,NA,NA,NA,NA,NA,0.306348909800539,NA,NA,NA,NA,NA,0.827907424830899,NA,NA,NA,NA,NA,5.16326530612245,NA,NA,NA,NA,NA,0.897959183673469,NA
"228","Subject_11142.txt",1.67993278559879,1.375,0.782608695652174,1,46,1,NA,NA,NA,NA,NA,1.40190498639279,NA,NA,NA,NA,NA,1.83073017568563,NA,NA,NA,NA,NA,1.11022302462516e-16,NA,NA,NA,NA,NA,0.765762756856159,NA,NA,NA,NA,NA,4.875,NA,NA,NA,NA,NA,0.833333333333333
"229","Subject_43336.txt",1.92808630836225,1.2635,0.78,1,50,0,0.786888157024902,NA,NA,NA,NA,NA,1.04449870709258,NA,NA,NA,NA,NA,-0.278845175735659,NA,NA,NA,NA,NA,0.753364414605402,NA,NA,NA,NA,NA,3.2,NA,NA,NA,NA,NA,0.7,NA,NA,NA,NA,NA
"230","Subject_47203.txt",1.69053203280782,1.317,0.541666666666667,1,48,0,NA,1.09123892832392,NA,NA,NA,NA,NA,1.62944753440986,NA,NA,NA,NA,NA,-0.0425305530162468,NA,NA,NA,NA,NA,0.669698720136539,NA,NA,NA,NA,NA,4.32608695652174,NA,NA,NA,NA,NA,0.804347826086957,NA,NA,NA,NA
"231","Subject_47284.txt",1.49772519845283,1.1735,0.565217391304348,1,46,0,NA,NA,1.67433217016258,NA,NA,NA,NA,NA,1.34823992177274,NA,NA,NA,NA,NA,0.43071578307574,NA,NA,NA,NA,NA,1.24186514812666,NA,NA,NA,NA,NA,4.22,NA,NA,NA,NA,NA,0.74,NA,NA,NA
"232","Subject_47617.txt",1.7004271468395,1.218,0.875,1,48,0,NA,NA,NA,1.05809566060465,NA,NA,NA,NA,NA,0.79252794618895,NA,NA,NA,NA,NA,0.0521615102114595,NA,NA,NA,NA,NA,1.33508940056025,NA,NA,NA,NA,NA,3.4,NA,NA,NA,NA,NA,0.66,NA,NA
"233","Subject_11114.txt",1.66804178115854,1.2665,0.66,1,50,0,NA,NA,NA,NA,1.32084120379629,NA,NA,NA,NA,NA,1.56163630921496,NA,NA,NA,NA,NA,-0.106328404411397,NA,NA,NA,NA,NA,0.845805899877088,NA,NA,NA,NA,NA,4.47916666666667,NA,NA,NA,NA,NA,0.791666666666667,NA
"234","Subject_11115.txt",1.39490038319491,1.218,0.791666666666667,1,48,0,NA,NA,NA,NA,NA,1.63993361508927,NA,NA,NA,NA,NA,2.32696680878554,NA,NA,NA,NA,NA,0.391290190204084,NA,NA,NA,NA,NA,0.704751614375266,NA,NA,NA,NA,NA,4.45833333333333,NA,NA,NA,NA,NA,0.875
"235","Subject_11116.txt",1.83342893210647,1.1925,0.8125,1,48,0,0.265165251634914,NA,NA,NA,NA,NA,0.587506640693647,NA,NA,NA,NA,NA,-0.0503491425361922,NA,NA,NA,NA,NA,0.451340007530542,NA,NA,NA,NA,NA,3.02,NA,NA,NA,NA,NA,0.62,NA,NA,NA,NA,NA
"236","Subject_11117.txt",1.56007019130629,1.254,0.62,1,50,0,NA,2.38388430833676,NA,NA,NA,NA,NA,1.31939711359536,NA,NA,NA,NA,NA,0.0494039466113457,NA,NA,NA,NA,NA,1.80679818363455,NA,NA,NA,NA,NA,4.84444444444444,NA,NA,NA,NA,NA,0.755555555555556,NA,NA,NA,NA
"237","Subject_11118.txt",1.5130440989451,1.2325,0.755555555555556,1,45,0,NA,NA,1.49746163763746,NA,NA,NA,NA,NA,1.68824108830083,NA,NA,NA,NA,NA,0.0430260148684629,NA,NA,NA,NA,NA,0.886995138321516,NA,NA,NA,NA,NA,4.1875,NA,NA,NA,NA,NA,0.8125,NA,NA,NA
"238","Subject_11119.txt",1.93533641623799,1.181,0.74,1,50,0,NA,NA,NA,0.426485494210765,NA,NA,NA,NA,NA,0.191158997434691,NA,NA,NA,NA,NA,-0.147824679093286,NA,NA,NA,NA,NA,2.2310511141725,NA,NA,NA,NA,NA,3.14583333333333,NA,NA,NA,NA,NA,0.541666666666667,NA,NA
"239","Subject_11120.txt",1.62241662776796,1.241,0.7,1,50,0,NA,NA,NA,NA,1.52451882460045,NA,NA,NA,NA,NA,0.300403852169005,NA,NA,NA,NA,NA,-0.0932022517261284,NA,NA,NA,NA,NA,5.07489772049516,NA,NA,NA,NA,NA,4.45652173913043,NA,NA,NA,NA,NA,0.565217391304348,NA
"240","Subject_11121.txt",1.52355082052964,1.243,0.804347826086957,1,46,0,NA,NA,NA,NA,NA,2.0409816683611,NA,NA,NA,NA,NA,1.47558427947803,NA,NA,NA,NA,NA,0.0633023895429342,NA,NA,NA,NA,NA,1.38316848230659,NA,NA,NA,NA,NA,4.9,NA,NA,NA,NA,NA,0.78
"241","Subject_11122.txt",1.78832723970118,1.083,0.88,1,50,0,0.559981298858863,NA,NA,NA,NA,NA,0.392325536438938,NA,NA,NA,NA,NA,0.147939694663547,NA,NA,NA,NA,NA,1.42733838827241,NA,NA,NA,NA,NA,2.24,NA,NA,NA,NA,NA,0.58,NA,NA,NA,NA,NA
"242","Subject_11123.txt",1.53567204298452,1.1925,0.58,1,50,0,NA,-0.0190135880475818,NA,NA,NA,NA,NA,1.70658704436903,NA,NA,NA,NA,NA,0.404868038878581,NA,NA,NA,NA,NA,-0.011141294029108,NA,NA,NA,NA,NA,2.9375,NA,NA,NA,NA,NA,0.791666666666667,NA,NA,NA,NA
"243","Subject_11125.txt",1.65855166304391,0.9935,0.92,1,50,0,NA,NA,1.05972411903415,NA,NA,NA,NA,NA,1.35897929212155,NA,NA,NA,NA,NA,-0.121604883221176,NA,NA,NA,NA,NA,0.779794162558417,NA,NA,NA,NA,NA,3.12,NA,NA,NA,NA,NA,0.76,NA,NA,NA
"244","Subject_11126.txt",1.4868703822649,0.9755,0.72,1,50,0,NA,NA,NA,0.944549428775339,NA,NA,NA,NA,NA,0.946215470492724,NA,NA,NA,NA,NA,-0.327986794035588,NA,NA,NA,NA,NA,0.99823925757997,NA,NA,NA,NA,NA,2.68,NA,NA,NA,NA,NA,0.68,NA,NA
"245","Subject_11127.txt",1.36369835129881,1.044,0.68,1,50,0,NA,NA,NA,NA,1.44109341961847,NA,NA,NA,NA,NA,2.42775467391049,NA,NA,NA,NA,NA,-0.298512249112433,NA,NA,NA,NA,NA,0.593591039121442,NA,NA,NA,NA,NA,4.04347826086957,NA,NA,NA,NA,NA,0.891304347826087,NA
"246","Subject_11129.txt",1.55719672435953,1.2185,0.891304347826087,1,46,0,NA,NA,NA,NA,NA,1.74925466569407,NA,NA,NA,NA,NA,1.18547995280641,NA,NA,NA,NA,NA,0.349335798592572,NA,NA,NA,NA,NA,1.4755666357352,NA,NA,NA,NA,NA,3.3,NA,NA,NA,NA,NA,0.72
"247","Subject_11130.txt",1.6433028282845,0.984,0.72,1,50,0,0.259956142530506,NA,NA,NA,NA,NA,0.617499588008355,NA,NA,NA,NA,NA,-0.0653456161935462,NA,NA,NA,NA,NA,0.420981888212999,NA,NA,NA,NA,NA,1.64583333333333,NA,NA,NA,NA,NA,0.625,NA,NA,NA,NA,NA
"248","Subject_11132.txt",1.79322828997101,1.1265,0.625,1,48,0,NA,0.803271287623116,NA,NA,NA,NA,NA,2.04691151895789,NA,NA,NA,NA,NA,0.0813799844831674,NA,NA,NA,NA,NA,0.392430879490127,NA,NA,NA,NA,NA,3.54,NA,NA,NA,NA,NA,0.86,NA,NA,NA,NA
"249","Subject_11133.txt",1.7353678265863,1.1165,0.86,1,50,0,NA,NA,0.870091028503937,NA,NA,NA,NA,NA,1.14519699216497,NA,NA,NA,NA,NA,-0.228496033199467,NA,NA,NA,NA,NA,0.759774112625857,NA,NA,NA,NA,NA,2.76,NA,NA,NA,NA,NA,0.72,NA,NA,NA
"250","Subject_11134.txt",1.74771180059906,1.0895,0.76,1,50,0,NA,NA,NA,0.540070613648356,NA,NA,NA,NA,NA,0.412763821628825,NA,NA,NA,NA,NA,0.351502852025186,NA,NA,NA,NA,NA,1.30842526730458,NA,NA,NA,NA,NA,1.72,NA,NA,NA,NA,NA,0.58,NA,NA
"251","Subject_11135.txt",1.71746676252224,1.159,0.58,1,50,0,NA,NA,NA,NA,1.2073787019346,NA,NA,NA,NA,NA,3.01197760589083,NA,NA,NA,NA,NA,0.563913027949638,NA,NA,NA,NA,NA,0.400859123113401,NA,NA,NA,NA,NA,3.82,NA,NA,NA,NA,NA,0.92,NA
"252","Subject_11136.txt",1.39950497066457,1.2825,0.791666666666667,1,48,0,NA,NA,NA,NA,NA,0.545549145140116,NA,NA,NA,NA,NA,2.20967148792422,NA,NA,NA,NA,NA,0,NA,NA,NA,NA,NA,0.24689151673519,NA,NA,NA,NA,NA,4.14,NA,NA,NA,NA,NA,0.88
"253","Subject_11137.txt",1.21531722971849,1.134,0.82,1,50,0,0.945839312937178,NA,NA,NA,NA,NA,1.23034250233403,NA,NA,NA,NA,NA,0.959273714050029,NA,NA,NA,NA,NA,0.768760984151055,NA,NA,NA,NA,NA,2.58,NA,NA,NA,NA,NA,0.66,NA,NA,NA,NA,NA
"254","Subject_11139.txt",1.18053076024808,1.101,0.66,1,50,0,NA,1.90417797462111,NA,NA,NA,NA,NA,1.24995668517288,NA,NA,NA,NA,NA,0.479857401375668,NA,NA,NA,NA,NA,1.52339516817556,NA,NA,NA,NA,NA,3.64,NA,NA,NA,NA,NA,0.72,NA,NA,NA,NA
"255","Subject_11140.txt",1.21059935730591,1.1515,0.88,1,50,0,NA,NA,1.62285966716963,NA,NA,NA,NA,NA,0.893852701439854,NA,NA,NA,NA,NA,0.495149424275849,NA,NA,NA,NA,NA,1.81557841080019,NA,NA,NA,NA,NA,3.56,NA,NA,NA,NA,NA,0.66,NA,NA,NA
"256","Subject_11141.txt",1.25551578681916,1.101,0.833333333333333,1,48,0,NA,NA,NA,0.606791569394728,NA,NA,NA,NA,NA,1.54718684991412,NA,NA,NA,NA,NA,0.530189247146428,NA,NA,NA,NA,NA,0.392190231857522,NA,NA,NA,NA,NA,2.58,NA,NA,NA,NA,NA,0.76,NA,NA
"257","Subject_11142.txt",1.06891994678153,1.053,0.76,1,50,0,NA,NA,NA,NA,2.01024938678246,NA,NA,NA,NA,NA,1.66272050680171,NA,NA,NA,NA,NA,0.273475490561256,NA,NA,NA,NA,NA,1.20901220533404,NA,NA,NA,NA,NA,5.04,NA,NA,NA,NA,NA,0.8,NA
"258","Subject_43336.txt",1.12006281942013,1.21,0.8,1,50,0,NA,NA,NA,NA,NA,3.00528857052744,NA,NA,NA,NA,NA,1.85251255500364,NA,NA,NA,NA,NA,0.154063063313136,NA,NA,NA,NA,NA,1.62227703256863,NA,NA,NA,NA,NA,5.45833333333333,NA,NA,NA,NA,NA,0.833333333333333
"259","Subject_47203.txt",1.17499420150853,1.018,0.84,1,50,0,-0.0614999056919973,NA,NA,NA,NA,NA,1.15305881751803,NA,NA,NA,NA,NA,0.528306335203094,NA,NA,NA,NA,NA,-0.0533363127341381,NA,NA,NA,NA,NA,1.7,NA,NA,NA,NA,NA,0.7,NA,NA,NA,NA,NA
"260","Subject_47284.txt",1.23565494425566,1.133,0.7,1,50,0,NA,0.550952405640903,NA,NA,NA,NA,NA,1.08719671620655,NA,NA,NA,NA,NA,0.398477416892501,NA,NA,NA,NA,NA,0.50676422898267,NA,NA,NA,NA,NA,2.96,NA,NA,NA,NA,NA,0.7,NA,NA,NA,NA
"261","Subject_47617.txt",1.17673583474971,1.1265,0.7,1,50,0,NA,NA,1.59896925694465,NA,NA,NA,NA,NA,2.13232972805664,NA,NA,NA,NA,NA,0.508280101188722,NA,NA,NA,NA,NA,0.749869607831205,NA,NA,NA,NA,NA,4.76,NA,NA,NA,NA,NA,0.84,NA,NA,NA
"262","Subject_11114.txt",1.14996572232485,1.093,0.66,1,50,0,NA,NA,NA,1.54162382034593,NA,NA,NA,NA,NA,0.959714802751336,NA,NA,NA,NA,NA,0.624978342586442,NA,NA,NA,NA,NA,1.60633535705228,NA,NA,NA,NA,NA,3.08,NA,NA,NA,NA,NA,0.66,NA,NA
"263","Subject_11115.txt",1.14992064966646,1.1845,0.66,1,50,0,NA,NA,NA,NA,1.15744465975688,NA,NA,NA,NA,NA,2.24585844709926,NA,NA,NA,NA,NA,0.180853448553856,NA,NA,NA,NA,NA,0.515368482484649,NA,NA,NA,NA,NA,4.18,NA,NA,NA,NA,NA,0.88,NA
"264","Subject_11116.txt",1.07953624243237,1.227,0.72,1,50,0,NA,NA,NA,NA,NA,2.02914225314303,NA,NA,NA,NA,NA,1.77932549415819,NA,NA,NA,NA,NA,0.215172996883014,NA,NA,NA,NA,NA,1.14039969629223,NA,NA,NA,NA,NA,4.82,NA,NA,NA,NA,NA,0.82
"265","Subject_11117.txt",1.47361955219822,1.1315,0.770833333333333,1,48,1,0.628797716889717,NA,NA,NA,NA,NA,1.55654833995027,NA,NA,NA,NA,NA,1.27547474065669,NA,NA,NA,NA,NA,0.403969283029017,NA,NA,NA,NA,NA,2.13636363636364,NA,NA,NA,NA,NA,0.681818181818182,NA,NA,NA,NA,NA
"266","Subject_11118.txt",1.37797507054347,1.2425,0.590909090909091,1,44,1,NA,0.494642084569722,NA,NA,NA,NA,NA,1.33104078740641,NA,NA,NA,NA,NA,0.908924571513837,NA,NA,NA,NA,NA,0.3716205312788,NA,NA,NA,NA,NA,2.44,NA,NA,NA,NA,NA,0.68,NA,NA,NA,NA
"267","Subject_11119.txt",1.17994334650575,1.159,0.733333333333333,1,45,1,NA,NA,1.54865116114564,NA,NA,NA,NA,NA,1.39541208069897,NA,NA,NA,NA,NA,1.37219579054557,NA,NA,NA,NA,NA,1.10981636361491,NA,NA,NA,NA,NA,2.7,NA,NA,NA,NA,NA,0.62,NA,NA,NA
"268","Subject_11120.txt",1.91499729725183,1.093,0.72,1,50,1,NA,NA,NA,0.325657969619648,NA,NA,NA,NA,NA,1.39047441333927,NA,NA,NA,NA,NA,0.562924354393463,NA,NA,NA,NA,NA,0.234206373375523,NA,NA,NA,NA,NA,2.73170731707317,NA,NA,NA,NA,NA,0.75609756097561,NA,NA
"269","Subject_11121.txt",1.57157251951867,1.1265,0.75609756097561,1,41,1,NA,NA,NA,NA,0.841738798694842,NA,NA,NA,NA,NA,1.10085087645293,NA,NA,NA,NA,NA,0.707736122836634,NA,NA,NA,NA,NA,0.764625633407338,NA,NA,NA,NA,NA,2.56521739130435,NA,NA,NA,NA,NA,0.673913043478261,NA
"270","Subject_11122.txt",1.36463423045643,0.9095,0.673913043478261,1,46,1,NA,NA,NA,NA,NA,1.25475978193802,NA,NA,NA,NA,NA,1.35200574565941,NA,NA,NA,NA,NA,0.627779799273782,NA,NA,NA,NA,NA,0.928072817712801,NA,NA,NA,NA,NA,2.88,NA,NA,NA,NA,NA,0.72
"271","Subject_11123.txt",1.70504893019825,1.1725,0.64,1,50,1,0.343378631629765,NA,NA,NA,NA,NA,0.888201268872449,NA,NA,NA,NA,NA,0.381393856493011,NA,NA,NA,NA,NA,0.386600023737498,NA,NA,NA,NA,NA,2.65,NA,NA,NA,NA,NA,0.675,NA,NA,NA,NA,NA
"272","Subject_11125.txt",1.53511522377812,0.9925,0.675,1,40,1,NA,0.857616414034858,NA,NA,NA,NA,NA,2.02167875733913,NA,NA,NA,NA,NA,1.05906245222549,NA,NA,NA,NA,NA,0.424210033825367,NA,NA,NA,NA,NA,2.74,NA,NA,NA,NA,NA,0.74,NA,NA,NA,NA
"273","Subject_11126.txt",1.3862095569857,1.0255,0.74,1,50,1,NA,NA,1.00575062358906,NA,NA,NA,NA,NA,0.959680209220471,NA,NA,NA,NA,NA,0.823942567493251,NA,NA,NA,NA,NA,1.04800600650712,NA,NA,NA,NA,NA,3.02,NA,NA,NA,NA,NA,0.64,NA,NA,NA
"274","Subject_11127.txt",1.4537828079483,1.1825,0.62,1,50,1,NA,NA,NA,1.61431885376881,NA,NA,NA,NA,NA,0.465908799587007,NA,NA,NA,NA,NA,0.342154881484935,NA,NA,NA,NA,NA,3.46488165752564,NA,NA,NA,NA,NA,2.65909090909091,NA,NA,NA,NA,NA,0.590909090909091,NA,NA
"275","Subject_11129.txt",1.64351155445911,1.187,0.681818181818182,1,44,1,NA,NA,NA,NA,1.43381582053677,NA,NA,NA,NA,NA,1.53412054435255,NA,NA,NA,NA,NA,0.767060272176273,NA,NA,NA,NA,NA,0.934617443078367,NA,NA,NA,NA,NA,3.22222222222222,NA,NA,NA,NA,NA,0.733333333333333,NA
"276","Subject_11130.txt",1.35661788884318,1.2,0.68,1,50,1,NA,NA,NA,NA,NA,1.06806992771945,NA,NA,NA,NA,NA,2.15418263114329,NA,NA,NA,NA,NA,0.976657595060176,NA,NA,NA,NA,NA,0.495812152729404,NA,NA,NA,NA,NA,3.54166666666667,NA,NA,NA,NA,NA,0.770833333333333
"277","Subject_11132.txt",1.48656209168257,1.176,0.875,1,48,0,1.51077572529345,NA,NA,NA,NA,NA,1.35897929212155,NA,NA,NA,NA,NA,-0.121604883221176,NA,NA,NA,NA,NA,1.11169885667274,NA,NA,NA,NA,NA,4.86,NA,NA,NA,NA,NA,0.76,NA,NA,NA,NA,NA
"278","Subject_11133.txt",1.37058436305961,1.2265,0.72,1,50,0,NA,1.54094613329262,NA,NA,NA,NA,NA,1.47558427947803,NA,NA,NA,NA,NA,0.0633023895429342,NA,NA,NA,NA,NA,1.04429557479273,NA,NA,NA,NA,NA,5.36,NA,NA,NA,NA,NA,0.78,NA,NA,NA,NA
"279","Subject_11134.txt",1.46742914855713,1.1435,0.844444444444444,1,45,0,NA,NA,2.07751629972667,NA,NA,NA,NA,NA,1.24952001258788,NA,NA,NA,NA,NA,-0.176334522988008,NA,NA,NA,NA,NA,1.66265148120671,NA,NA,NA,NA,NA,5.12,NA,NA,NA,NA,NA,0.74,NA,NA,NA
"280","Subject_11135.txt",1.43025286565535,1.194,0.92,1,50,0,NA,NA,NA,0.328798976142112,NA,NA,NA,NA,NA,1.14519699216497,NA,NA,NA,NA,NA,0.228496033199467,NA,NA,NA,NA,NA,0.287111281632452,NA,NA,NA,NA,NA,3.9,NA,NA,NA,NA,NA,0.72,NA,NA
"281","Subject_11136.txt",1.35017430776497,1.293,0.72,1,50,0,NA,NA,NA,NA,2.23988778549885,NA,NA,NA,NA,NA,2.36187090635956,NA,NA,NA,NA,NA,0.100616112364822,NA,NA,NA,NA,NA,0.948353180297766,NA,NA,NA,NA,NA,5.35416666666667,NA,NA,NA,NA,NA,0.895833333333333,NA
"282","Subject_11137.txt",1.33835692988941,1.2075,0.895833333333333,1,48,0,NA,NA,NA,NA,NA,2.53834266273911,NA,NA,NA,NA,NA,2.67928070917915,NA,NA,NA,NA,NA,0.234804610627466,NA,NA,NA,NA,NA,0.947397058487677,NA,NA,NA,NA,NA,5.58,NA,NA,NA,NA,NA,0.92
"283","Subject_11139.txt",1.36624038516311,1.1485,0.78,1,50,0,1.70859832639073,NA,NA,NA,NA,NA,1.68824108830083,NA,NA,NA,NA,NA,0.0430260148684629,NA,NA,NA,NA,NA,1.0120582529539,NA,NA,NA,NA,NA,5.04166666666667,NA,NA,NA,NA,NA,0.8125,NA,NA,NA,NA,NA
"284","Subject_11140.txt",1.34322638122831,1.276,0.8125,1,48,0,NA,2.19185784238498,NA,NA,NA,NA,NA,3.17473757485716,NA,NA,NA,NA,NA,-0.48253304346647,NA,NA,NA,NA,NA,0.690405991267985,NA,NA,NA,NA,NA,6.16,NA,NA,NA,NA,NA,0.94,NA,NA,NA,NA
"285","Subject_11141.txt",1.56903639790835,0.9755,0.94,1,50,0,NA,NA,2.14590452858626,NA,NA,NA,NA,NA,1.47558427947803,NA,NA,NA,NA,NA,-0.0633023895429342,NA,NA,NA,NA,NA,1.45427445821349,NA,NA,NA,NA,NA,5.44,NA,NA,NA,NA,NA,0.78,NA,NA,NA
"286","Subject_11142.txt",1.47232442436507,1.218,0.74,1,50,0,NA,NA,NA,1.20127041593045,NA,NA,NA,NA,NA,1.18547995280641,NA,NA,NA,NA,NA,0.349335798592572,NA,NA,NA,NA,NA,1.01331989046855,NA,NA,NA,NA,NA,4.46,NA,NA,NA,NA,NA,0.72,NA,NA
"287","Subject_43336.txt",1.5406441509258,1.376,0.76,1,50,0,NA,NA,NA,NA,1.66373579713066,NA,NA,NA,NA,NA,1.95604131574068,NA,NA,NA,NA,NA,0.30353090767426,NA,NA,NA,NA,NA,0.850562707312072,NA,NA,NA,NA,NA,4.88888888888889,NA,NA,NA,NA,NA,0.844444444444444,NA
"288","Subject_47203.txt",1.41531552950619,1.1765,0.78,1,50,0,NA,NA,NA,NA,NA,1.75881167269678,NA,NA,NA,NA,NA,2.20023733605887,NA,NA,NA,NA,NA,0.15804289303366,NA,NA,NA,NA,NA,0.799373614778857,NA,NA,NA,NA,NA,5.72916666666667,NA,NA,NA,NA,NA,0.875
"289","Subject_47284.txt",1.33310925366823,1.2485,0.78,1,50,0,0.339820950130982,NA,NA,NA,NA,NA,1.14519699216497,NA,NA,NA,NA,NA,-0.228496033199467,NA,NA,NA,NA,NA,0.296735803932351,NA,NA,NA,NA,NA,3.84,NA,NA,NA,NA,NA,0.72,NA,NA,NA,NA,NA
"290","Subject_47617.txt",1.57405792706413,1.293,0.66,1,50,0,NA,0.661438536801826,NA,NA,NA,NA,NA,1.6478851349865,NA,NA,NA,NA,NA,0.479840104610236,NA,NA,NA,NA,NA,0.401386311921094,NA,NA,NA,NA,NA,3.62,NA,NA,NA,NA,NA,0.78,NA,NA,NA,NA
"291","Subject_11114.txt",1.38268876349321,1.1425,0.84,1,50,0,NA,NA,0.888151600934963,NA,NA,NA,NA,NA,1.90593027324406,NA,NA,NA,NA,NA,0.15187060734008,NA,NA,NA,NA,NA,0.465993752973581,NA,NA,NA,NA,NA,3.8,NA,NA,NA,NA,NA,0.84,NA,NA,NA
"292","Subject_11115.txt",1.4204063268262,1.1095,0.875,1,48,0,NA,NA,NA,1.33291421677037,NA,NA,NA,NA,NA,1.0185922130791,NA,NA,NA,NA,NA,-0.165193643656533,NA,NA,NA,NA,NA,1.30858473062651,NA,NA,NA,NA,NA,3.84,NA,NA,NA,NA,NA,0.7,NA,NA
"293","Subject_11116.txt",1.34730133984704,1.258,0.7,1,50,0,NA,NA,NA,NA,0.958775863235853,NA,NA,NA,NA,NA,1.12291523350202,NA,NA,NA,NA,NA,0.113032133445074,NA,NA,NA,NA,NA,0.853827461442246,NA,NA,NA,NA,NA,4,NA,NA,NA,NA,NA,0.72,NA
"294","Subject_11117.txt",1.30092118069297,1.1645,0.72,1,50,0,NA,NA,NA,NA,NA,1.17825581886936,NA,NA,NA,NA,NA,2.19092923112236,NA,NA,NA,NA,NA,0.208318056542305,NA,NA,NA,NA,NA,0.537788168660184,NA,NA,NA,NA,NA,4.29166666666667,NA,NA,NA,NA,NA,0.875
"295","Subject_11118.txt",1.43336172431009,1.1855,0.74,1,50,0,0.857982583378755,NA,NA,NA,NA,NA,0.917893928006713,NA,NA,NA,NA,NA,0.215542786192725,NA,NA,NA,NA,NA,0.93472955556198,NA,NA,NA,NA,NA,3.6,NA,NA,NA,NA,NA,0.68,NA,NA,NA,NA,NA
"296","Subject_11119.txt",1.29297413222957,1.1505,0.68,1,50,0,NA,0.933576120015912,NA,NA,NA,NA,NA,0.896850966611869,NA,NA,NA,NA,NA,2.77555756156289e-17,NA,NA,NA,NA,NA,1.0409490035371,NA,NA,NA,NA,NA,4.18,NA,NA,NA,NA,NA,0.68,NA,NA,NA,NA
"297","Subject_11120.txt",1.23732907307567,1.1765,0.68,1,50,0,NA,NA,2.60558055493397,NA,NA,NA,NA,NA,1.24952001258788,NA,NA,NA,NA,NA,0.176334522988008,NA,NA,NA,NA,NA,2.08526516477119,NA,NA,NA,NA,NA,4.62,NA,NA,NA,NA,NA,0.74,NA,NA,NA
"298","Subject_11121.txt",1.3709663656191,1.143,0.84,1,50,0,NA,NA,NA,0.726954232007888,NA,NA,NA,NA,NA,0.819610691406856,NA,NA,NA,NA,NA,0.264684404492654,NA,NA,NA,NA,NA,0.886950645751188,NA,NA,NA,NA,NA,3.42,NA,NA,NA,NA,NA,0.66,NA,NA
"299","Subject_11122.txt",1.27722968882881,1.1755,0.72,1,50,0,NA,NA,NA,NA,0.893366007315827,NA,NA,NA,NA,NA,2.13232972805664,NA,NA,NA,NA,NA,0.508280101188722,NA,NA,NA,NA,NA,0.418962412595552,NA,NA,NA,NA,NA,4.76,NA,NA,NA,NA,NA,0.84,NA
"300","Subject_11123.txt",1.16784496960463,1.368,0.78,1,50,0,NA,NA,NA,NA,NA,1.81691425202325,NA,NA,NA,NA,NA,1.47558427947803,NA,NA,NA,NA,NA,0.0633023895429342,NA,NA,NA,NA,NA,1.23131852059711,NA,NA,NA,NA,NA,5.46,NA,NA,NA,NA,NA,0.78
"301","Subject_11125.txt",1.14899207168492,0.949,0.8125,1,48,0,0.581036928632287,NA,NA,NA,NA,NA,1.19233825647688,NA,NA,NA,NA,NA,-0.145424915623079,NA,NA,NA,NA,NA,0.487308803081717,NA,NA,NA,NA,NA,4.44444444444444,NA,NA,NA,NA,NA,0.733333333333333,NA,NA,NA,NA,NA
"302","Subject_11126.txt",1.3364241017407,0.9465,0.52,1,50,0,NA,1.10535338898014,NA,NA,NA,NA,NA,0.412763821628825,NA,NA,NA,NA,NA,0.351502852025186,NA,NA,NA,NA,NA,2.67793186093261,NA,NA,NA,NA,NA,4.96,NA,NA,NA,NA,NA,0.58,NA,NA,NA,NA
"303","Subject_11127.txt",1.34053069017682,0.9385,0.795454545454545,1,44,0,NA,NA,0.68426188797471,NA,NA,NA,NA,NA,1.88415154999155,NA,NA,NA,NA,NA,2.22044604925031e-16,NA,NA,NA,NA,NA,0.363167117834963,NA,NA,NA,NA,NA,5.02,NA,NA,NA,NA,NA,0.84,NA,NA,NA
"304","Subject_11129.txt",1.17783090261946,0.9745,0.8125,1,48,0,NA,NA,NA,0.507938752082155,NA,NA,NA,NA,NA,0.48922340409379,NA,NA,NA,NA,NA,0.0994907608361208,NA,NA,NA,NA,NA,1.03825521802873,NA,NA,NA,NA,NA,4.62,NA,NA,NA,NA,NA,0.6,NA,NA
"305","Subject_11130.txt",1.58997554204689,1.234,0.6,1,50,0,NA,NA,NA,NA,0.837841911912837,NA,NA,NA,NA,NA,1.55237038518211,NA,NA,NA,NA,NA,0.165890582404722,NA,NA,NA,NA,NA,0.539717788944131,NA,NA,NA,NA,NA,4.22916666666667,NA,NA,NA,NA,NA,0.791666666666667,NA
"306","Subject_11132.txt",1.30478931959806,1.0645,0.791666666666667,1,48,0,NA,NA,NA,NA,NA,1.596178689901,NA,NA,NA,NA,NA,1.68366981885729,NA,NA,NA,NA,NA,0.10024086556713,NA,NA,NA,NA,NA,0.948035459223428,NA,NA,NA,NA,NA,5.52083333333333,NA,NA,NA,NA,NA,0.8125
"307","Subject_11133.txt",1.14715179010818,0.914,0.54,1,50,0,0.916804416319934,NA,NA,NA,NA,NA,0.915365087842814,NA,NA,NA,NA,NA,0.457682543921407,NA,NA,NA,NA,NA,1.00157240919086,NA,NA,NA,NA,NA,4.79166666666667,NA,NA,NA,NA,NA,0.666666666666667,NA,NA,NA,NA,NA
"308","Subject_11134.txt",1.33230724761961,0.9215,0.666666666666667,1,48,0,NA,1.56374218289123,NA,NA,NA,NA,NA,1.35897929212155,NA,NA,NA,NA,NA,-0.121604883221176,NA,NA,NA,NA,NA,1.1506740330458,NA,NA,NA,NA,NA,4.86,NA,NA,NA,NA,NA,0.76,NA,NA,NA,NA
"309","Subject_11135.txt",1.0903512013756,0.9475,0.76,1,50,0,NA,NA,0.541875018261858,NA,NA,NA,NA,NA,0.198981521672242,NA,NA,NA,NA,NA,0.244611702046895,NA,NA,NA,NA,NA,2.72324291073833,NA,NA,NA,NA,NA,4.12,NA,NA,NA,NA,NA,0.54,NA,NA,NA
"310","Subject_11136.txt",1.23800665087037,0.896,0.84,1,50,0,NA,NA,NA,0.0247491766691654,NA,NA,NA,NA,NA,0.104323020422919,NA,NA,NA,NA,NA,0.396263973094475,NA,NA,NA,NA,NA,0.237236005714116,NA,NA,NA,NA,NA,4.76,NA,NA,NA,NA,NA,0.52,NA,NA
"311","Subject_11137.txt",1.59088485576649,1.2145,0.733333333333333,1,45,0,NA,NA,NA,NA,1.08835442845288,NA,NA,NA,NA,NA,1.60226355419344,NA,NA,NA,NA,NA,0.226022495818281,NA,NA,NA,NA,NA,0.679260553361803,NA,NA,NA,NA,NA,4.86363636363636,NA,NA,NA,NA,NA,0.795454545454545,NA
"312","Subject_11139.txt",1.43706423036929,0.992,0.58,1,50,0,NA,NA,NA,NA,NA,1.75632659716001,NA,NA,NA,NA,NA,1.68824108830083,NA,NA,NA,NA,NA,-0.0430260148684629,NA,NA,NA,NA,NA,1.04032925707768,NA,NA,NA,NA,NA,5.625,NA,NA,NA,NA,NA,0.8125
"313","Subject_11140.txt",1.29721052898094,0.8835,0.82,1,50,0,1.36066470843153,NA,NA,NA,NA,NA,0.62626667664016,NA,NA,NA,NA,NA,0.361356411876002,NA,NA,NA,NA,NA,2.17266024073214,NA,NA,NA,NA,NA,3.52,NA,NA,NA,NA,NA,0.62,NA,NA,NA,NA,NA
"314","Subject_11141.txt",1.26757466509298,1.003,0.68,1,50,0,NA,1.16406412486943,NA,NA,NA,NA,NA,1.6478851349865,NA,NA,NA,NA,NA,0.479840104610236,NA,NA,NA,NA,NA,0.706398826080168,NA,NA,NA,NA,NA,4.12,NA,NA,NA,NA,NA,0.78,NA,NA,NA,NA
"315","Subject_11142.txt",1.16676852135424,0.938,0.72,1,50,0,NA,NA,1.37307087277788,NA,NA,NA,NA,NA,0.745897909263888,NA,NA,NA,NA,NA,0.930833717471543,NA,NA,NA,NA,NA,1.84082949653651,NA,NA,NA,NA,NA,3.54,NA,NA,NA,NA,NA,0.6,NA,NA,NA
"316","Subject_43336.txt",1.2844886381572,0.942,0.8,1,50,0,NA,NA,NA,0.890309343022247,NA,NA,NA,NA,NA,0.760733281079095,NA,NA,NA,NA,NA,0.724469103422563,NA,NA,NA,NA,NA,1.17033047608927,NA,NA,NA,NA,NA,3.96,NA,NA,NA,NA,NA,0.62,NA,NA
"317","Subject_47203.txt",1.39994228768774,1.133,0.62,1,50,0,NA,NA,NA,NA,1.43849303977672,NA,NA,NA,NA,NA,1.6021890585639,NA,NA,NA,NA,NA,0,NA,NA,NA,NA,NA,0.897829773638631,NA,NA,NA,NA,NA,4.44,NA,NA,NA,NA,NA,0.8,NA
"318","Subject_47284.txt",1.2380777085491,1.0285,0.8,1,50,0,NA,NA,NA,NA,NA,2.00223305616426,NA,NA,NA,NA,NA,2.31330600870568,NA,NA,NA,NA,NA,0.91324882654221,NA,NA,NA,NA,NA,0.865528835627123,NA,NA,NA,NA,NA,4.44,NA,NA,NA,NA,NA,0.8
"319","Subject_47617.txt",1.15982235259435,0.9515,0.72,1,50,0,1.25660777040284,NA,NA,NA,NA,NA,1.28617823787879,NA,NA,NA,NA,NA,0.29898665605638,NA,NA,NA,NA,NA,0.977009043843938,NA,NA,NA,NA,NA,3.76,NA,NA,NA,NA,NA,0.74,NA,NA,NA,NA,NA
"320","Subject_11114.txt",1.42636499714718,1.2305,0.74,1,50,0,NA,1.15670532000813,NA,NA,NA,NA,NA,1.54718684991412,NA,NA,NA,NA,NA,0.530189247146428,NA,NA,NA,NA,NA,0.747618375939749,NA,NA,NA,NA,NA,4.16,NA,NA,NA,NA,NA,0.76,NA,NA,NA,NA
"321","Subject_11115.txt",1.27521264371171,0.852,0.76,1,50,0,NA,NA,0.528019666930963,NA,NA,NA,NA,NA,1.35200574565941,NA,NA,NA,NA,NA,0.627779799273782,NA,NA,NA,NA,NA,0.390545431205571,NA,NA,NA,NA,NA,3.46,NA,NA,NA,NA,NA,0.72,NA,NA,NA
"322","Subject_11116.txt",1.19680522753333,0.932,0.6,1,50,0,NA,NA,NA,1.11237700169692,NA,NA,NA,NA,NA,1.05661267040619,NA,NA,NA,NA,NA,0.576529408759016,NA,NA,NA,NA,NA,1.05277651201106,NA,NA,NA,NA,NA,3.82,NA,NA,NA,NA,NA,0.68,NA,NA
"323","Subject_11117.txt",1.31485641215841,1.1745,0.62,1,50,0,NA,NA,NA,NA,0.902661140140355,NA,NA,NA,NA,NA,1.14519699216497,NA,NA,NA,NA,NA,0.228496033199467,NA,NA,NA,NA,NA,0.788214731889836,NA,NA,NA,NA,NA,3.84,NA,NA,NA,NA,NA,0.72,NA
"324","Subject_11118.txt",1.18624891167565,0.938,0.78,1,50,0,NA,NA,NA,NA,NA,0.806554581328529,NA,NA,NA,NA,NA,2.02287044852298,NA,NA,NA,NA,NA,0.563009740955554,NA,NA,NA,NA,NA,0.398717862489634,NA,NA,NA,NA,NA,3.94,NA,NA,NA,NA,NA,0.82
"325","Subject_11119.txt",1.25411380649166,1.125,0.795918367346939,1,49,0,1.69108916480233,NA,NA,NA,NA,NA,1.35897929212155,NA,NA,NA,NA,NA,-0.121604883221176,NA,NA,NA,NA,NA,1.24438184938221,NA,NA,NA,NA,NA,4.64,NA,NA,NA,NA,NA,0.76,NA,NA,NA,NA,NA
"326","Subject_11120.txt",1.2222897510801,1.106,0.739130434782609,1,46,0,NA,2.33141731626673,NA,NA,NA,NA,NA,1.23237451303568,NA,NA,NA,NA,NA,0.0583024936782415,NA,NA,NA,NA,NA,1.89180909829415,NA,NA,NA,NA,NA,4.94,NA,NA,NA,NA,NA,0.74,NA,NA,NA,NA
"327","Subject_11121.txt",1.09435000029043,1.0175,0.8,1,50,0,NA,NA,2.07314870699198,NA,NA,NA,NA,NA,1.54718684991412,NA,NA,NA,NA,NA,0.530189247146428,NA,NA,NA,NA,NA,1.33994721265053,NA,NA,NA,NA,NA,4.96,NA,NA,NA,NA,NA,0.76,NA,NA,NA
"328","Subject_11122.txt",1.34983331119292,1.1485,0.7,1,50,0,NA,NA,NA,0.833570286722413,NA,NA,NA,NA,NA,1.74317030427773,NA,NA,NA,NA,NA,-0.0704906228569128,NA,NA,NA,NA,NA,0.478192110476434,NA,NA,NA,NA,NA,3.34,NA,NA,NA,NA,NA,0.82,NA,NA
"329","Subject_11123.txt",1.19446240936668,1.2175,0.82,1,50,0,NA,NA,NA,NA,1.31773064223834,NA,NA,NA,NA,NA,1.35897929212155,NA,NA,NA,NA,NA,-0.121604883221176,NA,NA,NA,NA,NA,0.969647330079022,NA,NA,NA,NA,NA,5.46,NA,NA,NA,NA,NA,0.76,NA
"330","Subject_11125.txt",1.10896029302967,1.1405,0.76,1,50,0,NA,NA,NA,NA,NA,1.97249671817123,NA,NA,NA,NA,NA,1.08719671620655,NA,NA,NA,NA,NA,0.398477416892501,NA,NA,NA,NA,NA,1.81429605955183,NA,NA,NA,NA,NA,4.38,NA,NA,NA,NA,NA,0.7
"331","Subject_11126.txt",1.118982473301,1.2205,0.78,1,50,0,1.59772431530845,NA,NA,NA,NA,NA,1.55871049323573,NA,NA,NA,NA,NA,0.136009841224949,NA,NA,NA,NA,NA,1.02502954990168,NA,NA,NA,NA,NA,5.22916666666667,NA,NA,NA,NA,NA,0.791666666666667,NA,NA,NA,NA,NA
"332","Subject_11127.txt",1.18741262151161,1.0895,0.791666666666667,1,48,0,NA,1.86046196359202,NA,NA,NA,NA,NA,1.88415154999155,NA,NA,NA,NA,NA,2.22044604925031e-16,NA,NA,NA,NA,NA,0.987426920939753,NA,NA,NA,NA,NA,4.64,NA,NA,NA,NA,NA,0.84,NA,NA,NA,NA
"333","Subject_11129.txt",1.22440014807944,0.9235,0.84,1,50,0,NA,NA,1.2409523928495,NA,NA,NA,NA,NA,1.49996053783537,NA,NA,NA,NA,NA,0.192095506078089,NA,NA,NA,NA,NA,0.827323360546767,NA,NA,NA,NA,NA,4.54,NA,NA,NA,NA,NA,0.78,NA,NA,NA
"334","Subject_11130.txt",1.4290521964358,1.115,0.76,1,50,0,NA,NA,NA,0.944347888655049,NA,NA,NA,NA,NA,1.23350301611706,NA,NA,NA,NA,NA,-0.0923509953504917,NA,NA,NA,NA,NA,0.76558214800946,NA,NA,NA,NA,NA,3.10869565217391,NA,NA,NA,NA,NA,0.739130434782609,NA,NA
"335","Subject_11132.txt",1.10480301784264,1.1035,0.76,1,50,0,NA,NA,NA,NA,2.06683949847388,NA,NA,NA,NA,NA,1.6021890585639,NA,NA,NA,NA,NA,0,NA,NA,NA,NA,NA,1.29000974474664,NA,NA,NA,NA,NA,5.86,NA,NA,NA,NA,NA,0.8,NA
"336","Subject_11133.txt",1.21144294887199,1.164,0.74,1,50,0,NA,NA,NA,NA,NA,2.09746199078179,NA,NA,NA,NA,NA,1.57328774347063,NA,NA,NA,NA,NA,0.0144506575466326,NA,NA,NA,NA,NA,1.33317125203991,NA,NA,NA,NA,NA,4.95918367346939,NA,NA,NA,NA,NA,0.795918367346939
"337","Subject_11134.txt",1.21177757003898,1.145,0.94,1,100,0,1.44359506596663,NA,NA,NA,NA,NA,1.35897929212155,NA,NA,NA,NA,NA,0.121604883221176,NA,NA,NA,NA,NA,1.06226421133539,NA,NA,NA,NA,NA,4.56,NA,NA,NA,NA,NA,0.76,NA,NA,NA,NA,NA
"338","Subject_11135.txt",1.23452435335639,1.208,0.84,1,100,0,NA,1.3060982907791,NA,NA,NA,NA,NA,2.87822763732053,NA,NA,NA,NA,NA,0.135331146556778,NA,NA,NA,NA,NA,0.453785612313487,NA,NA,NA,NA,NA,4.88,NA,NA,NA,NA,NA,0.94,NA,NA,NA,NA
"339","Subject_11136.txt",1.2153365469203,1.1645,0.82,1,100,0,NA,NA,2.30298701989185,NA,NA,NA,NA,NA,2.37553949449899,NA,NA,NA,NA,NA,0.386675217967546,NA,NA,NA,NA,NA,0.969458527304998,NA,NA,NA,NA,NA,5.18,NA,NA,NA,NA,NA,0.88,NA,NA,NA
"340","Subject_11137.txt",1.18732845115301,1.0795,0.791666666666667,1,96,0,NA,NA,NA,2.41787965220632,NA,NA,NA,NA,NA,2.24893471541312,NA,NA,NA,NA,NA,0.44997760751048,NA,NA,NA,NA,NA,1.07512220592057,NA,NA,NA,NA,NA,5,NA,NA,NA,NA,NA,0.86,NA,NA
"341","Subject_11139.txt",1.40649761900568,1.2175,0.86,1,100,0,NA,NA,NA,NA,1.70297438267869,NA,NA,NA,NA,NA,1.61656552519186,NA,NA,NA,NA,NA,0.133793012399847,NA,NA,NA,NA,NA,1.0534521218845,NA,NA,NA,NA,NA,4.86,NA,NA,NA,NA,NA,0.8,NA
"342","Subject_11140.txt",1.41252260049805,1.1875,0.8,1,100,0,NA,NA,NA,NA,NA,2.6827080054912,NA,NA,NA,NA,NA,1.55871049323573,NA,NA,NA,NA,NA,-0.136009841224949,NA,NA,NA,NA,NA,1.72110729807314,NA,NA,NA,NA,NA,5.04166666666667,NA,NA,NA,NA,NA,0.791666666666667
"343","Subject_11141.txt",1.20550557104434,1.1865,0.94,1,100,0,1.55711273266951,NA,NA,NA,NA,NA,1.28617823787879,NA,NA,NA,NA,NA,0.29898665605638,NA,NA,NA,NA,NA,1.21065081558024,NA,NA,NA,NA,NA,4.56,NA,NA,NA,NA,NA,0.74,NA,NA,NA,NA,NA
"344","Subject_11142.txt",1.29498317072284,1.1115,0.74,1,100,0,NA,1.63839267704179,NA,NA,NA,NA,NA,1.85251255500364,NA,NA,NA,NA,NA,-0.154063063313136,NA,NA,NA,NA,NA,0.884416503745945,NA,NA,NA,NA,NA,4.5625,NA,NA,NA,NA,NA,0.833333333333333,NA,NA,NA,NA
"345","Subject_43336.txt",1.26756791697699,1.2615,0.833333333333333,1,96,0,NA,NA,1.92784671861853,NA,NA,NA,NA,NA,2.87822763732053,NA,NA,NA,NA,NA,-0.135331146556778,NA,NA,NA,NA,NA,0.669803421251715,NA,NA,NA,NA,NA,5.16,NA,NA,NA,NA,NA,0.94,NA,NA,NA
"346","Subject_47203.txt",1.26407502530492,1.2165,0.88,1,100,0,NA,NA,NA,1.66603022522974,NA,NA,NA,NA,NA,1.97827242229957,NA,NA,NA,NA,NA,0.314646460953702,NA,NA,NA,NA,NA,0.842164206734037,NA,NA,NA,NA,NA,4.64,NA,NA,NA,NA,NA,0.84,NA,NA
"347","Subject_47284.txt",1.22102741316485,1.2035,0.76,1,100,0,NA,NA,NA,NA,2.18827663112884,NA,NA,NA,NA,NA,1.77932549415819,NA,NA,NA,NA,NA,0.215172996883014,NA,NA,NA,NA,NA,1.22983492245421,NA,NA,NA,NA,NA,5.34,NA,NA,NA,NA,NA,0.82,NA
"348","Subject_47617.txt",1.23604110499582,1.4105,0.94,1,100,0,NA,NA,NA,NA,NA,2.18595304728165,NA,NA,NA,NA,NA,3.17473757485716,NA,NA,NA,NA,NA,0.48253304346647,NA,NA,NA,NA,NA,0.688546059552656,NA,NA,NA,NA,NA,5.44,NA,NA,NA,NA,NA,0.94
