,Unnamed: 0,Accuracy,Arousal,Confidence,Confidence_RT,Expected,KeyPressed,LearningTime,LeftWord,MarkerStart,RT,RightWord,TrialNumber,Valence,nBlock,Subject
0,0,0.0,Low,,,right,left,60.0,roof,2.0,1.853050569945481,lamp,0.0,High,0.0,0
1,1,0.0,Low,6.0,1.1909999999999998,left,right,60.0,herring,4.0,-2.5002393182658125,greyhound,1.0,High,0.0,0
2,2,1.0,Low,3.0,2.06,left,left,60.0,propeller,1.0,1.5708718883688562,lad,2.0,High,0.0,0
3,3,1.0,Low,6.0,1.16,right,right,60.0,pulpit,3.0,1.4192519026983064,ceiling,3.0,High,0.0,0
4,4,1.0,Low,4.0,1.227,right,right,60.0,pan,2.0,1.53008512800443,introductory,4.0,High,0.0,0
5,5,1.0,Low,4.0,2.81,right,right,60.0,delicate,4.0,1.3407962561177555,website,5.0,High,0.0,0
6,6,0.0,Low,3.0,1.7719999999999998,left,right,60.0,flock,6.0,2.3303403580503077,cabin,6.0,High,0.0,0
7,7,1.0,Low,7.0,1.594,right,right,60.0,wear,1.0,1.2542778940696735,newspaper,7.0,High,0.0,0
8,8,1.0,Low,7.0,1.143,left,left,60.0,native,5.0,0.5983229115663562,bathroom,8.0,High,0.0,0
9,9,1.0,Low,7.0,0.86,right,right,60.0,hair,5.0,1.1059557524276895,brief,9.0,High,0.0,0
10,10,1.0,Low,3.0,1.3869999999999998,right,right,60.0,cow,2.0,2.5535383172391453,rock,10.0,High,0.0,0
11,11,0.0,Low,1.0,1.607,left,right,60.0,verify,5.0,1.9398384056403304,urinate,11.0,High,0.0,0
12,12,1.0,Low,4.0,1.227,left,left,60.0,fitting,5.0,1.3279715564276555,bedspread,12.0,High,0.0,0
13,13,1.0,Low,2.0,2.79,right,right,60.0,lightbulb,1.0,2.038765387260355,fig,13.0,High,0.0,0
14,14,1.0,Low,7.0,2.092,left,left,60.0,jelly,2.0,0.8619993404427078,phone,14.0,High,0.0,0
15,15,1.0,Low,2.0,1.258,left,left,60.0,key,6.0,1.900985118641984,circle,15.0,High,0.0,0
16,16,1.0,Low,5.0,1.2590000000000001,right,right,60.0,oven,4.0,1.6106112303968985,clarinet,16.0,High,0.0,0
17,17,1.0,Low,3.0,1.058,right,right,60.0,tolerant,2.0,1.7637386644782964,flute,17.0,High,0.0,0
18,18,1.0,Low,6.0,1.86,right,right,60.0,mobile,5.0,1.5754853412800005,sympathetic,18.0,High,0.0,0
19,19,1.0,Low,7.0,1.227,left,left,60.0,western,3.0,1.0104167602257803,flow,19.0,High,0.0,0
20,20,0.0,Low,4.0,1.4580000000000002,right,left,60.0,stable,2.0,1.9105677937914152,consoled,20.0,High,0.0,0
21,21,1.0,Low,1.0,0.907,right,right,60.0,patio,2.0,2.036386640771525,velvet,21.0,High,0.0,0
22,22,1.0,Low,3.0,1.943,left,left,60.0,humble,5.0,1.3909667944535613,poetry,22.0,High,0.0,0
23,23,1.0,Low,2.0,1.921,right,right,60.0,herbal,6.0,2.4342991183220875,horse,23.0,High,0.0,0
24,24,1.0,Low,7.0,1.3769999999999998,left,left,60.0,furniture,3.0,0.9707152728515211,proper,24.0,High,0.0,0
25,25,1.0,Low,2.0,1.653,left,left,60.0,patience,2.0,2.801837746053934,reflection,25.0,High,0.0,0
26,26,1.0,Low,7.0,1.3430000000000002,right,right,60.0,camera,2.0,1.333764598093694,shrimp,26.0,High,0.0,0
27,27,0.0,Low,1.0,1.002,right,left,60.0,coin,3.0,2.92854489365709,candid,27.0,High,0.0,0
28,28,,Low,,,right,,60.0,rational,,,practical,28.0,High,0.0,0
29,29,False,Low,2.0,1.5419999999999998,right,left,60.0,doll,3.0,1.7138125772471542,leaves,29.0,High,0.0,0
30,30,False,Low,1.0,1.9909999999999999,left,right,60.0,open,4.0,1.954124037438305,grass,30.0,High,0.0,0
31,31,True,Low,5.0,2.755,right,right,60.0,binoculars,6.0,2.257360479998169,afternoon,31.0,High,0.0,0
32,32,True,Low,5.0,2.01,right,right,60.0,rose,5.0,1.2208240247273352,hamburger,32.0,High,0.0,0
33,33,,Low,,,right,,60.0,familiar,,,precise,33.0,High,0.0,0
34,34,True,Low,3.0,2.8089999999999997,left,left,60.0,tree,6.0,1.7598948154482061,autumn,34.0,High,0.0,0
35,35,,Low,,,right,,60.0,apple,,,dress,35.0,High,0.0,0
36,36,True,Low,2.0,1.7930000000000001,left,left,60.0,cottage,1.0,1.3684506677091122,countryside,36.0,High,0.0,0
37,37,True,Low,4.0,1.087,left,left,60.0,favor,2.0,2.574410333938431,nourish,37.0,High,0.0,0
38,38,True,Low,5.0,1.24,left,left,60.0,cooperative,1.0,2.1781461368373134,nice,38.0,High,0.0,0
39,39,False,Low,4.0,1.3090000000000002,right,left,60.0,responsible,6.0,1.7651347945793532,crown,39.0,High,0.0,0
40,40,True,Low,1.0,1.256,right,right,60.0,honey,3.0,2.1843081007536966,breathe,40.0,High,0.0,0
41,41,,Low,,,left,,60.0,moon,,,graceful,41.0,High,0.0,0
42,42,True,Low,2.0,2.06,left,left,60.0,caring,3.0,1.3260021532187238,leisurely,42.0,High,0.0,0
43,43,True,Low,7.0,0.91,left,left,60.0,silk,5.0,0.8262456419179216,serene,43.0,High,0.0,0
44,44,True,Low,2.0,1.489,left,left,60.0,relaxed,5.0,2.2180542206624523,haven,44.0,High,0.0,0
45,45,True,Low,2.0,2.377,left,left,60.0,comfort,5.0,1.4504312861536164,fluffy,45.0,High,0.0,0
46,46,,Low,,,left,,60.0,protected,,,bless,46.0,High,0.0,0
47,47,False,Low,,,left,right,60.0,sunflower,4.0,-2.5033379443048034,sky,47.0,High,0.0,0
48,48,True,Low,2.0,2.593,left,left,60.0,nature,4.0,-2.7268413069832604,kind,48.0,High,0.0,0
49,49,True,Low,1.0,1.557,right,right,60.0,peace,6.0,2.064654104906367,sunset,49.0,High,0.0,0
50,50,True,High,2.0,1.493,left,left,60.0,bolt,3.0,1.828431265632389,dragon,0.0,High,1.0,0
51,51,True,High,5.0,2.344,left,left,60.0,body,5.0,1.1682538877939803,fuck,1.0,High,1.0,0
52,52,True,High,1.0,1.239,right,right,60.0,zealous,3.0,2.1563290375634097,dare,2.0,High,1.0,0
53,53,True,High,3.0,1.253,right,right,60.0,nudist,3.0,2.6229868073423854,lotion,3.0,High,1.0,0
54,54,True,High,7.0,1.0759999999999998,right,right,60.0,night,6.0,1.0107471862575041,alcohol,4.0,High,1.0,0
55,55,True,High,7.0,0.693,right,right,60.0,drunk,6.0,1.3801262548076922,rare,5.0,High,1.0,0
56,56,True,High,7.0,1.442,right,right,60.0,chest,1.0,1.7316927949141243,spice,6.0,High,1.0,0
57,57,True,High,5.0,1.693,left,left,60.0,important,1.0,1.3086425971123392,duet,7.0,High,1.0,0
58,58,True,High,7.0,1.176,left,left,60.0,boost,3.0,1.3543963341217022,extreme,8.0,High,1.0,0
59,59,True,High,7.0,1.227,left,left,60.0,sports,3.0,0.6047768052376341,try,9.0,High,1.0,0
60,60,True,High,7.0,1.06,left,left,60.0,bikini,4.0,0.7409120014635846,cheerleader,10.0,High,1.0,0
61,61,True,High,7.0,1.276,left,left,60.0,zoom,3.0,0.7521840196859557,astonished,11.0,High,1.0,0
62,62,True,High,4.0,1.492,right,right,60.0,mountain,2.0,1.7771574893849902,interested,12.0,High,1.0,0
63,63,True,High,1.0,1.8430000000000002,right,right,60.0,mingle,2.0,1.244122587406309,clothes,13.0,High,1.0,0
64,64,False,High,2.0,1.092,left,right,60.0,brain,1.0,1.8159527112147769,attain,14.0,High,1.0,0
65,65,False,High,3.0,1.305,left,right,60.0,restaurant,2.0,2.384616519761039,curiosity,15.0,High,1.0,0
66,66,True,High,7.0,1.527,right,right,60.0,sing,1.0,1.3535677026666235,zest,16.0,High,1.0,0
67,67,False,High,2.0,1.421,left,right,60.0,penthouse,2.0,2.354915391711984,outgoing,17.0,High,1.0,0
68,68,True,High,7.0,1.244,right,right,60.0,mail,3.0,1.1903603504179046,perfect,18.0,High,1.0,0
69,69,True,High,7.0,1.26,left,left,60.0,special,2.0,1.03599173357361,firefighter,19.0,High,1.0,0
70,70,True,High,3.0,1.504,right,right,60.0,climax,2.0,2.3337495203886647,cartoon,20.0,High,1.0,0
71,71,True,High,5.0,2.125,left,left,60.0,spirit,6.0,1.6831214543490205,game,21.0,High,1.0,0
72,72,False,High,1.0,1.288,left,right,60.0,attract,4.0,2.3947663727740296,doughnut,22.0,High,1.0,0
73,73,,High,,,left,,60.0,rhythm,,,earn,23.0,High,1.0,0
74,74,False,High,3.0,1.639,right,left,60.0,model,2.0,2.2295046047947835,explore,24.0,High,1.0,0
75,75,False,High,2.0,1.091,right,left,60.0,charisma,4.0,2.020351996732643,actor,25.0,High,1.0,0
76,76,True,High,7.0,1.06,left,left,60.0,midnight,3.0,1.2745269133592956,inspired,26.0,High,1.0,0
77,77,,High,,,right,,60.0,gourmet,,,adore,27.0,High,1.0,0
78,78,False,High,5.0,1.588,right,left,60.0,energy,1.0,2.4396629269758705,energetic,28.0,High,1.0,0
79,79,False,High,2.0,1.374,right,left,60.0,life,6.0,2.045732243277598,dazzle,29.0,High,1.0,0
80,80,True,High,7.0,2.041,right,right,60.0,impressed,6.0,1.890294714336051,wonderful,30.0,High,1.0,0
81,81,True,High,2.0,1.3090000000000002,right,right,60.0,brownie,2.0,1.3632713201805018,best,31.0,High,1.0,0
82,82,False,High,6.0,1.6769999999999998,right,left,60.0,festival,4.0,1.1269843204936478,stunning,32.0,High,1.0,0
83,83,True,High,7.0,0.71,left,left,60.0,appreciative,6.0,0.8365026427782141,sister,33.0,High,1.0,0
84,84,False,High,3.0,1.325,right,left,60.0,personality,3.0,1.7541527813009452,eat,34.0,High,1.0,0
85,85,,High,,,right,,60.0,bright,,,like,35.0,High,1.0,0
86,86,True,High,7.0,0.953,right,right,60.0,puppy,4.0,2.59936263068812,talent,36.0,High,1.0,0
87,87,,High,,,left,,60.0,cookie,,,magnificence,37.0,High,1.0,0
88,88,False,High,1.0,2.292,left,right,60.0,ambitious,3.0,1.7923779380507767,cheeseburger,38.0,High,1.0,0
89,89,,High,,,right,,60.0,birth,,,cruiseship,39.0,High,1.0,0
90,90,True,High,3.0,1.359,right,right,60.0,kissing,1.0,1.0502587588562164,satisfaction,40.0,High,1.0,0
91,91,False,High,1.0,1.125,left,right,60.0,pretty,2.0,1.7931963038572576,progress,41.0,High,1.0,0
92,92,True,High,2.0,1.72,left,left,60.0,justice,3.0,2.6314354476053268,accomplish,42.0,High,1.0,0
93,93,True,High,1.0,2.59,right,right,60.0,diamond,5.0,2.073275657428894,smiling,43.0,High,1.0,0
94,94,True,High,4.0,1.155,left,left,60.0,engaged,6.0,2.205304909439292,diploma,44.0,High,1.0,0
95,95,True,High,2.0,1.6580000000000001,left,left,60.0,giggle,5.0,1.8279285689641256,sex,45.0,High,1.0,0
96,96,True,High,6.0,1.3940000000000001,right,right,60.0,god,2.0,1.3459185009123755,joke,46.0,High,1.0,0
97,97,False,High,3.0,0.972,left,right,60.0,enthusiastic,2.0,2.3761377241462474,enjoy,47.0,High,1.0,0
98,98,False,High,2.0,1.119,left,right,60.0,affection,3.0,2.8742549374583177,excellence,48.0,High,1.0,0
99,99,True,High,4.0,1.955,left,left,60.0,funny,6.0,2.3805218036286533,ecstatic,49.0,High,1.0,0
100,100,True,Low,7.0,0.9790000000000001,left,left,90.0,mane,5.0,1.1082267094752751,vegetable,0.0,High,2.0,0
101,101,True,Low,2.0,0.857,right,right,90.0,easel,4.0,1.7815839147369843,carrot,1.0,High,2.0,0
102,102,True,Low,7.0,0.843,right,right,90.0,coat,5.0,1.3094160506152548,cup,2.0,High,2.0,0
103,103,True,Low,3.0,1.093,left,left,90.0,suburban,5.0,1.6592201048042623,chew,3.0,High,2.0,0
104,104,True,Low,7.0,1.51,right,right,90.0,chess,3.0,1.3360317055194173,hat,4.0,High,2.0,0
105,105,False,Low,4.0,1.942,left,right,90.0,cattle,5.0,1.795776193146594,sensitive,5.0,High,2.0,0
106,106,True,Low,2.0,1.093,left,left,90.0,refine,4.0,1.3963283574557863,outlet,6.0,High,2.0,0
107,107,True,Low,7.0,1.5930000000000002,left,left,90.0,telescope,1.0,0.7412562219542451,farm,7.0,High,2.0,0
108,108,False,Low,1.0,0.742,right,left,90.0,tend,2.0,1.822421682620188,beads,8.0,High,2.0,0
109,109,True,Low,7.0,1.143,right,right,90.0,number,3.0,1.3131229171995074,method,9.0,High,2.0,0
110,110,True,Low,2.0,2.5580000000000003,right,right,90.0,read,6.0,1.8590229398978408,quiet,10.0,High,2.0,0
111,111,True,Low,6.0,1.0590000000000002,left,left,90.0,dew,4.0,1.699713652167702,windmill,11.0,High,2.0,0
112,112,False,Low,1.0,0.8079999999999999,right,left,90.0,golfer,1.0,1.8470121147693133,straighten,12.0,High,2.0,0
113,113,True,Low,6.0,1.203,left,left,90.0,scarf,3.0,2.657567333139013,candle,13.0,High,2.0,0
114,114,False,Low,2.0,1.374,right,left,90.0,send,1.0,2.0296052082849196,land,14.0,High,2.0,0
115,115,True,Low,7.0,1.127,right,right,90.0,pecan,4.0,1.4738440543296747,teacher,15.0,High,2.0,0
116,116,True,Low,5.0,1.5430000000000001,right,right,90.0,rink,5.0,1.3824921692139471,leg,16.0,High,2.0,0
117,117,True,Low,6.0,2.2769999999999997,left,left,90.0,den,2.0,0.9919975952652748,cat,17.0,High,2.0,0
118,118,True,Low,5.0,1.5430000000000001,left,left,90.0,harvest,3.0,1.1984259531309365,gender,18.0,High,2.0,0
119,119,True,Low,1.0,1.188,left,left,90.0,sheltered,6.0,2.26463755153236,modest,19.0,High,2.0,0
120,120,False,Low,6.0,1.577,left,right,90.0,owl,6.0,1.470772054832196,cinnamon,20.0,High,2.0,0
121,121,True,Low,7.0,0.893,left,left,90.0,crackers,6.0,1.1615536182071082,slogan,21.0,High,2.0,0
122,122,True,Low,7.0,0.993,right,right,90.0,piano,5.0,1.169889656972373,lamb,22.0,High,2.0,0
123,123,True,Low,6.0,1.207,right,right,90.0,groceries,3.0,2.023886913462775,window,23.0,High,2.0,0
124,124,True,Low,1.0,1.5530000000000002,left,left,90.0,inform,2.0,2.6660182189953052,town,24.0,High,2.0,0
125,125,,Low,,,right,,90.0,porpoise,,,listen,25.0,High,2.0,0
126,126,False,Low,,,left,right,90.0,corn,1.0,-3.035795402771328,prefer,26.0,High,2.0,0
127,127,True,Low,,,right,right,90.0,vegetables,1.0,-2.5599643011519215,orchestra,27.0,High,2.0,0
128,128,False,Low,5.0,1.828,right,left,90.0,relate,1.0,0.9801577575854026,buffalo,28.0,High,2.0,0
129,129,True,Low,2.0,0.993,left,left,90.0,pancakes,4.0,1.5461335665313527,adorn,29.0,High,2.0,0
130,130,True,Low,7.0,1.4080000000000001,left,left,90.0,logical,3.0,1.8169876183092128,pond,30.0,High,2.0,0
131,131,False,Low,3.0,1.976,right,left,90.0,green,6.0,1.5521226182172543,dawn,31.0,High,2.0,0
132,132,False,Low,3.0,1.79,right,left,90.0,soup,4.0,2.1811533343570773,moral,32.0,High,2.0,0
133,133,True,Low,7.0,1.01,right,right,90.0,tidy,4.0,1.4119542998378165,crystal,33.0,High,2.0,0
134,134,True,Low,6.0,1.3430000000000002,left,left,90.0,violinist,2.0,0.9658387623785528,person,34.0,High,2.0,0
135,135,False,Low,2.0,1.157,right,left,90.0,polite,6.0,2.0731768504192587,tenderness,35.0,High,2.0,0
136,136,True,Low,4.0,2.443,left,left,90.0,sheep,5.0,1.3040625076100696,oxygen,36.0,High,2.0,0
137,137,True,Low,6.0,1.225,left,left,90.0,clearer,2.0,1.6978629457007628,saint,37.0,High,2.0,0
138,138,True,Low,7.0,1.093,right,right,90.0,pear,3.0,1.4021682362363208,innocent,38.0,High,2.0,0
139,139,True,Low,7.0,0.777,right,right,90.0,lounge,5.0,1.3174344954313708,nestle,39.0,High,2.0,0
140,140,True,Low,7.0,0.823,right,right,90.0,bathtub,5.0,2.1823075797874485,cuisine,40.0,High,2.0,0
141,141,True,Low,6.0,2.209,left,left,90.0,able,4.0,1.780764586525038,lake,41.0,High,2.0,0
142,142,True,Low,7.0,1.077,left,left,90.0,girl,5.0,1.0558711890480479,breeze,42.0,High,2.0,0
143,143,True,Low,7.0,1.942,right,right,90.0,nectar,2.0,1.8064832791569645,donate,43.0,High,2.0,0
144,144,True,Low,4.0,0.909,left,left,90.0,grace,3.0,1.682161614910001,assure,44.0,High,2.0,0
145,145,True,Low,5.0,0.943,left,left,90.0,safe,3.0,1.2282788205193356,butterfly,45.0,High,2.0,0
146,146,True,Low,7.0,0.927,left,left,90.0,politeness,6.0,0.9985579952190164,bird,46.0,High,2.0,0
147,147,True,Low,5.0,1.022,right,right,90.0,grateful,6.0,2.347562931739958,cozy,47.0,High,2.0,0
148,148,False,Low,2.0,1.22,right,left,90.0,wise,6.0,2.70721400185721,refreshment,48.0,High,2.0,0
149,149,True,Low,4.0,1.235,left,left,90.0,kindness,4.0,2.9404251523956186,relax,49.0,High,2.0,0
150,150,False,High,3.0,2.224,left,right,60.0,rejected,1.0,2.2591486301098485,murderer,0.0,Low,3.0,0
151,151,False,High,4.0,1.088,right,left,60.0,terrorist,3.0,1.7113302116922569,syphilis,1.0,Low,3.0,0
152,152,True,High,7.0,0.96,right,right,60.0,rabies,5.0,1.2588329610007352,fail,2.0,Low,3.0,0
153,153,True,High,7.0,1.393,left,left,60.0,gunpoint,2.0,1.0845361267856788,hurt,3.0,Low,3.0,0
154,154,True,High,5.0,1.177,right,right,60.0,disloyal,6.0,1.4211006843543146,mutilation,4.0,Low,3.0,0
155,155,True,High,6.0,1.21,left,left,60.0,overweight,5.0,1.3071986675204244,afraid,5.0,Low,3.0,0
156,156,True,High,7.0,1.327,right,right,60.0,assault,3.0,1.2906610060017556,war,6.0,Low,3.0,0
157,157,True,High,5.0,1.193,right,right,60.0,demon,6.0,1.3262113160744775,trauma,7.0,Low,3.0,0
158,158,True,High,1.0,1.186,left,left,60.0,troubled,5.0,2.88386520158383,murder,8.0,Low,3.0,0
159,159,True,High,7.0,1.11,right,right,60.0,crushed,3.0,1.2855660294007976,divorce,9.0,Low,3.0,0
160,160,True,High,7.0,0.8440000000000001,left,left,60.0,poisonous,5.0,0.8659092746383976,traffic,10.0,Low,3.0,0
161,161,True,High,2.0,1.276,right,right,60.0,whore,2.0,1.4149470612755977,crash,11.0,Low,3.0,0
162,162,False,High,,,left,right,60.0,insecure,6.0,-2.5533846531179734,anger,12.0,Low,3.0,0
163,163,True,High,7.0,1.413,left,left,60.0,starving,3.0,1.6777752897760363,robbery,13.0,Low,3.0,0
164,164,True,High,7.0,1.124,right,right,60.0,banish,6.0,1.442951467790408,pollution,14.0,Low,3.0,0
165,165,True,High,2.0,1.041,left,left,60.0,cult,3.0,1.8592914511391427,repulsed,15.0,Low,3.0,0
166,166,True,High,1.0,1.6369999999999998,left,left,60.0,rude,5.0,2.778695734741632,burdened,16.0,Low,3.0,0
167,167,True,High,7.0,0.9440000000000001,right,right,60.0,rash,5.0,1.1990601785946635,jealousy,17.0,Low,3.0,0
168,168,False,High,1.0,1.091,right,left,60.0,gang,4.0,1.8545442238391845,robber,18.0,Low,3.0,0
169,169,True,High,5.0,1.9569999999999999,right,right,60.0,frighten,5.0,1.9161802239832468,destroy,19.0,Low,3.0,0
170,170,False,High,1.0,1.038,left,right,60.0,creepy,1.0,2.357092674530577,burn,20.0,Low,3.0,0
171,171,False,High,4.0,1.8219999999999998,left,right,60.0,criticism,2.0,2.2124148431175854,fear,21.0,Low,3.0,0
172,172,True,High,2.0,1.7930000000000001,right,right,60.0,expel,6.0,1.6128882826596964,scared,22.0,Low,3.0,0
173,173,True,High,7.0,1.06,right,right,60.0,scold,5.0,1.60021564309136,communism,23.0,Low,3.0,0
174,174,True,High,7.0,1.6269999999999998,left,left,60.0,psycho,1.0,1.109679621498799,paranoid,24.0,Low,3.0,0
175,175,True,High,3.0,1.308,left,left,60.0,surgery,2.0,1.8393911435559855,scorn,25.0,Low,3.0,0
176,176,True,High,6.0,1.591,left,left,60.0,difficult,3.0,1.7756811587896664,dent,26.0,Low,3.0,0
177,177,True,High,3.0,1.173,left,left,60.0,quarrel,2.0,2.136300730024232,wicked,27.0,Low,3.0,0
178,178,True,High,7.0,1.177,left,left,60.0,bitch,5.0,1.4584381821041459,bothered,28.0,Low,3.0,0
179,179,False,High,2.0,1.005,left,right,60.0,detain,4.0,2.3245524491940164,trouble,29.0,Low,3.0,0
180,180,False,High,2.0,1.905,right,left,60.0,hazard,6.0,2.3883657321857754,sever,30.0,Low,3.0,0
181,181,True,High,1.0,0.7390000000000001,right,right,60.0,irritate,1.0,2.2576155175629538,forbid,31.0,Low,3.0,0
182,182,True,High,4.0,1.574,right,right,60.0,disruptive,3.0,1.7688054105092306,rattlesnake,32.0,Low,3.0,0
183,183,False,High,2.0,1.358,left,right,60.0,mob,5.0,2.004872981662629,nuclear,33.0,Low,3.0,0
184,184,True,High,7.0,0.826,right,right,60.0,pushy,5.0,1.4086028818564955,avalanche,34.0,Low,3.0,0
185,185,True,High,6.0,2.3209999999999997,right,right,60.0,bastard,4.0,2.545765927497996,dagger,35.0,Low,3.0,0
186,186,,High,,,left,,60.0,frantic,,,emergency,36.0,Low,3.0,0
187,187,False,High,2.0,1.7269999999999999,left,right,60.0,haunt,1.0,-2.9229683933081105,gossip,37.0,Low,3.0,0
188,188,True,High,7.0,1.041,right,right,60.0,spanking,4.0,1.9268664578557944,anarchy,38.0,Low,3.0,0
189,189,False,High,3.0,1.5030000000000001,right,left,60.0,scare,4.0,2.72785824915627,obsessed,39.0,Low,3.0,0
190,190,True,High,4.0,1.6740000000000002,left,left,60.0,shark,1.0,1.9425575229979584,officer,40.0,Low,3.0,0
191,191,,High,,,right,,60.0,fight,,,forceful,41.0,Low,3.0,0
192,192,True,High,2.0,2.108,left,left,60.0,tangle,2.0,1.9070043257088403,mangle,42.0,Low,3.0,0
193,193,False,High,4.0,1.01,left,right,60.0,shock,3.0,1.3660080816480331,baffle,43.0,Low,3.0,0
194,194,True,High,2.0,1.825,right,right,60.0,revolt,4.0,1.908384736510925,battle,44.0,Low,3.0,0
195,195,True,High,2.0,2.021,left,left,60.0,police,6.0,2.4750053574098274,chaos,45.0,Low,3.0,0
196,196,False,High,1.0,2.406,right,left,60.0,vampire,6.0,2.2665870650089346,pang,46.0,Low,3.0,0
197,197,,High,,,left,,60.0,emotional,,,reckless,47.0,Low,3.0,0
198,198,False,High,3.0,1.306,right,left,60.0,lava,5.0,2.140595947392285,clench,48.0,Low,3.0,0
199,199,True,High,7.0,0.94,right,right,60.0,lightning,5.0,1.996544642170193,speech,49.0,Low,3.0,0
200,200,True,Low,7.0,1.093,right,right,60.0,sad,5.0,1.5599296545551624,loneliness,0.0,Low,4.0,0
201,201,False,Low,3.0,1.124,left,right,60.0,worthless,2.0,1.867939951014705,lonely,1.0,Low,4.0,0
202,202,True,Low,2.0,0.9740000000000001,left,left,60.0,sorrow,5.0,1.9798940583714284,rotten,2.0,Low,4.0,0
203,203,False,Low,3.0,2.688,left,right,60.0,deformed,4.0,2.5260946725029503,disappointment,3.0,Low,4.0,0
204,204,False,Low,5.0,1.66,right,left,60.0,disability,3.0,1.2737114347983152,worse,4.0,Low,4.0,0
205,205,True,Low,6.0,0.9570000000000001,right,right,60.0,sunburn,5.0,1.7706978212518152,sewage,5.0,Low,4.0,0
206,206,True,Low,3.0,1.609,left,left,60.0,stinky,3.0,1.7434777754824609,coward,6.0,Low,4.0,0
207,207,True,Low,6.0,1.126,left,left,60.0,alienation,2.0,1.2960315515229013,fever,7.0,Low,4.0,0
208,208,True,Low,1.0,1.368,left,left,60.0,mope,6.0,2.9955581761605568,negligent,8.0,Low,4.0,0
209,209,True,Low,7.0,1.193,right,right,60.0,bored,3.0,1.4789948505058417,mucous,9.0,Low,4.0,0
210,210,False,Low,4.0,1.3880000000000001,right,left,60.0,stink,5.0,2.4494444993324582,despair,10.0,Low,4.0,0
211,211,True,Low,5.0,1.226,left,left,60.0,pathetic,2.0,1.5866316051688043,weakness,11.0,Low,4.0,0
212,212,True,Low,2.0,1.069,right,right,60.0,manure,5.0,2.8252014315512497,complain,12.0,Low,4.0,0
213,213,False,Low,1.0,0.721,right,left,60.0,messy,1.0,2.5064182846981566,expire,13.0,Low,4.0,0
214,214,True,Low,,,right,right,60.0,tax,4.0,2.0323089271259955,mildew,14.0,Low,4.0,0
215,215,True,Low,2.0,1.706,left,left,60.0,detach,1.0,2.2340583885088563,moody,15.0,Low,4.0,0
216,216,True,Low,7.0,1.227,left,left,60.0,urine,3.0,0.8029778762138449,handicapped,16.0,Low,4.0,0
217,217,True,Low,2.0,1.675,left,left,60.0,handicap,1.0,1.7196235838346183,dismissive,17.0,Low,4.0,0
218,218,,Low,,,right,,60.0,bitter,,,tarnish,18.0,Low,4.0,0
219,219,True,Low,4.0,1.41,right,right,60.0,pity,2.0,1.2406717207923066,dummy,19.0,Low,4.0,0
220,220,False,Low,2.0,2.07,right,left,60.0,stain,5.0,2.714584747533081,crutch,20.0,Low,4.0,0
221,221,True,Low,2.0,2.506,left,left,60.0,doubt,2.0,2.220176646398613,cancel,21.0,Low,4.0,0
222,222,True,Low,7.0,1.044,right,right,60.0,blubber,6.0,1.3800890417769551,uninteresting,22.0,Low,4.0,0
223,223,True,Low,2.0,1.254,right,right,60.0,forgot,2.0,2.3199043496861123,dull,23.0,Low,4.0,0
224,224,True,Low,3.0,0.9520000000000001,left,left,60.0,greedy,2.0,2.8548502688936424,mold,24.0,Low,4.0,0
225,225,True,Low,4.0,1.127,left,left,60.0,lame,5.0,1.0664778640202712,damp,25.0,Low,4.0,0
226,226,True,Low,7.0,1.275,right,right,60.0,refuse,1.0,1.7915210760547782,ail,26.0,Low,4.0,0
227,227,True,Low,7.0,1.193,left,left,60.0,void,4.0,0.7587883695377968,false,27.0,Low,4.0,0
228,228,True,Low,2.0,1.405,left,left,60.0,cynical,4.0,2.4181310206477065,resent,28.0,Low,4.0,0
229,229,True,Low,6.0,1.4269999999999998,left,left,60.0,numb,3.0,0.9027719855366741,separate,29.0,Low,4.0,0
230,230,True,Low,2.0,2.075,left,left,60.0,pinch,5.0,1.8938167989836077,leave,30.0,Low,4.0,0
231,231,False,Low,4.0,1.41,right,left,60.0,fool,6.0,1.4411421447875907,timid,31.0,Low,4.0,0
232,232,False,Low,2.0,1.252,right,left,60.0,slow,4.0,2.9206756217463408,pungent,32.0,Low,4.0,0
233,233,False,Low,3.0,1.757,right,left,60.0,crap,6.0,1.9485459330608137,sludge,33.0,Low,4.0,0
234,234,True,Low,1.0,0.67,left,left,60.0,lower,1.0,2.5800160272629,cane,34.0,Low,4.0,0
235,235,False,Low,1.0,2.7030000000000003,left,right,60.0,blues,6.0,2.6887640398927037,slouch,35.0,Low,4.0,0
236,236,True,Low,3.0,1.956,left,left,60.0,smug,1.0,2.0967503403953742,habit,36.0,Low,4.0,0
237,237,True,Low,2.0,1.6580000000000001,left,left,60.0,witch,5.0,1.8660286129452288,stagnant,37.0,Low,4.0,0
238,238,True,Low,7.0,1.493,right,right,60.0,small,2.0,1.3214377830154262,omit,38.0,Low,4.0,0
239,239,False,Low,2.0,0.9890000000000001,right,left,60.0,absurd,1.0,2.300989545707125,vacant,39.0,Low,4.0,0
240,240,True,Low,4.0,0.991,right,right,60.0,loose,1.0,1.9824569451739082,apathy,40.0,Low,4.0,0
241,241,True,Low,3.0,1.36,left,left,60.0,coal,1.0,1.1209333540464286,cellar,41.0,Low,4.0,0
242,242,,Low,,,left,,60.0,shadow,,,label,42.0,Low,4.0,0
243,243,True,Low,6.0,1.775,right,right,60.0,stupor,1.0,1.2751608180115,average,43.0,Low,4.0,0
244,244,False,Low,5.0,1.158,left,right,60.0,obscure,3.0,1.8864896823652089,therapy,44.0,Low,4.0,0
245,245,True,Low,3.0,1.675,right,right,60.0,paragraph,1.0,1.7250438536284491,marrow,45.0,Low,4.0,0
246,246,True,Low,7.0,1.2930000000000001,right,right,60.0,bus,1.0,1.2085581620340236,fur,46.0,Low,4.0,0
247,247,True,Low,2.0,1.3730000000000002,left,left,60.0,dissolve,2.0,2.086700256768381,anus,47.0,Low,4.0,0
248,248,False,Low,3.0,0.857,right,left,60.0,stool,4.0,1.9692642856389284,errand,48.0,Low,4.0,0
249,249,False,Low,4.0,2.127,right,left,60.0,moss,3.0,1.380526615655981,feet,49.0,Low,4.0,0
250,250,True,High,7.0,1.995,left,left,90.0,vodka,3.0,1.3126282405864913,intense,0.0,High,5.0,0
251,251,True,High,1.0,1.492,left,left,90.0,react,5.0,1.8365382517804392,alien,1.0,High,5.0,0
252,252,True,High,2.0,0.973,right,right,90.0,motorcycle,1.0,2.197766384313581,hire,2.0,High,5.0,0
253,253,False,High,2.0,2.056,right,left,90.0,conquest,6.0,2.165622990985866,teach,3.0,High,5.0,0
254,254,True,High,1.0,1.625,right,right,90.0,freeway,2.0,1.8962802371825087,race,4.0,High,5.0,0
255,255,True,High,4.0,1.574,right,right,90.0,curious,2.0,1.7113908432947935,ignite,5.0,High,5.0,0
256,256,True,High,7.0,1.11,right,right,90.0,voyage,6.0,1.2216860195912886,gym,6.0,High,5.0,0
257,257,True,High,1.0,1.31,right,right,90.0,sandwich,2.0,1.5247171489172615,reveal,7.0,High,5.0,0
258,258,,High,,,right,,90.0,naked,,,engage,8.0,High,5.0,0
259,259,False,High,,,right,left,90.0,new,5.0,-2.6741752502566674,teenager,9.0,High,5.0,0
260,260,True,High,7.0,1.128,right,right,90.0,animal,3.0,1.2985742278106045,reunion,10.0,High,5.0,0
261,261,True,High,7.0,1.51,right,right,90.0,band,1.0,1.1264036689535717,limousine,11.0,High,5.0,0
262,262,True,High,7.0,0.727,right,right,90.0,jaguar,6.0,0.9423756283067632,royalty,12.0,High,5.0,0
263,263,,High,,,left,,90.0,gem,,,bridesmaid,13.0,High,5.0,0
264,264,True,High,7.0,1.744,left,left,90.0,marry,2.0,1.3566621583304368,raise,14.0,High,5.0,0
265,265,False,High,3.0,1.158,right,left,90.0,sexual,1.0,1.8436157844844276,sizzle,15.0,High,5.0,0
266,266,True,High,4.0,0.81,right,right,90.0,carnival,3.0,1.3201173621928322,unite,16.0,High,5.0,0
267,267,False,High,3.0,1.3219999999999998,left,right,90.0,casino,2.0,2.1728994208970107,powerful,17.0,High,5.0,0
268,268,True,High,7.0,1.044,left,left,90.0,mate,4.0,0.8947471246356145,conquer,18.0,High,5.0,0
269,269,True,High,5.0,1.01,left,left,90.0,aid,4.0,0.8851025347248651,stereo,19.0,High,5.0,0
270,270,True,High,6.0,0.972,right,right,90.0,imaginative,4.0,2.432821504509775,entertainment,20.0,High,5.0,0
271,271,True,High,5.0,1.476,left,left,90.0,imagination,2.0,1.6421255310706329,self,21.0,High,5.0,0
272,272,True,High,4.0,1.124,left,left,90.0,potential,6.0,1.966836777253775,prince,22.0,High,5.0,0
273,273,True,High,4.0,1.6909999999999998,left,left,90.0,hope,6.0,2.0033575132547408,favorite,23.0,High,5.0,0
274,274,,High,,,right,,90.0,honeymoon,,,snow,24.0,High,5.0,0
275,275,False,High,4.0,2.491,right,left,90.0,dancing,2.0,1.9707621099660173,playground,25.0,High,5.0,0
276,276,True,High,5.0,0.7929999999999999,right,right,90.0,rich,5.0,1.4141745701781474,champ,26.0,High,5.0,0
277,277,True,High,2.0,1.859,right,right,90.0,glamorous,4.0,1.7172255892364774,frosting,27.0,High,5.0,0
278,278,True,High,2.0,1.286,right,right,90.0,supper,5.0,2.765082183061168,alive,28.0,High,5.0,0
279,279,False,High,5.0,1.508,left,right,90.0,star,6.0,1.8752584059839137,fly,29.0,High,5.0,0
280,280,False,High,2.0,1.87,right,left,90.0,great,3.0,2.7819031126855407,embrace,30.0,High,5.0,0
281,281,True,High,6.0,1.91,left,left,90.0,fascinate,2.0,1.5577963215473574,treat,31.0,High,5.0,0
282,282,True,High,7.0,0.877,left,left,90.0,genius,5.0,1.2013728398887906,silly,32.0,High,5.0,0
283,283,True,High,7.0,0.927,left,left,90.0,congratulate,6.0,1.3067107277456669,prosperous,33.0,High,5.0,0
284,284,True,High,2.0,1.8940000000000001,left,left,90.0,surprised,5.0,1.4279235002759378,dollar,34.0,High,5.0,0
285,285,True,High,7.0,1.26,left,left,90.0,flirt,3.0,0.8377852089761291,applause,35.0,High,5.0,0
286,286,True,High,5.0,1.3430000000000002,right,right,90.0,dog,1.0,1.6086880226503126,holiday,36.0,High,5.0,0
287,287,False,High,3.0,2.158,left,right,90.0,excite,1.0,1.8073606724792624,money,37.0,High,5.0,0
288,288,True,High,7.0,1.043,left,left,90.0,profit,3.0,1.2216568265866954,blessings,38.0,High,5.0,0
289,289,True,High,2.0,1.021,left,left,90.0,thoughtful,5.0,2.4771563344984315,generosity,39.0,High,5.0,0
290,290,True,High,4.0,2.193,left,left,90.0,rescue,3.0,1.5690792470704764,riches,40.0,High,5.0,0
291,291,False,High,2.0,1.339,right,left,90.0,surprise,6.0,2.1116929745767266,compassion,41.0,High,5.0,0
292,292,False,High,3.0,2.22,right,left,90.0,christmas,6.0,2.5962749118625648,pleased,42.0,High,5.0,0
293,293,True,High,7.0,1.943,left,left,90.0,party,6.0,1.24116030219011,weekend,43.0,High,5.0,0
294,294,,High,,,left,,90.0,celebration,,,aroused,44.0,High,5.0,0
295,295,True,High,7.0,1.375,right,right,90.0,me,5.0,1.7503195187600795,laughing,45.0,High,5.0,0
296,296,False,High,1.0,1.7930000000000001,right,left,90.0,congratulations,4.0,1.5880886876257136,smile,46.0,High,5.0,0
297,297,True,High,4.0,1.29,left,left,90.0,happy,3.0,1.9507293111528268,cure,47.0,High,5.0,0
298,298,True,High,6.0,1.0090000000000001,left,left,90.0,comedy,5.0,1.2956651956774294,victory,48.0,High,5.0,0
299,299,True,High,7.0,1.227,left,left,90.0,laughter,3.0,0.9403776737162844,loved,49.0,High,5.0,0
300,300,True,Low,5.0,1.811,right,right,90.0,depression,6.0,1.7238616984395776,death,0.0,Low,6.0,0
301,301,True,Low,2.0,0.6859999999999999,left,left,90.0,discomfort,3.0,2.7245408361777663,sick,1.0,Low,6.0,0
302,302,True,Low,4.0,0.7759999999999999,right,right,90.0,cry,4.0,1.3951208589132875,hopeless,2.0,Low,6.0,0
303,303,True,Low,7.0,1.36,left,left,90.0,malaria,2.0,1.0863502618158236,widow,3.0,Low,6.0,0
304,304,True,Low,3.0,1.626,left,left,90.0,misfortune,1.0,1.2853725857858078,disgrace,4.0,Low,6.0,0
305,305,True,Low,4.0,1.575,right,right,90.0,casket,1.0,1.8781494731665591,weak,5.0,Low,6.0,0
306,306,False,Low,4.0,1.624,left,right,90.0,wasteful,2.0,2.026246091001667,stinks,6.0,Low,6.0,0
307,307,True,Low,6.0,1.609,left,left,90.0,unpleasant,5.0,1.587112487264676,pessimistic,7.0,Low,6.0,0
308,308,True,Low,3.0,1.9869999999999999,right,right,90.0,blister,4.0,2.5435976270819083,impotent,8.0,Low,6.0,0
309,309,True,Low,7.0,1.126,right,right,90.0,cowardice,4.0,1.4588411093573086,whine,9.0,Low,6.0,0
310,310,True,Low,7.0,1.81,left,left,90.0,dandruff,1.0,1.027827644662466,dumb,10.0,Low,6.0,0
311,311,False,Low,2.0,0.987,left,right,90.0,dreary,3.0,2.663579482526984,fatigue,11.0,Low,6.0,0
312,312,False,Low,2.0,2.6060000000000003,left,right,90.0,ignorance,4.0,2.2466309378796723,incompetent,12.0,Low,6.0,0
313,313,True,Low,3.0,1.475,right,right,90.0,vulnerable,4.0,1.8668174649646967,slob,13.0,Low,6.0,0
314,314,True,Low,2.0,2.358,left,left,90.0,pale,5.0,1.83660048735328,gloomy,14.0,Low,6.0,0
315,315,,Low,,,left,,90.0,impair,,,lack,15.0,Low,6.0,0
316,316,False,Low,,,right,left,90.0,unpopular,1.0,-2.7219603052653842,feeble,16.0,Low,6.0,0
317,317,True,Low,1.0,2.029,left,left,90.0,wither,1.0,-2.7323501181090246,nuisance,17.0,Low,6.0,0
318,318,True,Low,3.0,1.69,right,right,90.0,mucus,5.0,2.061003378679743,deficient,18.0,Low,6.0,0
319,319,True,Low,5.0,1.442,right,right,90.0,grime,1.0,1.7411789087054783,immature,19.0,Low,6.0,0
320,320,True,Low,2.0,1.5219999999999998,right,right,90.0,fault,3.0,2.3741875690757297,doubtful,20.0,Low,6.0,0
321,321,True,Low,1.0,0.838,left,left,90.0,cough,2.0,2.4813739177770917,con,21.0,Low,6.0,0
322,322,True,Low,1.0,1.325,left,left,90.0,grovel,3.0,1.8449612278782297,resign,22.0,Low,6.0,0
323,323,False,Low,4.0,2.11,left,right,90.0,spit,5.0,1.5371777383843437,incorrect,23.0,Low,6.0,0
324,324,True,Low,6.0,2.177,left,left,90.0,egotistical,2.0,1.3158038591209331,dishes,24.0,Low,6.0,0
325,325,True,Low,1.0,1.6740000000000002,left,left,90.0,overcast,5.0,1.9931473494798406,prude,25.0,Low,6.0,0
326,326,True,Low,7.0,1.21,left,left,90.0,piss,4.0,1.075639647024218,heavy,26.0,Low,6.0,0
327,327,False,Low,3.0,1.273,left,right,90.0,limp,5.0,2.1250072180700954,tick,27.0,Low,6.0,0
328,328,False,Low,2.0,1.4240000000000002,right,left,90.0,senseless,4.0,1.8624478215642741,chump,28.0,Low,6.0,0
329,329,True,Low,7.0,0.81,left,left,90.0,period,6.0,0.9279976055258884,weary,29.0,Low,6.0,0
330,330,True,Low,4.0,1.742,right,right,90.0,condescension,1.0,1.8721921808901243,hinder,30.0,Low,6.0,0
331,331,True,Low,1.0,1.673,right,right,90.0,rusty,2.0,2.185173945239512,junk,31.0,Low,6.0,0
332,332,True,Low,3.0,1.026,left,left,90.0,butcher,3.0,1.5367324652906973,little,32.0,Low,6.0,0
333,333,True,Low,6.0,1.8769999999999998,left,left,90.0,alimony,1.0,1.370838075847132,nosey,33.0,Low,6.0,0
334,334,True,Low,4.0,0.9590000000000001,left,left,90.0,ash,3.0,1.6212217549909838,smudge,34.0,Low,6.0,0
335,335,True,Low,3.0,2.193,left,left,90.0,defer,2.0,1.2416944374272134,bland,35.0,Low,6.0,0
336,336,True,Low,5.0,1.3219999999999998,right,right,90.0,laundry,1.0,2.3441986816178537,gullible,36.0,Low,6.0,0
337,337,True,Low,7.0,1.1440000000000001,right,right,90.0,passive,3.0,1.1737203530792613,sigh,37.0,Low,6.0,0
338,338,True,Low,2.0,1.073,right,right,90.0,recede,2.0,2.1742833605385385,erase,38.0,Low,6.0,0
339,339,True,Low,7.0,0.86,right,right,90.0,rules,5.0,1.3415292885911183,novice,39.0,Low,6.0,0
340,340,True,Low,2.0,1.042,right,right,90.0,derelict,4.0,1.7579337531060446,tar,40.0,Low,6.0,0
341,341,False,Low,1.0,0.972,right,left,90.0,fart,4.0,2.261294795171125,beet,41.0,Low,6.0,0
342,342,False,Low,2.0,2.2030000000000003,left,right,90.0,class,5.0,2.8811637283361047,allege,42.0,Low,6.0,0
343,343,False,Low,1.0,0.655,right,left,90.0,spurn,2.0,2.3619201023539063,punk,43.0,Low,6.0,0
344,344,True,Low,2.0,0.9740000000000001,right,right,90.0,wane,1.0,2.108642789593432,folly,44.0,Low,6.0,0
345,345,True,Low,1.0,1.608,left,left,90.0,muddy,1.0,1.8864627350121737,cease,45.0,Low,6.0,0
346,346,False,Low,2.0,1.125,right,left,90.0,policy,4.0,1.842308516526828,dork,46.0,Low,6.0,0
347,347,True,Low,2.0,1.244,right,right,90.0,cling,5.0,-2.8300593355379533,tatter,47.0,Low,6.0,0
348,348,,Low,,,right,,90.0,coarse,,,bandage,48.0,Low,6.0,0
349,349,True,Low,2.0,2.026,right,right,90.0,factory,6.0,-2.7538002199435136,obstinate,49.0,Low,6.0,0
350,350,True,High,2.0,1.2930000000000001,right,right,30.0,preach,6.0,2.224119302380132,erupt,0.0,High,7.0,0
351,351,True,High,,,left,left,30.0,meteor,3.0,2.0383897282008547,gorilla,1.0,High,7.0,0
352,352,False,High,2.0,1.113,right,left,30.0,mercy,1.0,-2.8138713481603186,infatuated,2.0,High,7.0,0
353,353,True,High,6.0,1.139,right,right,30.0,seal,5.0,1.4366881304304115,soldier,3.0,High,7.0,0
354,354,False,High,1.0,0.892,right,left,30.0,crazy,4.0,1.7813866215292364,crush,4.0,High,7.0,0
355,355,True,High,7.0,0.8759999999999999,right,right,30.0,outspoken,4.0,1.0072648810455576,ass,5.0,High,7.0,0
356,356,True,High,7.0,1.109,left,left,30.0,galaxy,4.0,0.9704297591233626,comet,6.0,High,7.0,0
357,357,False,High,2.0,1.139,right,left,30.0,erect,3.0,2.2098089688806795,cockpit,7.0,High,7.0,0
358,358,True,High,7.0,1.077,left,left,30.0,children,3.0,1.0555523119110148,wild,8.0,High,7.0,0
359,359,True,High,7.0,1.227,left,left,30.0,thin,2.0,1.0731332213326823,husband,9.0,High,7.0,0
360,360,False,High,3.0,0.992,left,right,30.0,control,3.0,1.4217015463800635,elephant,10.0,High,7.0,0
361,361,False,High,1.0,1.6230000000000002,right,left,30.0,surfer,5.0,2.041442800371442,windsurfers,11.0,High,7.0,0
362,362,False,High,2.0,1.0390000000000001,left,right,30.0,athletics,4.0,2.2274142592796125,belief,12.0,High,7.0,0
363,363,,High,,,right,,30.0,fair,,,answer,13.0,High,7.0,0
364,364,False,High,1.0,1.5430000000000001,left,right,30.0,thong,4.0,-2.3677474698342853,revive,14.0,High,7.0,0
365,365,False,High,1.0,1.473,left,right,30.0,invent,6.0,2.0964465409342665,salary,15.0,High,7.0,0
366,366,True,High,5.0,1.244,left,left,30.0,juice,5.0,1.1089013559685554,vigorous,16.0,High,7.0,0
367,367,True,High,2.0,1.0590000000000002,right,right,30.0,bravery,4.0,1.7972361628490034,bold,17.0,High,7.0,0
368,368,True,High,4.0,1.639,right,right,30.0,charming,6.0,2.252818886772729,tickle,18.0,High,7.0,0
369,369,False,High,1.0,0.938,right,left,30.0,know,3.0,2.289962299342733,extravagant,19.0,High,7.0,0
370,370,True,High,7.0,0.843,right,right,30.0,reef,5.0,1.4846316615876276,toddler,20.0,High,7.0,0
371,371,True,High,3.0,1.042,left,left,30.0,applaud,1.0,1.7622873564250767,sparkle,21.0,High,7.0,0
372,372,True,High,4.0,2.7889999999999997,right,right,30.0,waterskiing,6.0,2.2653737920045387,confidence,22.0,High,7.0,0
373,373,False,High,2.0,0.904,right,left,30.0,fashion,4.0,2.519359114696272,worthwhile,23.0,High,7.0,0
374,374,True,High,1.0,1.101,left,left,30.0,song,2.0,2.9983183561707847,strengthen,24.0,High,7.0,0
375,375,,High,,,left,,30.0,brilliant,,,strong,25.0,High,7.0,0
376,376,True,High,6.0,0.943,left,left,30.0,pastry,3.0,1.4947629081143532,prize,26.0,High,7.0,0
377,377,True,High,3.0,1.341,left,left,30.0,cupcake,5.0,1.971810490736971,musician,27.0,High,7.0,0
378,378,False,High,3.0,1.077,left,right,30.0,king,1.0,1.3909026340406854,suite,28.0,High,7.0,0
379,379,False,High,2.0,1.072,right,left,30.0,heaven,4.0,2.309315639606212,bargain,29.0,High,7.0,0
380,380,False,High,2.0,1.99,right,left,30.0,eager,6.0,2.1209327124233823,cookout,30.0,High,7.0,0
381,381,,High,,,left,,30.0,summer,,,cherish,31.0,High,7.0,0
382,382,False,High,1.0,2.593,right,left,30.0,prosper,6.0,-2.252536260231864,luck,32.0,High,7.0,0
383,383,True,High,1.0,0.688,left,left,30.0,elated,2.0,2.3123683909943797,exhilaration,33.0,High,7.0,0
384,384,False,High,1.0,1.34,left,right,30.0,delight,3.0,2.0483682729245634,redeem,34.0,High,7.0,0
385,385,True,High,2.0,1.436,right,right,30.0,cheery,6.0,2.9168407551769637,gold,35.0,High,7.0,0
386,386,True,High,3.0,1.075,right,right,30.0,amaze,6.0,1.8250814515922684,superstar,36.0,High,7.0,0
387,387,True,High,2.0,2.1719999999999997,left,left,30.0,optimistic,5.0,2.317477162112482,beautiful,37.0,High,7.0,0
388,388,False,High,,,right,left,30.0,sunshine,5.0,1.9100830620445777,tasty,38.0,High,7.0,0
389,389,True,High,4.0,1.525,left,left,30.0,concert,6.0,2.2798740403086413,compassionate,39.0,High,7.0,0
390,390,True,High,4.0,1.555,left,left,30.0,enthusiasm,6.0,1.8247442887513896,giggles,40.0,High,7.0,0
391,391,True,High,2.0,1.6380000000000001,left,left,30.0,fantastic,1.0,2.3781568516278644,car,41.0,High,7.0,0
392,392,True,High,2.0,1.125,right,right,30.0,triumph,3.0,1.702181260799989,birthday,42.0,High,7.0,0
393,393,True,High,2.0,1.189,right,right,30.0,fame,2.0,2.2048076663922984,succeed,43.0,High,7.0,0
394,394,True,High,7.0,1.126,left,left,30.0,confident,4.0,1.0738627249666024,sexy,44.0,High,7.0,0
395,395,True,High,4.0,2.76,left,left,30.0,passion,1.0,1.4901350191212257,beach,45.0,High,7.0,0
396,396,False,High,3.0,1.504,right,left,30.0,complete,1.0,2.620828772574896,awesome,46.0,High,7.0,0
397,397,True,High,2.0,0.74,left,left,30.0,pleasure,1.0,2.0688758586475156,graduate,47.0,High,7.0,0
398,398,False,High,2.0,1.854,right,left,30.0,win,4.0,2.3689090937259607,success,48.0,High,7.0,0
399,399,True,High,3.0,1.44,right,right,30.0,award,6.0,1.9403404606855477,champion,49.0,High,7.0,0
400,400,True,Low,4.0,1.046,right,right,30.0,frown,1.0,1.455200327996863,unhappy,0.0,Low,8.0,0
401,401,True,Low,7.0,1.21,left,left,30.0,homeless,2.0,1.0913105016225018,gloom,1.0,Low,8.0,0
402,402,True,Low,4.0,1.077,left,left,30.0,stench,2.0,1.5808655108266976,zit,2.0,Low,8.0,0
403,403,True,Low,3.0,0.9259999999999999,right,right,30.0,wart,1.0,1.2957402633328456,ungrateful,3.0,Low,8.0,0
404,404,False,Low,2.0,1.026,right,left,30.0,inferiority,1.0,1.6556832632340956,scam,4.0,Low,8.0,0
405,405,True,Low,4.0,0.943,right,right,30.0,trash,5.0,1.2615793465229217,decay,5.0,Low,8.0,0
406,406,,Low,,,left,,30.0,chore,,,obesity,6.0,Low,8.0,0
407,407,False,Low,2.0,2.377,right,left,30.0,alcoholism,6.0,-2.4140978984942194,unfortunate,7.0,Low,8.0,0
408,408,True,Low,7.0,0.86,right,right,30.0,germs,4.0,1.3389789130305871,inadequate,8.0,Low,8.0,0
409,409,True,Low,6.0,1.31,right,right,30.0,waste,2.0,1.536052685958566,graveyard,9.0,Low,8.0,0
410,410,False,Low,3.0,0.875,left,right,30.0,discouraged,1.0,1.8129150375316383,glum,10.0,Low,8.0,0
411,411,True,Low,4.0,0.943,left,left,30.0,rodent,3.0,1.1371454015607014,blind,11.0,Low,8.0,0
412,412,False,Low,7.0,1.26,left,right,30.0,sluggish,2.0,1.2121408782550134,inferior,12.0,Low,8.0,0
413,413,True,Low,3.0,0.924,left,left,30.0,sloppy,2.0,1.7719418912311085,dislike,13.0,Low,8.0,0
414,414,False,Low,2.0,1.4880000000000002,right,left,30.0,tiresome,5.0,2.2827452178171366,idiot,14.0,Low,8.0,0
415,415,False,Low,2.0,1.085,right,left,30.0,dump,5.0,2.9016745220287703,droop,15.0,Low,8.0,0
416,416,False,Low,1.0,0.637,right,left,30.0,withdrawn,1.0,2.5570735547516956,complaint,16.0,Low,8.0,0
417,417,False,Low,2.0,1.7590000000000001,left,right,30.0,tired,6.0,1.6813499859417789,fatigued,17.0,Low,8.0,0
418,418,True,Low,3.0,1.794,left,left,30.0,old,6.0,1.3177799991390202,bore,18.0,Low,8.0,0
419,419,True,Low,7.0,2.01,left,left,30.0,cheapskate,2.0,1.329311546171084,boring,19.0,Low,8.0,0
420,420,,Low,,,right,,30.0,stale,,,smoke,20.0,Low,8.0,0
421,421,True,Low,2.0,0.91,right,right,30.0,end,2.0,1.4681488572387025,itch,21.0,Low,8.0,0
422,422,False,Low,2.0,0.89,left,right,30.0,frail,1.0,2.0776863634819165,mediocre,22.0,Low,8.0,0
423,423,True,Low,1.0,1.942,right,right,30.0,prohibit,5.0,1.7076445180573503,foolish,23.0,Low,8.0,0
424,424,True,Low,3.0,1.127,right,right,30.0,depart,1.0,1.26133040417335,bleak,24.0,Low,8.0,0
425,425,True,Low,4.0,1.442,right,right,30.0,scapegoat,2.0,1.7717692997830454,chubby,25.0,Low,8.0,0
426,426,True,Low,2.0,0.96,right,right,30.0,rag,4.0,1.378233523282688,confuse,26.0,Low,8.0,0
427,427,True,Low,3.0,2.827,right,right,30.0,gnaw,4.0,1.2606621737359092,shallow,27.0,Low,8.0,0
428,428,True,Low,1.0,0.706,left,left,30.0,bald,1.0,2.0082644999201875,noose,28.0,Low,8.0,0
429,429,True,Low,1.0,1.357,left,left,30.0,warden,2.0,1.954365601326572,nameless,29.0,Low,8.0,0
430,430,True,Low,3.0,1.439,left,left,30.0,cell,6.0,2.2827567666827235,melancholy,30.0,Low,8.0,0
431,431,True,Low,3.0,2.377,right,right,30.0,meek,5.0,1.3363303721125703,detached,31.0,Low,8.0,0
432,432,True,Low,2.0,1.871,left,left,30.0,dust,5.0,2.4196811357105616,naive,32.0,Low,8.0,0
433,433,False,Low,1.0,0.774,left,right,30.0,stop,2.0,1.9726339893531983,dustpan,33.0,Low,8.0,0
434,434,,Low,,,right,,30.0,haphazard,,,exhaust,34.0,Low,8.0,0
435,435,False,Low,2.0,1.006,right,left,30.0,excuse,2.0,2.032157187815756,insect,35.0,Low,8.0,0
436,436,False,Low,1.0,1.072,left,right,30.0,report,3.0,2.4337858351937034,listless,36.0,Low,8.0,0
437,437,True,Low,2.0,1.46,right,right,30.0,cleft,3.0,1.3419732784677765,dry,37.0,Low,8.0,0
438,438,False,Low,,,left,right,30.0,busy,6.0,2.746809624572052,dirt,38.0,Low,8.0,0
439,439,True,Low,3.0,0.924,right,right,30.0,ramble,5.0,1.8999649684119504,crumbs,39.0,Low,8.0,0
440,440,False,Low,3.0,1.9269999999999998,left,right,30.0,gloat,6.0,1.2183653985557612,snail,40.0,Low,8.0,0
441,441,True,Low,1.0,2.219,left,left,30.0,vague,4.0,2.9049213585967664,solemn,41.0,Low,8.0,0
442,442,False,Low,1.0,2.104,right,left,30.0,corner,6.0,2.5351602149021346,school,42.0,Low,8.0,0
443,443,True,Low,2.0,0.973,right,right,30.0,lazy,2.0,2.1017574172874447,plain,43.0,Low,8.0,0
444,444,True,Low,2.0,1.04,left,left,30.0,frozen,3.0,2.081197540857829,onion,44.0,Low,8.0,0
445,445,,Low,,,left,,30.0,distracted,,,cast,45.0,Low,8.0,0
446,446,False,Low,1.0,1.057,left,right,30.0,govern,4.0,2.081270362890791,retreat,46.0,Low,8.0,0
447,447,True,Low,2.0,2.603,left,left,30.0,obey,5.0,2.6245584161079023,cab,47.0,Low,8.0,0
448,448,False,Low,1.0,2.969,left,right,30.0,bereavement,6.0,2.840430221083807,sweep,48.0,Low,8.0,0
449,449,True,Low,5.0,2.26,right,right,30.0,drool,6.0,1.4237758518429473,vacuum,49.0,Low,8.0,0
450,450,False,High,2.0,1.324,right,left,90.0,suffocate,5.0,2.312723518756684,suicide,0.0,Low,9.0,0
451,451,True,High,3.0,0.773,right,right,90.0,suffer,4.0,2.0682563900772952,abusive,1.0,Low,9.0,0
452,452,True,High,7.0,1.01,right,right,90.0,slave,5.0,1.3291418419394176,starvation,2.0,Low,9.0,0
453,453,True,High,7.0,0.826,left,left,90.0,humiliation,5.0,0.7476190078887157,nightmare,3.0,Low,9.0,0
454,454,,High,,,right,,90.0,jail,,,terrible,4.0,Low,9.0,0
455,455,False,High,1.0,0.777,left,right,90.0,despise,2.0,-3.030608997592936,sob,5.0,Low,9.0,0
456,456,,High,,,left,,90.0,seasick,,,leprosy,6.0,Low,9.0,0
457,457,False,High,1.0,2.077,left,right,90.0,amputate,2.0,-2.959843615477439,shame,7.0,Low,9.0,0
458,458,True,High,7.0,1.426,left,left,90.0,victim,4.0,1.374076250795042,castrate,8.0,Low,9.0,0
459,459,True,High,7.0,0.9940000000000001,right,right,90.0,hostage,4.0,0.9901497760147322,traitor,9.0,Low,9.0,0
460,460,True,High,5.0,0.893,left,left,90.0,crucify,3.0,1.2735872844350524,irritated,10.0,Low,9.0,0
461,461,True,High,2.0,1.526,left,left,90.0,insult,2.0,1.6455693400639575,horrible,11.0,Low,9.0,0
462,462,True,High,3.0,0.94,right,right,90.0,tumor,5.0,2.0455920528329443,homicide,12.0,Low,9.0,0
463,463,True,High,2.0,1.091,left,left,90.0,liar,2.0,1.9534471453225704,demonic,13.0,Low,9.0,0
464,464,True,High,2.0,1.436,left,left,90.0,despairing,5.0,2.839825830189511,mad,14.0,Low,9.0,0
465,465,True,High,3.0,2.043,left,left,90.0,addict,6.0,1.5261293190997094,enraged,15.0,Low,9.0,0
466,466,True,High,4.0,0.87,left,left,90.0,injury,4.0,2.573642975650728,virus,16.0,Low,9.0,0
467,467,False,High,4.0,1.8559999999999999,right,left,90.0,wounds,6.0,2.1053770256985445,pissed,17.0,Low,9.0,0
468,468,True,High,4.0,1.124,right,right,90.0,guilty,2.0,2.0344560546218418,arson,18.0,Low,9.0,0
469,469,True,High,4.0,0.976,left,left,90.0,aggravated,1.0,1.5788871251861565,awful,19.0,Low,9.0,0
470,470,True,High,1.0,0.924,left,left,90.0,attack,2.0,1.9419842499191875,disorder,20.0,Low,9.0,0
471,471,False,High,2.0,1.023,right,left,90.0,terror,5.0,2.0649107464705594,offend,21.0,Low,9.0,0
472,472,True,High,1.0,0.973,left,left,90.0,pester,3.0,2.086904286814388,exam,22.0,Low,9.0,0
473,473,True,High,1.0,0.904,left,left,90.0,brutal,4.0,2.5287457798549435,pervert,23.0,Low,9.0,0
474,474,True,High,7.0,0.743,right,right,90.0,lost,6.0,1.514317391178338,electrocute,24.0,Low,9.0,0
475,475,False,High,1.0,1.153,right,left,90.0,angry,5.0,2.7787201156897936,insane,25.0,Low,9.0,0
476,476,,High,,,left,,90.0,deceit,,,bloody,26.0,Low,9.0,0
477,477,True,High,2.0,0.7929999999999999,right,right,90.0,slap,2.0,-3.0452625892357896,sinful,27.0,Low,9.0,0
478,478,True,High,1.0,1.157,right,right,90.0,riot,3.0,2.0672837185557,bleed,28.0,Low,9.0,0
479,479,True,High,2.0,2.004,right,right,90.0,apprehension,6.0,2.613278698612703,critic,29.0,Low,9.0,0
480,480,True,High,7.0,1.169,left,left,90.0,uneasy,5.0,2.8274428748118225,delayed,30.0,Low,9.0,0
481,481,True,High,4.0,0.8590000000000001,right,right,90.0,ridicule,3.0,1.3690008430567104,cram,31.0,Low,9.0,0
482,482,True,High,1.0,1.319,left,left,90.0,bees,5.0,2.787961136782542,hive,32.0,Low,9.0,0
483,483,True,High,2.0,1.004,left,left,90.0,confused,4.0,2.6648190612613694,evil,33.0,Low,9.0,0
484,484,True,High,6.0,1.574,left,left,90.0,snake,5.0,2.010291647457052,germ,34.0,Low,9.0,0
485,485,False,High,2.0,1.04,right,left,90.0,invade,4.0,2.141827826853841,bruise,35.0,Low,9.0,0
486,486,False,High,2.0,0.9420000000000001,right,left,90.0,ban,2.0,1.6232081606867723,court,36.0,Low,9.0,0
487,487,False,High,1.0,1.426,left,right,90.0,outrage,6.0,1.6538864515023306,spank,37.0,Low,9.0,0
488,488,True,High,1.0,0.7879999999999999,right,right,90.0,fighting,3.0,2.4823228499735706,slip,38.0,Low,9.0,0
489,489,False,High,1.0,1.104,right,left,90.0,knife,1.0,2.5509593903261703,wail,39.0,Low,9.0,0
490,490,,High,,,right,,90.0,yelp,,,disturb,40.0,Low,9.0,0
491,491,True,High,1.0,0.976,right,right,90.0,bug,1.0,1.4782656676543409,drama,41.0,Low,9.0,0
492,492,False,High,1.0,2.343,right,left,90.0,scream,3.0,1.0559433694870677,politics,42.0,Low,9.0,0
493,493,True,High,6.0,1.193,right,right,90.0,enlist,4.0,1.62487633083947,dentist,43.0,Low,9.0,0
494,494,True,High,7.0,1.024,left,left,90.0,enforcement,5.0,2.0097514169756323,financial,44.0,Low,9.0,0
495,495,True,High,5.0,2.142,left,left,90.0,prostitute,1.0,1.612143701320747,lurk,45.0,Low,9.0,0
496,496,True,High,3.0,1.754,left,left,90.0,blade,4.0,2.605425787623972,heat,46.0,Low,9.0,0
497,497,True,High,6.0,1.359,right,right,90.0,pierce,1.0,1.6104277316480875,goddamn,47.0,Low,9.0,0
498,498,True,High,1.0,0.685,right,right,90.0,damn,1.0,2.96271607617382,evade,48.0,Low,9.0,0
499,499,True,High,2.0,1.291,left,left,90.0,expensive,1.0,1.8917864434479266,breathless,49.0,Low,9.0,0
500,500,True,Low,2.0,1.176,left,left,30.0,parlor,6.0,2.0898877449799333,year,0.0,High,10.0,0
501,501,True,Low,1.0,0.805,left,left,30.0,miniature,3.0,2.352933477202896,candlestick,1.0,High,10.0,0
502,502,True,Low,5.0,1.76,left,left,30.0,crossword,1.0,0.8738083811476827,tomato,2.0,High,10.0,0
503,503,True,Low,3.0,1.192,right,right,30.0,revere,1.0,1.2947772158659063,spray,3.0,High,10.0,0
504,504,True,Low,7.0,2.043,right,right,30.0,barn,1.0,1.6028260085731745,tower,4.0,High,10.0,0
505,505,True,Low,7.0,0.826,left,left,30.0,glacier,6.0,0.9284014951845164,avenue,5.0,High,10.0,0
506,506,True,Low,7.0,0.8270000000000001,left,left,30.0,writer,6.0,0.9215385790157598,quench,6.0,High,10.0,0
507,507,True,Low,4.0,2.7260000000000004,left,left,30.0,library,1.0,1.781746882101288,accord,7.0,High,10.0,0
508,508,True,Low,,,right,right,30.0,detail,1.0,1.1115197415056173,donkey,8.0,High,10.0,0
509,509,True,Low,6.0,2.0780000000000003,right,right,30.0,peanut,1.0,1.5986530167574529,name,9.0,High,10.0,0
510,510,False,Low,3.0,1.66,right,left,30.0,bib,6.0,1.2676312753756065,trout,10.0,High,10.0,0
511,511,False,Low,3.0,1.06,left,right,30.0,unit,4.0,1.50456501179724,plaza,11.0,High,10.0,0
512,512,True,Low,1.0,2.1919999999999997,left,left,30.0,handwriting,5.0,1.62853411474498,ketchup,12.0,High,10.0,0
513,513,True,Low,4.0,2.96,left,left,30.0,camel,1.0,1.0962688166473529,yellow,13.0,High,10.0,0
514,514,True,Low,2.0,1.186,right,right,30.0,makeup,6.0,2.8227565998677164,skinny,14.0,High,10.0,0
515,515,True,Low,7.0,0.91,right,right,30.0,similar,5.0,1.3901593359187243,medicine,15.0,High,10.0,0
516,516,False,Low,2.0,1.726,right,left,30.0,telephone,6.0,1.4917444825405255,frog,16.0,High,10.0,0
517,517,False,Low,1.0,1.693,right,left,30.0,book,2.0,1.5973046861472542,adapt,17.0,High,10.0,0
518,518,False,Low,,,left,right,30.0,nursery,4.0,2.67015945140156,ancestor,18.0,High,10.0,0
519,519,True,Low,1.0,1.345,right,right,30.0,blouse,5.0,1.4378212029405404,courtyard,19.0,High,10.0,0
520,520,True,Low,1.0,1.3519999999999999,left,left,30.0,contemporary,4.0,2.8364991139387716,checkerboard,20.0,High,10.0,0
521,521,True,Low,3.0,2.042,right,right,30.0,decency,6.0,1.6905441699491348,author,21.0,High,10.0,0
522,522,,Low,,,left,,30.0,hawk,,,tea,22.0,High,10.0,0
523,523,True,Low,1.0,1.36,left,left,30.0,wheat,2.0,1.3870475569565317,seagull,23.0,High,10.0,0
524,524,True,Low,1.0,1.324,right,right,30.0,glasses,4.0,1.9683163158479149,village,24.0,High,10.0,0
525,525,True,Low,3.0,0.726,left,left,30.0,milk,2.0,1.6126913102343678,soap,25.0,High,10.0,0
526,526,False,Low,2.0,1.838,right,left,30.0,sentiment,5.0,2.448041311581619,plant,26.0,High,10.0,0
527,527,,Low,,,left,,30.0,civil,,,flag,27.0,High,10.0,0
528,528,False,Low,1.0,1.96,left,right,30.0,trait,6.0,1.5750474465894513,ornament,28.0,High,10.0,0
529,529,False,Low,1.0,0.8370000000000001,left,right,30.0,shampoo,1.0,2.528037769952789,casual,29.0,High,10.0,0
530,530,False,Low,1.0,1.507,right,left,30.0,emerald,4.0,2.0826116358803115,sprinkle,30.0,High,10.0,0
531,531,,Low,,,right,,30.0,shoes,,,cook,31.0,High,10.0,0
532,532,False,Low,1.0,1.359,left,right,30.0,pray,1.0,1.2400724627368618,virtue,32.0,High,10.0,0
533,533,True,Low,3.0,0.789,right,right,30.0,noon,1.0,2.2936659578990657,authentic,33.0,High,10.0,0
534,534,True,Low,1.0,2.026,right,right,30.0,boy,4.0,1.3449939496640582,peach,34.0,High,10.0,0
535,535,False,Low,3.0,1.242,right,left,30.0,walking,6.0,1.6572936890588608,harp,35.0,High,10.0,0
536,536,True,Low,1.0,2.4019999999999997,left,left,30.0,hippotamus,5.0,2.769685049483087,priest,36.0,High,10.0,0
537,537,True,Low,2.0,2.41,left,left,30.0,poem,3.0,-0.4865282427635975,swan,37.0,High,10.0,0
538,538,False,Low,1.0,1.5719999999999998,right,left,30.0,sofa,6.0,2.282213007361861,candy,38.0,High,10.0,0
539,539,True,Low,3.0,1.177,right,right,30.0,helpful,5.0,1.3821784249157645,flower,39.0,High,10.0,0
540,540,False,Low,3.0,0.9420000000000001,left,right,30.0,garden,4.0,1.7285229508124758,soul,40.0,High,10.0,0
541,541,True,Low,7.0,1.31,left,left,30.0,blue,2.0,1.3789758589991834,cool,41.0,High,10.0,0
542,542,True,Low,2.0,0.875,left,left,30.0,thankful,2.0,1.8021383374871218,river,42.0,High,10.0,0
543,543,False,Low,1.0,1.82,right,left,30.0,ease,6.0,2.7994400722673163,fireplace,43.0,High,10.0,0
544,544,True,Low,1.0,1.6230000000000002,right,right,30.0,bliss,5.0,2.1142917911929544,blanket,44.0,High,10.0,0
545,545,False,Low,1.0,0.9740000000000001,right,left,30.0,useful,3.0,1.9193298575410156,dignified,45.0,High,10.0,0
546,546,False,Low,2.0,2.623,right,left,30.0,sleep,3.0,2.178036101773614,security,46.0,High,10.0,0
547,547,True,Low,3.0,1.5230000000000001,left,left,30.0,elegant,3.0,2.15663636586396,gentle,47.0,High,10.0,0
548,548,False,Low,1.0,1.158,right,left,30.0,untroubled,4.0,1.9422354378330056,carefree,48.0,High,10.0,0
549,549,True,Low,3.0,1.057,left,left,30.0,cuddle,4.0,2.0991967760783155,peaceful,49.0,High,10.0,0
550,550,True,High,2.0,1.157,right,right,30.0,cancer,2.0,2.308389484358486,rape,0.0,Low,11.0,0
551,551,True,High,1.0,1.253,right,right,30.0,rejection,3.0,2.0380567357642576,terrified,1.0,Low,11.0,0
552,552,True,High,,,left,left,30.0,abuse,1.0,1.2230965857743286,ulcer,2.0,Low,11.0,0
553,553,True,High,3.0,0.68,left,left,30.0,punish,3.0,1.3425471931695938,loss,3.0,Low,11.0,0
554,554,True,High,2.0,1.7209999999999999,left,left,30.0,dead,3.0,1.8197946354339365,cruel,4.0,Low,11.0,0
555,555,False,High,1.0,1.02,right,left,30.0,poison,1.0,2.7140910333546344,bankrupt,5.0,Low,11.0,0
556,556,False,High,3.0,0.708,left,right,30.0,vomit,3.0,1.7499252531561071,prison,6.0,Low,11.0,0
557,557,False,High,1.0,1.986,right,left,30.0,aggravation,6.0,2.8756590875855186,kill,7.0,Low,11.0,0
558,558,False,High,4.0,0.972,right,left,30.0,pain,6.0,1.7465744767396243,thief,8.0,Low,11.0,0
559,559,True,High,4.0,0.9259999999999999,left,left,30.0,drown,4.0,1.5053804903582204,debt,9.0,Low,11.0,0
560,560,True,High,2.0,1.3559999999999999,right,right,30.0,dreadful,5.0,2.24651512838318,grieve,10.0,Low,11.0,0
561,561,False,High,1.0,1.0090000000000001,right,left,30.0,worry,3.0,1.4962482211412862,regretful,11.0,Low,11.0,0
562,562,True,High,3.0,1.188,left,left,30.0,choke,1.0,2.0713460336555727,roach,12.0,Low,11.0,0
563,563,False,High,2.0,1.053,left,right,30.0,harassment,2.0,2.7263418183138133,rage,13.0,Low,11.0,0
564,564,True,High,1.0,0.838,right,right,30.0,deserter,3.0,2.2417159311298747,disgusted,14.0,Low,11.0,0
565,565,True,High,2.0,1.305,left,left,30.0,remorse,1.0,2.390373631613329,harass,15.0,Low,11.0,0
566,566,True,High,3.0,1.625,left,left,30.0,threat,6.0,1.8396436146867927,sting,16.0,Low,11.0,0
567,567,False,High,5.0,1.074,left,right,30.0,burglar,5.0,1.894150433014147,tornado,17.0,Low,11.0,0
568,568,True,High,2.0,0.872,right,right,30.0,gunshot,2.0,2.1892924007261167,frightened,18.0,Low,11.0,0
569,569,True,High,2.0,0.826,left,left,30.0,distress,2.0,1.6305740943644196,fraud,19.0,Low,11.0,0
570,570,False,High,1.0,1.3230000000000002,left,right,30.0,malice,2.0,2.1882388871163134,deadly,20.0,Low,11.0,0
571,571,True,High,2.0,2.158,left,left,30.0,crisis,3.0,1.863339330186136,abduction,21.0,Low,11.0,0
572,572,,High,,,right,,30.0,anxiety,,,horror,22.0,Low,11.0,0
573,573,True,High,4.0,1.275,left,left,30.0,sin,5.0,-2.6885892028221856,stalk,23.0,Low,11.0,0
574,574,True,High,2.0,1.526,right,right,30.0,scalding,6.0,1.7399191193981096,unsafe,24.0,Low,11.0,0
575,575,False,High,1.0,2.3890000000000002,left,right,30.0,alarm,3.0,2.1440070345415734,jealous,25.0,Low,11.0,0
576,576,False,High,4.0,0.953,right,left,30.0,crime,6.0,2.8633595407009125,harsh,26.0,Low,11.0,0
577,577,False,High,2.0,2.075,right,left,30.0,annoy,6.0,1.8003870796528645,shoplifter,27.0,Low,11.0,0
578,578,,High,,,right,,30.0,defeat,,,uncomfortable,28.0,Low,11.0,0
579,579,True,High,3.0,1.805,right,right,30.0,embarrassed,2.0,2.464533419231884,unsure,29.0,Low,11.0,0
580,580,,High,,,left,,30.0,broken,,,damage,30.0,Low,11.0,0
581,581,True,High,4.0,1.3769999999999998,right,right,30.0,affair,3.0,1.2699599767511245,destruction,31.0,Low,11.0,0
582,582,True,High,1.0,0.973,left,left,30.0,fright,2.0,2.108552323421464,flood,32.0,Low,11.0,0
583,583,False,High,2.0,0.693,left,right,30.0,scary,1.0,1.273691545065958,fire,33.0,Low,11.0,0
584,584,False,High,,,left,right,30.0,flee,3.0,2.0743965394212864,spider,34.0,Low,11.0,0
585,585,True,High,2.0,0.879,right,right,30.0,foe,3.0,1.8235294117475858,pressure,35.0,Low,11.0,0
586,586,False,High,1.0,2.005,right,left,30.0,gun,3.0,1.8557533264101949,confusion,36.0,Low,11.0,0
587,587,True,High,2.0,1.254,right,right,30.0,offensive,3.0,2.5242561565246437,seize,37.0,Low,11.0,0
588,588,False,High,1.0,0.825,right,left,30.0,slut,1.0,1.6458946332277264,envious,38.0,Low,11.0,0
589,589,True,High,2.0,1.536,right,right,30.0,appall,6.0,2.78721591384965,thirsty,39.0,Low,11.0,0
590,590,False,High,3.0,1.443,left,right,30.0,blood,5.0,1.3780673478904646,arrogant,40.0,Low,11.0,0
591,591,True,High,3.0,2.523,right,right,30.0,suspicious,6.0,2.213766702538124,demand,41.0,Low,11.0,0
592,592,False,High,1.0,2.0869999999999997,right,left,30.0,slayer,3.0,2.6765097260649777,weapon,42.0,Low,11.0,0
593,593,True,High,5.0,1.758,left,left,30.0,rifle,3.0,1.9126571769011207,python,43.0,Low,11.0,0
594,594,True,High,2.0,1.3219999999999998,left,left,30.0,compulsive,6.0,2.2319613061554264,bribe,44.0,Low,11.0,0
595,595,True,High,6.0,1.389,left,left,30.0,beast,2.0,2.246306607092265,overwhelmed,45.0,Low,11.0,0
596,596,False,High,2.0,1.6680000000000001,left,right,30.0,weight,2.0,2.9962796597392303,nerves,46.0,Low,11.0,0
597,597,False,High,1.0,0.424,right,left,30.0,drill,1.0,1.839349760091864,shotgun,47.0,Low,11.0,0
598,598,True,High,3.0,1.06,right,right,30.0,swear,1.0,-3.021901790954871,startled,48.0,Low,11.0,0
599,599,True,High,4.0,1.5390000000000001,left,left,30.0,obsession,6.0,2.190135147451656,command,49.0,Low,11.0,0
0,0,1.0,High,7.0,1.4280000000000002,right,right,90.0,bolt,2.0,1.27559536069748,dragon,0.0,High,0.0,1
1,1,1.0,High,7.0,2.326,left,left,90.0,fuck,4.0,0.7516048128018156,body,1.0,High,0.0,1
2,2,1.0,High,7.0,2.11,left,left,90.0,zealous,1.0,0.7809248469711747,dare,2.0,High,0.0,1
3,3,1.0,High,7.0,1.177,right,right,90.0,lotion,3.0,1.0621230173564982,nudist,3.0,High,0.0,1
4,4,1.0,High,7.0,1.6440000000000001,right,right,90.0,alcohol,2.0,0.9867386803380214,night,4.0,High,0.0,1
5,5,1.0,High,,,right,right,90.0,rare,4.0,1.6137471424299292,drunk,5.0,High,0.0,1
6,6,1.0,High,3.0,1.291,left,left,90.0,chest,6.0,1.9336581134411968,spice,6.0,High,0.0,1
7,7,1.0,High,5.0,2.56,right,right,90.0,important,1.0,1.4922224724432454,duet,7.0,High,0.0,1
8,8,1.0,High,7.0,1.06,left,left,90.0,extreme,5.0,0.7913666364620441,boost,8.0,High,0.0,1
9,9,1.0,High,5.0,0.8759999999999999,right,right,90.0,sports,5.0,1.071620365284616,try,9.0,High,0.0,1
10,10,0.0,High,2.0,0.938,right,left,90.0,bikini,2.0,2.298610990837915,cheerleader,10.0,High,0.0,1
11,11,1.0,High,7.0,1.2429999999999999,left,left,90.0,astonished,5.0,1.3712960984848903,zoom,11.0,High,0.0,1
12,12,1.0,High,7.0,1.143,left,left,90.0,mountain,5.0,0.9731985835824162,interested,12.0,High,0.0,1
13,13,1.0,High,7.0,1.794,right,right,90.0,clothes,1.0,0.9647172161203345,mingle,13.0,High,0.0,1
14,14,1.0,High,3.0,1.2429999999999999,left,left,90.0,attain,2.0,1.52231499820482,brain,14.0,High,0.0,1
15,15,1.0,High,1.0,1.469,left,left,90.0,curiosity,6.0,2.9676625007414263,restaurant,15.0,High,0.0,1
16,16,1.0,High,4.0,1.426,right,right,90.0,zest,4.0,1.5709136381337885,sing,16.0,High,0.0,1
17,17,1.0,High,7.0,1.659,right,right,90.0,penthouse,2.0,1.7890751466329675,outgoing,17.0,High,0.0,1
18,18,1.0,High,7.0,0.894,right,right,90.0,perfect,5.0,1.0724717742414214,mail,18.0,High,0.0,1
19,19,1.0,High,7.0,1.411,left,left,90.0,firefighter,3.0,1.243575134751154,special,19.0,High,0.0,1
20,20,1.0,High,7.0,1.51,right,right,90.0,cartoon,2.0,1.299628254462732,climax,20.0,High,0.0,1
21,21,1.0,High,5.0,1.66,right,right,90.0,spirit,2.0,1.3663451587490272,game,21.0,High,0.0,1
22,22,1.0,High,4.0,1.287,left,left,90.0,doughnut,5.0,2.495833421562565,attract,22.0,High,0.0,1
23,23,1.0,High,1.0,1.4580000000000002,right,right,90.0,rhythm,6.0,1.8997788389970085,earn,23.0,High,0.0,1
24,24,1.0,High,7.0,1.16,left,left,90.0,model,3.0,1.389693781529786,explore,24.0,High,0.0,1
25,25,0.0,High,2.0,1.5030000000000001,left,right,90.0,charisma,2.0,2.7551657167787202,actor,25.0,High,0.0,1
26,26,1.0,High,1.0,0.872,right,right,90.0,midnight,2.0,2.3720268857723568,inspired,26.0,High,0.0,1
27,27,1.0,High,2.0,1.069,right,right,90.0,adore,3.0,2.9597601811401546,gourmet,27.0,High,0.0,1
28,28,,High,,,right,,90.0,energetic,,,energy,28.0,High,0.0,1
29,29,True,High,2.0,1.207,right,right,90.0,dazzle,3.0,1.9741815214219969,life,29.0,High,0.0,1
30,30,True,High,3.0,1.5219999999999998,left,left,90.0,impressed,4.0,2.4057393431139644,wonderful,30.0,High,0.0,1
31,31,,High,,,right,,90.0,best,,,brownie,31.0,High,0.0,1
32,32,False,High,4.0,1.943,right,left,90.0,stunning,5.0,-2.2909842402732465,festival,32.0,High,0.0,1
33,33,True,High,7.0,0.927,right,right,90.0,appreciative,5.0,1.3963776944729034,sister,33.0,High,0.0,1
34,34,False,High,3.0,2.041,left,right,90.0,personality,6.0,1.9950654211861547,eat,34.0,High,0.0,1
35,35,False,High,2.0,0.706,right,left,90.0,like,2.0,2.1703831596823875,bright,35.0,High,0.0,1
36,36,False,High,2.0,0.9059999999999999,left,right,90.0,puppy,1.0,2.1928672206122433,talent,36.0,High,0.0,1
37,37,True,High,6.0,1.56,left,left,90.0,magnificence,2.0,1.3306161390501074,cookie,37.0,High,0.0,1
38,38,True,High,6.0,1.66,left,left,90.0,cheeseburger,1.0,1.320669988897862,ambitious,38.0,High,0.0,1
39,39,True,High,2.0,1.088,right,right,90.0,cruiseship,6.0,2.4076840458146758,birth,39.0,High,0.0,1
40,40,True,High,7.0,1.227,right,right,90.0,satisfaction,3.0,1.2826751435350159,kissing,40.0,High,0.0,1
41,41,,High,,,left,,90.0,progress,,,pretty,41.0,High,0.0,1
42,42,True,High,2.0,0.722,left,left,90.0,accomplish,3.0,2.3562408531142864,justice,42.0,High,0.0,1
43,43,True,High,3.0,1.176,left,left,90.0,diamond,5.0,1.7943295651930384,smiling,43.0,High,0.0,1
44,44,True,High,6.0,1.089,left,left,90.0,diploma,5.0,2.438277985347668,engaged,44.0,High,0.0,1
45,45,True,High,7.0,0.9940000000000001,left,left,90.0,sex,5.0,0.886204737238586,giggle,45.0,High,0.0,1
46,46,True,High,7.0,0.96,left,left,90.0,god,6.0,1.0622798896220047,joke,46.0,High,0.0,1
47,47,False,High,3.0,1.423,left,right,90.0,enjoy,5.0,1.9840792304312345,enthusiastic,47.0,High,0.0,1
48,48,True,High,4.0,1.008,left,left,90.0,excellence,3.0,1.93183435316314,affection,48.0,High,0.0,1
49,49,True,High,1.0,1.006,right,right,90.0,funny,3.0,2.3109759892395227,ecstatic,49.0,High,0.0,1
50,50,True,Low,1.0,1.104,left,left,90.0,roof,3.0,2.7209085373615376,lamp,0.0,High,1.0,1
51,51,True,Low,7.0,0.86,left,left,90.0,greyhound,5.0,0.8286913260817528,herring,1.0,High,1.0,1
52,52,True,Low,7.0,1.27,right,right,90.0,propeller,3.0,2.647167990595335,lad,2.0,High,1.0,1
53,53,True,Low,7.0,1.093,left,left,90.0,pulpit,3.0,0.8552081910020206,ceiling,3.0,High,1.0,1
54,54,True,Low,7.0,0.91,right,right,90.0,introductory,6.0,1.1722977069730405,pan,4.0,High,1.0,1
55,55,True,Low,7.0,1.026,right,right,90.0,website,6.0,1.616938161518192,delicate,5.0,High,1.0,1
56,56,True,Low,7.0,1.577,right,right,90.0,flock,1.0,1.0646621664636768,cabin,6.0,High,1.0,1
57,57,True,Low,7.0,2.191,left,left,90.0,wear,1.0,1.8775440413155595,newspaper,7.0,High,1.0,1
58,58,True,Low,7.0,1.0270000000000001,left,left,90.0,bathroom,3.0,1.3122155687888153,native,8.0,High,1.0,1
59,59,True,Low,7.0,1.11,left,left,90.0,hair,3.0,1.194076644751476,brief,9.0,High,1.0,1
60,60,True,Low,7.0,0.877,left,left,90.0,cow,4.0,1.085685935948277,rock,10.0,High,1.0,1
61,61,True,Low,7.0,1.093,left,left,90.0,urinate,3.0,0.8408513319445774,verify,11.0,High,1.0,1
62,62,True,Low,7.0,1.41,right,right,90.0,fitting,2.0,1.2362800936680287,bedspread,12.0,High,1.0,1
63,63,True,Low,5.0,1.9240000000000002,right,right,90.0,fig,2.0,2.1231812923506372,lightbulb,13.0,High,1.0,1
64,64,True,Low,7.0,1.493,left,left,90.0,phone,1.0,1.006466729944805,jelly,14.0,High,1.0,1
65,65,True,Low,7.0,1.344,left,left,90.0,circle,2.0,0.8822736275615171,key,15.0,High,1.0,1
66,66,True,Low,7.0,1.51,right,right,90.0,clarinet,1.0,1.3231584512395784,oven,16.0,High,1.0,1
67,67,True,Low,6.0,1.0190000000000001,left,left,90.0,tolerant,2.0,2.9411777160712522,flute,17.0,High,1.0,1
68,68,True,Low,7.0,1.126,right,right,90.0,sympathetic,3.0,1.2366140486847144,mobile,18.0,High,1.0,1
69,69,False,Low,1.0,2.593,left,right,90.0,flow,2.0,1.3835545906040352,western,19.0,High,1.0,1
70,70,True,Low,7.0,1.227,right,right,90.0,consoled,2.0,1.369174633786315,stable,20.0,High,1.0,1
71,71,True,Low,7.0,0.775,left,left,90.0,patio,6.0,1.230131920252461,velvet,21.0,High,1.0,1
72,72,False,Low,4.0,0.887,left,right,90.0,poetry,4.0,2.3229996541922446,humble,22.0,High,1.0,1
73,73,True,Low,7.0,1.126,left,left,90.0,herbal,3.0,1.1117479034001008,horse,23.0,High,1.0,1
74,74,False,Low,3.0,1.3559999999999999,right,left,90.0,furniture,2.0,2.2784132868691813,proper,24.0,High,1.0,1
75,75,,Low,,,right,,90.0,patience,,,reflection,25.0,High,1.0,1
76,76,True,Low,5.0,1.327,left,left,90.0,camera,3.0,1.5226165522180963,shrimp,26.0,High,1.0,1
77,77,True,Low,7.0,1.46,right,right,90.0,candid,2.0,1.266182383726118,coin,27.0,High,1.0,1
78,78,True,Low,7.0,0.754,right,right,90.0,practical,6.0,2.5409786262316634,rational,28.0,High,1.0,1
79,79,True,Low,7.0,1.244,right,right,90.0,leaves,2.0,1.1721023384307043,doll,29.0,High,1.0,1
80,80,True,Low,7.0,1.392,right,right,90.0,open,1.0,1.6903912695415784,grass,30.0,High,1.0,1
81,81,False,Low,7.0,1.06,right,left,90.0,afternoon,4.0,1.5769976510782726,binoculars,31.0,High,1.0,1
82,82,False,Low,1.0,1.3769999999999998,right,left,90.0,hamburger,6.0,1.1589661316538695,rose,32.0,High,1.0,1
83,83,True,Low,1.0,1.252,left,left,90.0,familiar,3.0,2.8255041566153523,precise,33.0,High,1.0,1
84,84,True,Low,7.0,1.376,right,right,90.0,tree,4.0,1.7552234611357562,autumn,34.0,High,1.0,1
85,85,,Low,,,right,,90.0,dress,,,apple,35.0,High,1.0,1
86,86,False,Low,7.0,1.127,right,left,90.0,cottage,3.0,-2.3477479367575143,countryside,36.0,High,1.0,1
87,87,,Low,,,right,,90.0,favor,,,nourish,37.0,High,1.0,1
88,88,True,Low,7.0,1.994,left,left,90.0,nice,3.0,1.2715750680363271,cooperative,38.0,High,1.0,1
89,89,True,Low,4.0,1.138,left,left,90.0,responsible,1.0,2.497290184168378,crown,39.0,High,1.0,1
90,90,True,Low,7.0,1.2590000000000001,right,right,90.0,breathe,2.0,1.624574856919935,honey,40.0,High,1.0,1
91,91,True,Low,2.0,1.124,right,right,90.0,moon,3.0,1.9212722628726624,graceful,41.0,High,1.0,1
92,92,True,Low,5.0,1.026,left,left,90.0,leisurely,5.0,1.5794338227133269,caring,42.0,High,1.0,1
93,93,True,Low,7.0,0.893,left,left,90.0,serene,6.0,1.4248764751246201,silk,43.0,High,1.0,1
94,94,True,Low,7.0,0.8270000000000001,right,right,90.0,relaxed,5.0,1.185003718099324,haven,44.0,High,1.0,1
95,95,True,Low,7.0,1.3430000000000002,left,left,90.0,fluffy,2.0,1.2545340573415158,comfort,45.0,High,1.0,1
96,96,True,Low,3.0,1.788,left,left,90.0,bless,2.0,2.4414651547849644,protected,46.0,High,1.0,1
97,97,True,Low,7.0,1.0270000000000001,right,right,90.0,sunflower,3.0,1.3793485534843055,sky,47.0,High,1.0,1
98,98,False,Low,2.0,1.3090000000000002,left,right,90.0,kind,6.0,1.6260107674170283,nature,48.0,High,1.0,1
99,99,,Low,,,left,,90.0,peace,,,sunset,49.0,High,1.0,1
100,100,True,High,4.0,1.442,left,left,90.0,murderer,5.0,2.327038553368766,rejected,0.0,Low,2.0,1
101,101,True,High,7.0,0.96,left,left,90.0,terrorist,4.0,0.8019444460514933,syphilis,1.0,Low,2.0,1
102,102,True,High,7.0,1.043,right,right,90.0,fail,5.0,1.0276579581550322,rabies,2.0,Low,2.0,1
103,103,True,High,5.0,0.626,right,right,90.0,gunpoint,5.0,1.1281421769526787,hurt,3.0,Low,2.0,1
104,104,True,High,4.0,1.202,right,right,90.0,mutilation,3.0,2.8610432614514134,disloyal,4.0,Low,2.0,1
105,105,True,High,6.0,0.809,right,right,90.0,overweight,5.0,1.6278999713249505,afraid,5.0,Low,2.0,1
106,106,True,High,7.0,0.96,right,right,90.0,war,4.0,1.3238626119855326,assault,6.0,Low,2.0,1
107,107,True,High,7.0,1.527,left,left,90.0,demon,1.0,0.9169398297090084,trauma,7.0,Low,2.0,1
108,108,True,High,7.0,1.2930000000000001,left,left,90.0,murder,2.0,1.0926412475819234,troubled,8.0,Low,2.0,1
109,109,True,High,7.0,1.143,right,right,90.0,divorce,3.0,1.4110341827617958,crushed,9.0,Low,2.0,1
110,110,True,High,3.0,1.3030000000000002,right,right,90.0,poisonous,6.0,2.889951385615859,traffic,10.0,Low,2.0,1
111,111,False,High,2.0,2.127,right,left,90.0,crash,4.0,1.1258285517687912,whore,11.0,Low,2.0,1
112,112,True,High,4.0,1.494,left,left,90.0,anger,1.0,1.285741370578762,insecure,12.0,Low,2.0,1
113,113,True,High,3.0,0.69,left,left,90.0,robbery,3.0,2.0724685661843982,starving,13.0,Low,2.0,1
114,114,True,High,5.0,1.507,left,left,90.0,banish,1.0,2.0364633358549327,pollution,14.0,Low,2.0,1
115,115,True,High,2.0,0.9259999999999999,left,left,90.0,repulsed,4.0,1.6222009209450334,cult,15.0,Low,2.0,1
116,116,True,High,4.0,0.975,right,right,90.0,rude,5.0,1.7082108671311291,burdened,16.0,Low,2.0,1
117,117,True,High,7.0,1.324,right,right,90.0,jealousy,2.0,1.907304216059856,rash,17.0,Low,2.0,1
118,118,True,High,6.0,1.742,left,left,90.0,gang,3.0,1.6856661745696329,robber,18.0,Low,2.0,1
119,119,True,High,6.0,1.4409999999999998,left,left,90.0,frighten,6.0,1.9104788741969967,destroy,19.0,Low,2.0,1
120,120,True,High,6.0,0.509,left,left,90.0,burn,6.0,1.5251393404323608,creepy,20.0,Low,2.0,1
121,121,True,High,3.0,1.226,left,left,90.0,fear,6.0,1.493735054624267,criticism,21.0,Low,2.0,1
122,122,True,High,7.0,0.8759999999999999,left,left,90.0,expel,5.0,1.2836670638353098,scared,22.0,Low,2.0,1
123,123,True,High,6.0,1.026,right,right,90.0,communism,3.0,1.5573469148075674,scold,23.0,Low,2.0,1
124,124,True,High,4.0,1.6059999999999999,right,right,90.0,psycho,2.0,2.2505333335720934,paranoid,24.0,Low,2.0,1
125,125,True,High,7.0,0.96,left,left,90.0,scorn,6.0,1.0102794636040926,surgery,25.0,Low,2.0,1
126,126,True,High,3.0,0.905,right,right,90.0,difficult,1.0,2.3307646704488434,dent,26.0,Low,2.0,1
127,127,True,High,1.0,0.555,left,left,90.0,wicked,1.0,2.358421024604468,quarrel,27.0,Low,2.0,1
128,128,True,High,5.0,1.193,right,right,90.0,bitch,1.0,1.5528229627525434,bothered,28.0,Low,2.0,1
129,129,True,High,3.0,1.3719999999999999,right,right,90.0,detain,4.0,2.3616697880497672,trouble,29.0,Low,2.0,1
130,130,True,High,1.0,0.82,left,left,90.0,hazard,3.0,2.6802805479092062,sever,30.0,Low,2.0,1
131,131,,High,,,left,,90.0,irritate,,,forbid,31.0,Low,2.0,1
132,132,True,High,1.0,2.793,right,right,90.0,rattlesnake,6.0,-2.4120848098245915,disruptive,32.0,Low,2.0,1
133,133,True,High,7.0,0.977,right,right,90.0,mob,4.0,1.2405749929603191,nuclear,33.0,Low,2.0,1
134,134,,High,,,right,,90.0,avalanche,,,pushy,34.0,Low,2.0,1
135,135,True,High,7.0,1.46,left,left,90.0,bastard,1.0,1.0981840672902763,dagger,35.0,Low,2.0,1
136,136,True,High,5.0,0.977,right,right,90.0,frantic,2.0,1.3933271867572328,emergency,36.0,Low,2.0,1
137,137,True,High,7.0,0.86,left,left,90.0,gossip,5.0,0.9911583716748282,haunt,37.0,Low,2.0,1
138,138,False,High,1.0,0.9690000000000001,left,right,90.0,spanking,3.0,2.8897874557587784,anarchy,38.0,Low,2.0,1
139,139,,High,,,right,,90.0,obsessed,,,scare,39.0,Low,2.0,1
140,140,False,High,1.0,0.789,right,left,90.0,shark,3.0,2.3883964575652503,officer,40.0,Low,2.0,1
141,141,False,High,1.0,0.6859999999999999,right,left,90.0,forceful,1.0,2.7074037288548425,fight,41.0,Low,2.0,1
142,142,True,High,7.0,1.46,right,right,90.0,tangle,1.0,1.3542101754574103,mangle,42.0,Low,2.0,1
143,143,True,High,2.0,2.0069999999999997,left,left,90.0,baffle,3.0,1.964133997797035,shock,43.0,Low,2.0,1
144,144,True,High,2.0,1.01,left,left,90.0,revolt,5.0,1.5906160235463176,battle,44.0,Low,2.0,1
145,145,True,High,7.0,1.16,right,right,90.0,police,2.0,1.3371085331600625,chaos,45.0,Low,2.0,1
146,146,True,High,7.0,1.193,left,left,90.0,vampire,3.0,1.146132441266673,pang,46.0,Low,2.0,1
147,147,True,High,7.0,1.276,left,left,90.0,reckless,3.0,1.3459299509122502,emotional,47.0,Low,2.0,1
148,148,True,High,7.0,0.81,left,left,90.0,lava,6.0,0.8530466260272078,clench,48.0,Low,2.0,1
149,149,True,High,7.0,0.91,right,right,90.0,speech,6.0,1.0647022667399142,lightning,49.0,Low,2.0,1
150,150,True,Low,7.0,1.3119999999999998,left,left,30.0,vegetable,2.0,1.1089928544533905,mane,0.0,High,3.0,1
151,151,False,Low,2.0,1.3730000000000002,right,left,30.0,carrot,6.0,1.2000868732284289,easel,1.0,High,3.0,1
152,152,True,Low,1.0,0.86,right,right,30.0,cup,3.0,1.508755974151427,coat,2.0,High,3.0,1
153,153,True,Low,1.0,1.093,left,left,30.0,chew,4.0,1.4385593288461678,suburban,3.0,High,3.0,1
154,154,True,Low,7.0,1.31,left,left,30.0,chess,1.0,0.8715264344064053,hat,4.0,High,3.0,1
155,155,True,Low,1.0,0.792,left,left,30.0,sensitive,2.0,1.7843166881939396,cattle,5.0,High,3.0,1
156,156,True,Low,2.0,0.86,left,left,30.0,outlet,3.0,1.4040551317739298,refine,6.0,High,3.0,1
157,157,False,Low,1.0,1.06,right,left,30.0,telescope,5.0,1.5515506614174228,farm,7.0,High,3.0,1
158,158,True,Low,3.0,0.843,right,right,30.0,beads,2.0,1.4877732672903219,tend,8.0,High,3.0,1
159,159,True,Low,3.0,1.2429999999999999,left,left,30.0,number,6.0,1.2719914692279417,method,9.0,High,3.0,1
160,160,True,Low,4.0,0.843,right,right,30.0,quiet,5.0,1.4589636293821968,read,10.0,High,3.0,1
161,161,True,Low,2.0,0.841,right,right,30.0,dew,3.0,1.8549605317239184,windmill,11.0,High,3.0,1
162,162,True,Low,1.0,1.442,left,left,30.0,golfer,6.0,1.862630269723013,straighten,12.0,High,3.0,1
163,163,True,Low,2.0,1.088,left,left,30.0,candle,5.0,2.412243286089506,scarf,13.0,High,3.0,1
164,164,True,Low,3.0,0.672,right,right,30.0,land,3.0,2.2740670591883827,send,14.0,High,3.0,1
165,165,False,Low,4.0,0.841,right,left,30.0,teacher,5.0,1.9402849236212203,pecan,15.0,High,3.0,1
166,166,True,Low,7.0,1.227,left,left,30.0,rink,2.0,1.2796968162874691,leg,16.0,High,3.0,1
167,167,True,Low,1.0,1.193,left,left,30.0,cat,6.0,1.308063426433364,den,17.0,High,3.0,1
168,168,True,Low,7.0,1.0759999999999998,right,right,30.0,harvest,3.0,1.6706295357435008,gender,18.0,High,3.0,1
169,169,True,Low,2.0,1.141,right,right,30.0,sheltered,6.0,1.8726887006196196,modest,19.0,High,3.0,1
170,170,True,Low,7.0,1.06,left,left,30.0,cinnamon,3.0,1.2967615663656034,owl,20.0,High,3.0,1
171,171,True,Low,3.0,0.76,right,right,30.0,crackers,5.0,1.4099152248236348,slogan,21.0,High,3.0,1
172,172,False,Low,2.0,1.125,left,right,30.0,piano,5.0,1.8652695091150235,lamb,22.0,High,3.0,1
173,173,True,Low,6.0,1.1440000000000001,left,left,30.0,groceries,4.0,1.3217093879065942,window,23.0,High,3.0,1
174,174,True,Low,2.0,0.977,right,right,30.0,inform,5.0,1.4501547228719571,town,24.0,High,3.0,1
175,175,True,Low,7.0,1.3259999999999998,right,right,30.0,listen,1.0,1.1087326839042362,porpoise,25.0,High,3.0,1
176,176,True,Low,1.0,0.92,left,left,30.0,prefer,2.0,2.627702357189264,corn,26.0,High,3.0,1
177,177,True,Low,7.0,0.96,left,left,30.0,vegetables,6.0,0.9498326375032776,orchestra,27.0,High,3.0,1
178,178,False,Low,3.0,1.177,left,right,30.0,relate,5.0,1.525984333304223,buffalo,28.0,High,3.0,1
179,179,True,Low,7.0,1.3430000000000002,left,left,30.0,adorn,1.0,1.1620519276184496,pancakes,29.0,High,3.0,1
180,180,True,Low,7.0,1.2770000000000001,right,right,30.0,logical,2.0,1.308677762572188,pond,30.0,High,3.0,1
181,181,False,Low,2.0,0.99,right,left,30.0,dawn,3.0,2.0581726595701184,green,31.0,High,3.0,1
182,182,False,Low,1.0,1.258,right,left,30.0,moral,2.0,1.8826685350213663,soup,32.0,High,3.0,1
183,183,True,Low,1.0,1.139,left,left,30.0,tidy,5.0,2.264105831331108,crystal,33.0,High,3.0,1
184,184,True,Low,1.0,0.975,right,right,30.0,violinist,4.0,1.7121413351560475,person,34.0,High,3.0,1
185,185,True,Low,1.0,1.193,left,left,30.0,polite,6.0,1.356428843195317,tenderness,35.0,High,3.0,1
186,186,True,Low,3.0,0.9420000000000001,right,right,30.0,sheep,1.0,1.8528204605099745,oxygen,36.0,High,3.0,1
187,187,True,Low,2.0,0.9740000000000001,left,left,30.0,saint,3.0,1.9724783827259669,clearer,37.0,High,3.0,1
188,188,False,Low,4.0,1.61,right,left,30.0,innocent,5.0,0.9795180653163698,pear,38.0,High,3.0,1
189,189,False,Low,1.0,0.9890000000000001,left,right,30.0,lounge,5.0,2.276093245629454,nestle,39.0,High,3.0,1
190,190,False,Low,1.0,0.9059999999999999,right,left,30.0,cuisine,4.0,2.112813928979449,bathtub,40.0,High,3.0,1
191,191,True,Low,1.0,1.173,right,right,30.0,able,6.0,2.153176294261357,lake,41.0,High,3.0,1
192,192,True,Low,1.0,0.743,right,right,30.0,girl,1.0,1.192874919885071,breeze,42.0,High,3.0,1
193,193,True,Low,3.0,0.96,right,right,30.0,donate,4.0,1.4906463714141864,nectar,43.0,High,3.0,1
194,194,True,Low,1.0,0.857,left,left,30.0,assure,4.0,1.9587942458456384,grace,44.0,High,3.0,1
195,195,True,Low,7.0,1.244,right,right,30.0,safe,1.0,1.3583533353521489,butterfly,45.0,High,3.0,1
196,196,False,Low,2.0,0.9420000000000001,left,right,30.0,bird,5.0,1.8562530436029192,politeness,46.0,High,3.0,1
197,197,True,Low,2.0,0.8079999999999999,left,left,30.0,grateful,2.0,1.7907250321295578,cozy,47.0,High,3.0,1
198,198,False,Low,1.0,0.9059999999999999,right,left,30.0,refreshment,3.0,2.0850372740242165,wise,48.0,High,3.0,1
199,199,True,Low,3.0,0.826,left,left,30.0,relax,4.0,1.3331386064237452,kindness,49.0,High,3.0,1
200,200,True,High,3.0,0.993,right,right,30.0,vodka,5.0,1.412221792357741,intense,0.0,High,4.0,1
201,201,True,High,6.0,1.2930000000000001,left,left,30.0,alien,2.0,0.8888025931082666,react,1.0,High,4.0,1
202,202,True,High,1.0,1.177,left,left,30.0,motorcycle,5.0,1.3561247227480635,hire,2.0,High,4.0,1
203,203,False,High,1.0,1.09,left,right,30.0,conquest,5.0,2.012504226557212,teach,3.0,High,4.0,1
204,204,True,High,7.0,1.143,right,right,30.0,race,2.0,1.2719526521686928,freeway,4.0,High,4.0,1
205,205,True,High,1.0,0.809,right,right,30.0,ignite,4.0,1.6557253882056102,curious,5.0,High,4.0,1
206,206,True,High,7.0,1.2770000000000001,left,left,30.0,voyage,2.0,1.020248390705092,gym,6.0,High,4.0,1
207,207,True,High,7.0,1.376,left,left,30.0,sandwich,1.0,0.9250660692050588,reveal,7.0,High,4.0,1
208,208,True,High,7.0,0.76,left,left,30.0,naked,5.0,0.9439840933482628,engage,8.0,High,4.0,1
209,209,True,High,7.0,0.893,left,left,30.0,new,4.0,1.5882491452211982,teenager,9.0,High,4.0,1
210,210,True,High,1.0,0.8079999999999999,left,left,30.0,animal,3.0,1.8555633189680516,reunion,10.0,High,4.0,1
211,211,False,High,2.0,1.69,right,left,30.0,limousine,5.0,2.1304054362117317,band,11.0,High,4.0,1
212,212,False,High,5.0,0.81,right,left,30.0,royalty,3.0,1.2058058133115992,jaguar,12.0,High,4.0,1
213,213,True,High,1.0,0.843,left,left,30.0,bridesmaid,2.0,1.6710886036453303,gem,13.0,High,4.0,1
214,214,False,High,1.0,1.29,left,right,30.0,raise,6.0,2.1137567665136885,marry,14.0,High,4.0,1
215,215,True,High,7.0,1.043,right,right,30.0,sizzle,3.0,1.2149095369968563,sexual,15.0,High,4.0,1
216,216,False,High,7.0,0.693,right,left,30.0,unite,5.0,1.0404845909215508,carnival,16.0,High,4.0,1
217,217,,High,,,left,,30.0,powerful,,,casino,17.0,High,4.0,1
218,218,True,High,2.0,1.11,right,right,30.0,mate,1.0,-2.6895138756372035,conquer,18.0,High,4.0,1
219,219,False,High,2.0,1.11,right,left,30.0,aid,6.0,1.374839037511265,stereo,19.0,High,4.0,1
220,220,True,High,1.0,1.093,left,left,30.0,imaginative,5.0,1.6462055841402616,entertainment,20.0,High,4.0,1
221,221,False,High,1.0,1.155,right,left,30.0,imagination,6.0,2.386176185827935,self,21.0,High,4.0,1
222,222,False,High,1.0,0.774,right,left,30.0,potential,1.0,1.8762820056290368,prince,22.0,High,4.0,1
223,223,True,High,2.0,1.226,left,left,30.0,favorite,3.0,1.5797636072966268,hope,23.0,High,4.0,1
224,224,True,High,2.0,0.975,left,left,30.0,honeymoon,1.0,1.78885539714247,snow,24.0,High,4.0,1
225,225,True,High,1.0,1.3219999999999998,left,left,30.0,dancing,5.0,2.477804981812369,playground,25.0,High,4.0,1
226,226,True,High,1.0,1.258,right,right,30.0,champ,1.0,1.839060614263872,rich,26.0,High,4.0,1
227,227,True,High,6.0,0.927,left,left,30.0,glamorous,6.0,1.4409047134104185,frosting,27.0,High,4.0,1
228,228,True,High,7.0,0.943,left,left,30.0,supper,4.0,1.370668288640445,alive,28.0,High,4.0,1
229,229,True,High,7.0,1.11,right,right,30.0,star,3.0,1.1118803946883418,fly,29.0,High,4.0,1
230,230,False,High,2.0,0.792,right,left,30.0,embrace,5.0,1.6914268189284485,great,30.0,High,4.0,1
231,231,False,High,2.0,0.66,right,left,30.0,fascinate,2.0,1.2996388409519568,treat,31.0,High,4.0,1
232,232,False,High,1.0,1.008,right,left,30.0,genius,5.0,1.8730428662383931,silly,32.0,High,4.0,1
233,233,False,High,7.0,1.51,left,right,30.0,prosperous,1.0,1.5877217464731077,congratulate,33.0,High,4.0,1
234,234,False,High,1.0,1.024,left,right,30.0,dollar,4.0,1.942119911982445,surprised,34.0,High,4.0,1
235,235,True,High,1.0,0.992,right,right,30.0,flirt,4.0,1.647615509631578,applause,35.0,High,4.0,1
236,236,True,High,1.0,0.792,right,right,30.0,holiday,3.0,1.5811571718659252,dog,36.0,High,4.0,1
237,237,True,High,1.0,0.9259999999999999,right,right,30.0,excite,5.0,1.6260592085309329,money,37.0,High,4.0,1
238,238,True,High,1.0,1.125,right,right,30.0,profit,6.0,1.8462671140150635,blessings,38.0,High,4.0,1
239,239,True,High,1.0,0.91,left,left,30.0,generosity,4.0,1.449622191285016,thoughtful,39.0,High,4.0,1
240,240,True,High,1.0,1.092,right,right,30.0,rescue,6.0,1.7319274499604944,riches,40.0,High,4.0,1
241,241,False,High,1.0,0.643,right,left,30.0,compassion,1.0,1.4450623094162438,surprise,41.0,High,4.0,1
242,242,True,High,1.0,1.227,left,left,30.0,christmas,6.0,1.430289369949605,pleased,42.0,High,4.0,1
243,243,True,High,1.0,0.522,left,left,30.0,weekend,1.0,2.1706057963892817,party,43.0,High,4.0,1
244,244,False,High,6.0,1.2429999999999999,left,right,30.0,aroused,5.0,1.6282762722403277,celebration,44.0,High,4.0,1
245,245,False,High,1.0,0.807,right,left,30.0,laughing,2.0,2.0042621774773584,me,45.0,High,4.0,1
246,246,True,High,7.0,1.3230000000000002,left,left,30.0,congratulations,1.0,1.9981239489570728,smile,46.0,High,4.0,1
247,247,False,High,1.0,0.509,right,left,30.0,happy,1.0,1.6111226599605288,cure,47.0,High,4.0,1
248,248,True,High,1.0,0.66,left,left,30.0,victory,1.0,1.272912813030416,comedy,48.0,High,4.0,1
249,249,False,High,1.0,1.242,right,left,30.0,laughter,1.0,1.315560572897084,loved,49.0,High,4.0,1
250,250,False,Low,2.0,1.024,right,left,90.0,loneliness,4.0,2.1026265356049407,sad,0.0,Low,5.0,1
251,251,True,Low,3.0,0.858,right,right,90.0,worthless,3.0,1.7081418946327176,lonely,1.0,Low,5.0,1
252,252,True,Low,7.0,1.143,left,left,90.0,rotten,2.0,1.1780593137664257,sorrow,2.0,Low,5.0,1
253,253,True,Low,7.0,1.209,right,right,90.0,deformed,4.0,1.1943300784914754,disappointment,3.0,Low,5.0,1
254,254,True,Low,7.0,1.3430000000000002,left,left,90.0,disability,1.0,1.3640838243300095,worse,4.0,Low,5.0,1
255,255,True,Low,7.0,0.8420000000000001,right,right,90.0,sewage,5.0,1.7311017051979434,sunburn,5.0,Low,5.0,1
256,256,False,Low,7.0,1.173,left,right,90.0,coward,2.0,2.0362859322631266,stinky,6.0,Low,5.0,1
257,257,True,Low,4.0,0.875,right,right,90.0,alienation,3.0,1.7970541379181668,fever,7.0,Low,5.0,1
258,258,True,Low,7.0,0.775,right,right,90.0,mope,5.0,1.8068873657030051,negligent,8.0,Low,5.0,1
259,259,True,Low,7.0,1.273,right,right,90.0,mucous,1.0,2.083684130513575,bored,9.0,Low,5.0,1
260,260,True,Low,7.0,0.843,left,left,90.0,stink,6.0,1.486619662726298,despair,10.0,Low,5.0,1
261,261,True,Low,3.0,1.643,left,left,90.0,weakness,2.0,1.3328569421428256,pathetic,11.0,Low,5.0,1
262,262,True,Low,7.0,1.227,right,right,90.0,complain,2.0,1.2642396058654413,manure,12.0,Low,5.0,1
263,263,True,Low,7.0,0.96,left,left,90.0,messy,6.0,1.0866419264057186,expire,13.0,Low,5.0,1
264,264,True,Low,7.0,1.577,left,left,90.0,tax,2.0,0.7206178906199057,mildew,14.0,Low,5.0,1
265,265,True,Low,7.0,1.56,left,left,90.0,moody,1.0,1.2902204103302208,detach,15.0,Low,5.0,1
266,266,True,Low,1.0,0.502,right,right,90.0,urine,1.0,2.858719370618928,handicapped,16.0,Low,5.0,1
267,267,False,Low,1.0,1.405,right,left,90.0,handicap,6.0,2.3899555560492445,dismissive,17.0,Low,5.0,1
268,268,False,Low,1.0,0.423,left,right,90.0,bitter,1.0,2.1745340188208497,tarnish,18.0,Low,5.0,1
269,269,False,Low,1.0,1.088,left,right,90.0,pity,6.0,2.5022709584736735,dummy,19.0,Low,5.0,1
270,270,True,Low,7.0,1.26,left,left,90.0,stain,1.0,0.9947359573852737,crutch,20.0,Low,5.0,1
271,271,False,Low,4.0,0.976,left,right,90.0,cancel,2.0,1.5748178003996145,doubt,21.0,Low,5.0,1
272,272,True,Low,1.0,0.604,left,left,90.0,blubber,1.0,2.695339642872568,uninteresting,22.0,Low,5.0,1
273,273,True,Low,7.0,0.993,right,right,90.0,dull,3.0,1.6461962808680255,forgot,23.0,Low,5.0,1
274,274,True,Low,7.0,1.393,left,left,90.0,mold,2.0,0.9419752302346752,greedy,24.0,Low,5.0,1
275,275,True,Low,4.0,0.924,left,left,90.0,damp,4.0,1.8820936575357337,lame,25.0,Low,5.0,1
276,276,True,Low,2.0,0.8590000000000001,right,right,90.0,ail,4.0,1.625340932485415,refuse,26.0,Low,5.0,1
277,277,True,Low,1.0,0.907,left,left,90.0,false,4.0,2.1375028631591704,void,27.0,Low,5.0,1
278,278,True,Low,2.0,0.643,right,right,90.0,cynical,2.0,1.4073051784653217,resent,28.0,Low,5.0,1
279,279,True,Low,3.0,1.473,right,right,90.0,numb,6.0,2.1555945009167767,separate,29.0,Low,5.0,1
280,280,True,Low,3.0,1.058,right,right,90.0,pinch,6.0,1.8175116916536356,leave,30.0,Low,5.0,1
281,281,True,Low,3.0,0.8059999999999999,right,right,90.0,timid,1.0,2.2026879371260293,fool,31.0,Low,5.0,1
282,282,True,Low,2.0,1.857,left,left,90.0,slow,6.0,2.016976850281935,pungent,32.0,Low,5.0,1
283,283,True,Low,3.0,0.8590000000000001,left,left,90.0,crap,3.0,1.625395468872739,sludge,33.0,Low,5.0,1
284,284,True,Low,3.0,0.726,left,left,90.0,cane,3.0,1.2734376453736331,lower,34.0,Low,5.0,1
285,285,True,Low,7.0,0.777,left,left,90.0,slouch,5.0,0.8738673277839553,blues,35.0,Low,5.0,1
286,286,False,Low,3.0,0.8590000000000001,right,left,90.0,smug,6.0,1.7141877321409993,habit,36.0,Low,5.0,1
287,287,True,Low,5.0,1.2770000000000001,right,right,90.0,witch,3.0,1.2512099053419659,stagnant,37.0,Low,5.0,1
288,288,False,Low,1.0,0.992,right,left,90.0,omit,2.0,1.8751579148811288,small,38.0,Low,5.0,1
289,289,True,Low,7.0,0.76,left,left,90.0,absurd,5.0,0.9760270962433424,vacant,39.0,Low,5.0,1
290,290,True,Low,4.0,1.675,left,left,90.0,loose,6.0,1.855423449218506,apathy,40.0,Low,5.0,1
291,291,False,Low,1.0,0.977,right,left,90.0,coal,5.0,1.3923583642463202,cellar,41.0,Low,5.0,1
292,292,False,Low,4.0,0.759,right,left,90.0,shadow,3.0,1.6741843444760889,label,42.0,Low,5.0,1
293,293,True,Low,1.0,0.608,left,left,90.0,stupor,1.0,1.8383894961734768,average,43.0,Low,5.0,1
294,294,True,Low,7.0,1.31,left,left,90.0,therapy,1.0,1.1393102625152096,obscure,44.0,Low,5.0,1
295,295,False,Low,1.0,0.723,right,left,90.0,marrow,3.0,2.072576355712954,paragraph,45.0,Low,5.0,1
296,296,False,Low,1.0,1.2429999999999999,right,left,90.0,fur,5.0,1.6217967102420516,bus,46.0,Low,5.0,1
297,297,True,Low,7.0,0.993,right,right,90.0,dissolve,3.0,1.2534940167097377,anus,47.0,Low,5.0,1
298,298,False,Low,2.0,0.992,right,left,90.0,errand,6.0,1.8800257668481208,stool,48.0,Low,5.0,1
299,299,True,Low,2.0,2.127,left,left,90.0,moss,6.0,1.3651383010146674,feet,49.0,Low,5.0,1
300,300,True,High,5.0,1.013,right,right,60.0,erupt,1.0,1.2680937230179552,preach,0.0,High,6.0,1
301,301,True,High,7.0,0.777,left,left,60.0,gorilla,4.0,0.9037211767281406,meteor,1.0,High,6.0,1
302,302,True,High,4.0,0.893,right,right,60.0,infatuated,1.0,1.250624120613793,mercy,2.0,High,6.0,1
303,303,True,High,7.0,1.3769999999999998,left,left,60.0,seal,1.0,0.7941139861359261,soldier,3.0,High,6.0,1
304,304,True,High,3.0,1.16,right,right,60.0,crush,6.0,1.3293781635002233,crazy,4.0,High,6.0,1
305,305,True,High,3.0,0.8590000000000001,left,left,60.0,outspoken,3.0,1.5712745405617168,ass,5.0,High,6.0,1
306,306,False,High,4.0,0.5429999999999999,left,right,60.0,comet,4.0,1.5564967890968546,galaxy,6.0,High,6.0,1
307,307,True,High,7.0,1.21,right,right,60.0,cockpit,2.0,1.2103955298080111,erect,7.0,High,6.0,1
308,308,True,High,1.0,0.573,right,right,60.0,children,1.0,1.9775416032352948,wild,8.0,High,6.0,1
309,309,True,High,7.0,1.294,right,right,60.0,thin,1.0,1.2067772022564895,husband,9.0,High,6.0,1
310,310,True,High,2.0,0.693,left,left,60.0,elephant,2.0,1.5427423965011258,control,10.0,High,6.0,1
311,311,True,High,7.0,0.81,left,left,60.0,surfer,5.0,1.2459339930210265,windsurfers,11.0,High,6.0,1
312,312,True,High,7.0,0.927,right,right,60.0,athletics,4.0,1.4047474228427743,belief,12.0,High,6.0,1
313,313,True,High,5.0,1.31,left,left,60.0,fair,4.0,1.2828657000209205,answer,13.0,High,6.0,1
314,314,True,High,7.0,1.3769999999999998,left,left,60.0,revive,1.0,0.8671846979705151,thong,14.0,High,6.0,1
315,315,True,High,4.0,1.088,right,right,60.0,invent,3.0,2.380634328525048,salary,15.0,High,6.0,1
316,316,True,High,1.0,0.856,right,right,60.0,juice,4.0,2.0697350109985564,vigorous,16.0,High,6.0,1
317,317,True,High,2.0,2.057,left,left,60.0,bravery,4.0,1.8812400029855783,bold,17.0,High,6.0,1
318,318,True,High,3.0,0.91,left,left,60.0,charming,5.0,1.5182542844559066,tickle,18.0,High,6.0,1
319,319,False,High,1.0,0.5429999999999999,right,left,60.0,extravagant,1.0,1.5818286107969468,know,19.0,High,6.0,1
320,320,True,High,1.0,0.893,right,right,60.0,toddler,4.0,1.4412267987790983,reef,20.0,High,6.0,1
321,321,False,High,1.0,0.8909999999999999,right,left,60.0,applaud,4.0,1.6902286228723824,sparkle,21.0,High,6.0,1
322,322,False,High,5.0,1.042,right,left,60.0,confidence,5.0,1.7190642457571812,waterskiing,22.0,High,6.0,1
323,323,True,High,1.0,0.541,left,left,60.0,fashion,1.0,1.8599506093014495,worthwhile,23.0,High,6.0,1
324,324,False,High,3.0,0.718,left,right,60.0,strengthen,3.0,2.9556272869231184,song,24.0,High,6.0,1
325,325,True,High,1.0,0.774,left,left,60.0,strong,2.0,1.9098324578662869,brilliant,25.0,High,6.0,1
326,326,True,High,1.0,0.843,left,left,60.0,prize,3.0,1.4217124034476,pastry,26.0,High,6.0,1
327,327,True,High,7.0,0.743,right,right,60.0,cupcake,5.0,1.4565929014352152,musician,27.0,High,6.0,1
328,328,False,High,1.0,0.643,right,left,60.0,king,2.0,1.4268763558065984,suite,28.0,High,6.0,1
329,329,True,High,2.0,1.159,right,right,60.0,bargain,5.0,1.623794345272472,heaven,29.0,High,6.0,1
330,330,True,High,4.0,0.593,left,left,60.0,eager,4.0,1.614128576242365,cookout,30.0,High,6.0,1
331,331,False,High,4.0,0.6940000000000001,right,left,60.0,summer,5.0,1.4531410701747518,cherish,31.0,High,6.0,1
332,332,True,High,2.0,1.29,left,left,60.0,prosper,4.0,1.982767470413819,luck,32.0,High,6.0,1
333,333,True,High,6.0,0.47600000000000003,left,left,60.0,exhilaration,6.0,1.4895296591275835,elated,33.0,High,6.0,1
334,334,True,High,7.0,1.24,right,right,60.0,delight,1.0,2.019668380380608,redeem,34.0,High,6.0,1
335,335,True,High,2.0,1.54,left,left,60.0,cheery,2.0,2.059191527223448,gold,35.0,High,6.0,1
336,336,True,High,5.0,0.759,left,left,60.0,amaze,3.0,1.7568114318419248,superstar,36.0,High,6.0,1
337,337,False,High,5.0,1.092,left,right,60.0,beautiful,1.0,1.8223047966894228,optimistic,37.0,High,6.0,1
338,338,False,High,2.0,2.3080000000000003,right,left,60.0,tasty,3.0,1.917440601857379,sunshine,38.0,High,6.0,1
339,339,True,High,1.0,1.541,right,right,60.0,concert,2.0,1.929939695604844,compassionate,39.0,High,6.0,1
340,340,False,High,1.0,0.5710000000000001,right,left,60.0,enthusiasm,1.0,2.4182689130539075,giggles,40.0,High,6.0,1
341,341,False,High,1.0,0.727,right,left,60.0,fantastic,3.0,1.4215577768045478,car,41.0,High,6.0,1
342,342,True,High,1.0,0.825,left,left,60.0,triumph,2.0,1.7513221860863268,birthday,42.0,High,6.0,1
343,343,False,High,1.0,1.043,right,left,60.0,succeed,5.0,1.5938590125588237,fame,43.0,High,6.0,1
344,344,,High,,,right,,60.0,confident,,,sexy,44.0,High,6.0,1
345,345,True,High,7.0,0.71,right,right,60.0,passion,6.0,1.3581804229761474,beach,45.0,High,6.0,1
346,346,True,High,2.0,1.7209999999999999,left,left,60.0,complete,5.0,2.6152654990728483,awesome,46.0,High,6.0,1
347,347,False,High,1.0,0.81,left,right,60.0,graduate,2.0,1.378779129619943,pleasure,47.0,High,6.0,1
348,348,False,High,1.0,0.491,left,right,60.0,win,1.0,1.9215799121302557,success,48.0,High,6.0,1
349,349,,High,,,left,,60.0,award,,,champion,49.0,High,6.0,1
350,350,True,Low,5.0,0.795,right,right,30.0,death,3.0,1.3018754736112896,depression,0.0,Low,7.0,1
351,351,False,Low,3.0,0.8540000000000001,right,left,30.0,discomfort,4.0,2.0897168150986545,sick,1.0,Low,7.0,1
352,352,False,Low,4.0,0.47700000000000004,left,right,30.0,cry,4.0,1.2592604355304502,hopeless,2.0,Low,7.0,1
353,353,True,Low,1.0,0.777,left,left,30.0,widow,2.0,1.4597082111868076,malaria,3.0,Low,7.0,1
354,354,True,Low,6.0,1.06,right,right,30.0,misfortune,5.0,1.3711081084038597,disgrace,4.0,Low,7.0,1
355,355,False,Low,1.0,0.693,right,left,30.0,weak,1.0,1.19983632673393,casket,5.0,Low,7.0,1
356,356,False,Low,1.0,1.041,left,right,30.0,stinks,3.0,1.9696546821505765,wasteful,6.0,Low,7.0,1
357,357,False,Low,1.0,1.0390000000000001,right,left,30.0,unpleasant,3.0,2.244556789373746,pessimistic,7.0,Low,7.0,1
358,358,,Low,,,left,,30.0,blister,,,impotent,8.0,Low,7.0,1
359,359,True,Low,7.0,1.0270000000000001,right,right,30.0,whine,4.0,1.2955880720401185,cowardice,9.0,Low,7.0,1
360,360,True,Low,6.0,1.057,right,right,30.0,dandruff,3.0,2.062178836960811,dumb,10.0,Low,7.0,1
361,361,True,Low,2.0,1.1079999999999999,left,left,30.0,fatigue,3.0,1.6981530777993612,dreary,11.0,Low,7.0,1
362,362,True,Low,5.0,0.976,left,left,30.0,incompetent,2.0,1.5759390039602297,ignorance,12.0,Low,7.0,1
363,363,False,Low,2.0,0.81,left,right,30.0,vulnerable,3.0,1.4273424813291058,slob,13.0,Low,7.0,1
364,364,True,Low,4.0,0.727,left,left,30.0,gloomy,5.0,1.2343620175379328,pale,14.0,Low,7.0,1
365,365,True,Low,2.0,0.757,right,right,30.0,impair,4.0,2.142368148692185,lack,15.0,Low,7.0,1
366,366,True,Low,3.0,0.904,right,right,30.0,feeble,6.0,2.5363523382984567,unpopular,16.0,Low,7.0,1
367,367,True,Low,2.0,1.206,right,right,30.0,wither,4.0,2.287943356612232,nuisance,17.0,Low,7.0,1
368,368,True,Low,7.0,0.81,left,left,30.0,mucus,6.0,0.8056801872153301,deficient,18.0,Low,7.0,1
369,369,True,Low,7.0,0.894,right,right,30.0,immature,5.0,1.514344347757287,grime,19.0,Low,7.0,1
370,370,True,Low,1.0,0.759,right,right,30.0,doubtful,4.0,1.6461045314499645,fault,20.0,Low,7.0,1
371,371,True,Low,3.0,1.5230000000000001,left,left,30.0,con,6.0,2.1938703689666,cough,21.0,Low,7.0,1
372,372,False,Low,4.0,1.0270000000000001,left,right,30.0,resign,3.0,1.4518267437233592,grovel,22.0,Low,7.0,1
373,373,True,Low,4.0,0.877,left,left,30.0,incorrect,5.0,1.3928969910775777,spit,23.0,Low,7.0,1
374,374,True,Low,1.0,0.774,left,left,30.0,dishes,1.0,1.9066424011834897,egotistical,24.0,Low,7.0,1
375,375,True,Low,7.0,0.643,left,left,30.0,prude,6.0,0.9887077639868947,overcast,25.0,Low,7.0,1
376,376,True,Low,2.0,0.757,right,right,30.0,piss,4.0,2.087317535741022,heavy,26.0,Low,7.0,1
377,377,False,Low,1.0,0.772,right,left,30.0,limp,2.0,2.2447008295275737,tick,27.0,Low,7.0,1
378,378,True,Low,1.0,0.759,left,left,30.0,senseless,2.0,1.6599718464131,chump,28.0,Low,7.0,1
379,379,True,Low,1.0,0.81,right,right,30.0,period,2.0,1.5914093672763556,weary,29.0,Low,7.0,1
380,380,True,Low,7.0,1.193,right,right,30.0,hinder,2.0,1.4075274943606928,condescension,30.0,Low,7.0,1
381,381,False,Low,3.0,0.8270000000000001,right,left,30.0,junk,6.0,1.4651987401593942,rusty,31.0,Low,7.0,1
382,382,False,Low,1.0,0.956,left,right,30.0,little,3.0,2.3184214865614194,butcher,32.0,Low,7.0,1
383,383,True,Low,4.0,0.991,right,right,30.0,alimony,6.0,2.0751745324232616,nosey,33.0,Low,7.0,1
384,384,True,Low,3.0,1.143,left,left,30.0,smudge,6.0,1.5722966162429657,ash,34.0,Low,7.0,1
385,385,False,Low,1.0,1.16,right,left,30.0,defer,2.0,1.377007980918279,bland,35.0,Low,7.0,1
386,386,False,Low,1.0,0.825,right,left,30.0,gullible,3.0,1.6231293224263936,laundry,36.0,Low,7.0,1
387,387,False,Low,1.0,1.5919999999999999,left,right,30.0,passive,6.0,1.6601534204091877,sigh,37.0,Low,7.0,1
388,388,True,Low,1.0,1.16,left,left,30.0,recede,6.0,1.4090545126528011,erase,38.0,Low,7.0,1
389,389,True,Low,1.0,1.041,left,left,30.0,rules,5.0,1.8228026816505007,novice,39.0,Low,7.0,1
390,390,False,Low,2.0,0.9420000000000001,right,left,30.0,tar,5.0,1.6904217457631605,derelict,40.0,Low,7.0,1
391,391,True,Low,7.0,0.743,left,left,30.0,fart,6.0,1.0833158496243414,beet,41.0,Low,7.0,1
392,392,False,Low,1.0,1.21,right,left,30.0,class,6.0,1.4578013631398792,allege,42.0,Low,7.0,1
393,393,True,Low,5.0,1.109,right,right,30.0,punk,1.0,1.5991939524828922,spurn,43.0,Low,7.0,1
394,394,False,Low,2.0,0.8420000000000001,left,right,30.0,wane,3.0,1.7792541093076581,folly,44.0,Low,7.0,1
395,395,True,Low,2.0,0.7759999999999999,right,right,30.0,muddy,2.0,1.4601223667850718,cease,45.0,Low,7.0,1
396,396,False,Low,1.0,0.91,left,right,30.0,policy,4.0,-2.7768503387342207,dork,46.0,Low,7.0,1
397,397,True,Low,1.0,0.426,left,left,30.0,cling,1.0,1.549942480167374,tatter,47.0,Low,7.0,1
398,398,False,Low,1.0,0.505,right,left,30.0,bandage,1.0,2.355874497065088,coarse,48.0,Low,7.0,1
399,399,True,Low,1.0,0.49200000000000005,left,left,30.0,factory,1.0,1.8122046615171712,obstinate,49.0,Low,7.0,1
400,400,True,High,1.0,0.992,left,left,30.0,suffocate,5.0,1.634086961770663,suicide,0.0,Low,8.0,1
401,401,True,High,1.0,1.042,right,right,30.0,abusive,4.0,1.755904524150537,suffer,1.0,Low,8.0,1
402,402,True,High,1.0,1.026,right,right,30.0,starvation,5.0,1.6731375670060515,slave,2.0,Low,8.0,1
403,403,False,High,3.0,0.809,left,right,30.0,nightmare,1.0,1.4489529980055522,humiliation,3.0,Low,8.0,1
404,404,True,High,1.0,1.093,left,left,30.0,jail,3.0,1.1190734207048079,terrible,4.0,Low,8.0,1
405,405,True,High,1.0,1.043,left,left,30.0,sob,4.0,1.3446544415201058,despise,5.0,Low,8.0,1
406,406,True,High,7.0,1.3769999999999998,left,left,30.0,leprosy,1.0,0.9540383538114838,seasick,6.0,Low,8.0,1
407,407,True,High,7.0,1.143,right,right,30.0,amputate,2.0,1.4692540002288297,shame,7.0,Low,8.0,1
408,408,True,High,7.0,1.176,right,right,30.0,victim,2.0,1.490674602013314,castrate,8.0,Low,8.0,1
409,409,True,High,7.0,1.327,right,right,30.0,traitor,1.0,1.064306076063076,hostage,9.0,Low,8.0,1
410,410,False,High,2.0,0.79,right,left,30.0,crucify,1.0,2.084606115909992,irritated,10.0,Low,8.0,1
411,411,True,High,1.0,1.192,right,right,30.0,insult,5.0,1.6494658964802509,horrible,11.0,Low,8.0,1
412,412,True,High,7.0,0.943,right,right,30.0,homicide,4.0,1.5239437107811682,tumor,12.0,Low,8.0,1
413,413,True,High,1.0,1.36,right,right,30.0,liar,6.0,1.5489887353614904,demonic,13.0,Low,8.0,1
414,414,True,High,1.0,0.826,left,left,30.0,mad,4.0,1.3571041317190975,despairing,14.0,Low,8.0,1
415,415,True,High,1.0,0.92,left,left,30.0,enraged,2.0,2.6253537645679903,addict,15.0,Low,8.0,1
416,416,True,High,1.0,0.8740000000000001,left,left,30.0,virus,1.0,1.8671596754284108,injury,16.0,Low,8.0,1
417,417,True,High,2.0,0.7929999999999999,right,right,30.0,pissed,3.0,1.6372645071533043,wounds,17.0,Low,8.0,1
418,418,True,High,2.0,1.608,left,left,30.0,guilty,2.0,1.7218670942238532,arson,18.0,Low,8.0,1
419,419,False,High,1.0,0.708,left,right,30.0,awful,2.0,1.902257035690127,aggravated,19.0,Low,8.0,1
420,420,True,High,1.0,1.104,right,right,30.0,attack,5.0,2.5578114363597706,disorder,20.0,Low,8.0,1
421,421,True,High,1.0,1.093,left,left,30.0,terror,5.0,1.3363309087289963,offend,21.0,Low,8.0,1
422,422,True,High,1.0,1.2570000000000001,right,right,30.0,pester,1.0,2.09672794630751,exam,22.0,Low,8.0,1
423,423,True,High,7.0,0.993,right,right,30.0,brutal,6.0,1.3424396234331653,pervert,23.0,Low,8.0,1
