,Arousal,KeyPressed,LearningTime,RT,Response,TrialNumber,Valence,nBlock
0,High,left,30.0,3.8466328266469763,1.0,0.0,Low,0.0
1,High,left,30.0,2.112189814151582,1.0,1.0,Low,0.0
2,High,left,30.0,5.524013373308916,0.0,2.0,Low,0.0
3,High,right,30.0,1.6665783401126792,0.0,3.0,Low,0.0
4,High,left,30.0,2.9496001503598994,0.0,4.0,Low,0.0
5,High,right,30.0,1.3768685680369877,0.0,5.0,Low,0.0
6,High,left,30.0,3.0134801172113095,1.0,6.0,Low,0.0
7,High,right,30.0,4.954639456876001,0.0,7.0,Low,0.0
8,High,left,30.0,-0.10529542408775949,0.0,8.0,Low,0.0
9,High,right,30.0,1.8405005152990879,0.0,9.0,Low,0.0
10,High,right,30.0,0.40744265205584784,0.0,10.0,Low,0.0
11,High,left,30.0,0.2696380565290457,0.0,11.0,Low,0.0
12,High,left,30.0,2.8878498972184463,0.0,12.0,Low,0.0
13,High,right,30.0,0.5475367195811356,0.0,13.0,Low,0.0
14,High,left,30.0,4.3509888745697545,1.0,14.0,Low,0.0
15,High,left,30.0,2.10033124690612,1.0,15.0,Low,0.0
16,High,right,30.0,3.846831841729515,0.0,16.0,Low,0.0
17,High,left,30.0,4.9992565549363395,0.0,17.0,Low,0.0
18,High,right,30.0,0.4050724085458026,1.0,18.0,Low,0.0
19,High,right,30.0,1.0756398959851474,0.0,19.0,Low,0.0
20,High,left,30.0,-0.2820599329908515,1.0,20.0,Low,0.0
21,High,right,30.0,4.105690748165696,1.0,21.0,Low,0.0
22,High,left,30.0,0.20377784006410082,0.0,22.0,Low,0.0
23,High,right,30.0,0.7225999633796703,1.0,23.0,Low,0.0
24,High,right,30.0,-2.1602359650653753,0.0,24.0,Low,0.0
25,High,right,30.0,-0.18484200229927517,0.0,25.0,Low,0.0
26,High,right,30.0,4.966939143184008,0.0,26.0,Low,0.0
27,High,right,30.0,2.123833365897166,1.0,27.0,Low,0.0
28,High,right,30.0,0.8042655441861573,0.0,28.0,Low,0.0
29,High,right,30.0,5.596058803557972,0.0,29.0,Low,0.0
30,High,left,30.0,-1.7078251315136095,1.0,30.0,Low,0.0
31,High,left,30.0,3.809421904172859,0.0,31.0,Low,0.0
32,High,right,30.0,1.9555945037692704,1.0,32.0,Low,0.0
33,High,left,30.0,0.8799002161021179,0.0,33.0,Low,0.0
34,High,right,30.0,3.413611070014431,1.0,34.0,Low,0.0
35,High,right,30.0,3.272197888291803,0.0,35.0,Low,0.0
36,High,left,30.0,0.7379862792291461,0.0,36.0,Low,0.0
37,High,left,30.0,1.912532023923145,0.0,37.0,Low,0.0
38,High,right,30.0,5.143094277557653,1.0,38.0,Low,0.0
39,High,left,30.0,0.7334328284586411,1.0,39.0,Low,0.0
40,High,left,30.0,0.39436381013432253,0.0,40.0,Low,0.0
41,High,left,30.0,1.3499526394037966,0.0,41.0,Low,0.0
42,High,left,30.0,4.350138401543748,0.0,42.0,Low,0.0
43,High,left,30.0,-2.786022145092158,1.0,43.0,Low,0.0
44,High,right,30.0,2.5818573024090967,1.0,44.0,Low,0.0
45,High,left,30.0,3.943160287327944,0.0,45.0,Low,0.0
46,High,left,30.0,2.7217650984844015,1.0,46.0,Low,0.0
47,High,right,30.0,3.02474048873393,1.0,47.0,Low,0.0
48,High,left,30.0,3.2046934861036482,0.0,48.0,Low,0.0
49,High,right,30.0,4.251216571800584,1.0,49.0,Low,0.0
50,Low,left,30.0,-0.551938003666681,1.0,0.0,Low,1.0
51,Low,left,30.0,2.3060430524822033,0.0,1.0,Low,1.0
52,Low,left,30.0,3.1286571508082033,1.0,2.0,Low,1.0
53,Low,right,30.0,1.6830431813942084,0.0,3.0,Low,1.0
54,Low,right,30.0,1.7639780759926043,0.0,4.0,Low,1.0
55,Low,left,30.0,6.4650718552762605,0.0,5.0,Low,1.0
56,Low,right,30.0,3.401037726669176,0.0,6.0,Low,1.0
57,Low,left,30.0,1.015290566932058,0.0,7.0,Low,1.0
58,Low,right,30.0,0.05952786123013332,0.0,8.0,Low,1.0
59,Low,right,30.0,1.9015406668087833,0.0,9.0,Low,1.0
60,Low,left,30.0,5.370596525602712,0.0,10.0,Low,1.0
61,Low,left,30.0,2.0373103117109186,0.0,11.0,Low,1.0
62,Low,left,30.0,5.743589023274192,1.0,12.0,Low,1.0
63,Low,left,30.0,-0.5511189707981172,0.0,13.0,Low,1.0
64,Low,left,30.0,0.8609907062249369,1.0,14.0,Low,1.0
65,Low,left,30.0,-0.036660576871135664,1.0,15.0,Low,1.0
66,Low,right,30.0,4.009581427112685,0.0,16.0,Low,1.0
67,Low,right,30.0,2.7970488479662587,0.0,17.0,Low,1.0
68,Low,left,30.0,4.659163313012417,0.0,18.0,Low,1.0
69,Low,left,30.0,-1.7552578397469045,1.0,19.0,Low,1.0
70,Low,right,30.0,5.796364359013865,0.0,20.0,Low,1.0
71,Low,left,30.0,-1.3661955866295452,0.0,21.0,Low,1.0
72,Low,right,30.0,1.926238711911451,1.0,22.0,Low,1.0
73,Low,right,30.0,5.287521194523803,1.0,23.0,Low,1.0
74,Low,right,30.0,3.513476317540504,1.0,24.0,Low,1.0
75,Low,left,30.0,1.839712017090194,0.0,25.0,Low,1.0
76,Low,right,30.0,-2.2930303173799653,0.0,26.0,Low,1.0
77,Low,right,30.0,2.4284045236721328,1.0,27.0,Low,1.0
78,Low,right,30.0,2.491635676594097,0.0,28.0,Low,1.0
79,Low,right,30.0,0.35712762986880753,1.0,29.0,Low,1.0
80,Low,right,30.0,1.6804383032665453,1.0,30.0,Low,1.0
81,Low,right,30.0,4.073109247262119,0.0,31.0,Low,1.0
82,Low,right,30.0,0.28886281788250656,1.0,32.0,Low,1.0
83,Low,right,30.0,1.2679730423703492,1.0,33.0,Low,1.0
84,Low,right,30.0,3.6973856694545484,0.0,34.0,Low,1.0
85,Low,right,30.0,0.20051750955136716,0.0,35.0,Low,1.0
86,Low,left,30.0,2.132543219252082,1.0,36.0,Low,1.0
87,Low,right,30.0,-1.5997704722639128,0.0,37.0,Low,1.0
88,Low,right,30.0,2.7085187916165605,1.0,38.0,Low,1.0
89,Low,right,30.0,2.1266197904258024,1.0,39.0,Low,1.0
90,Low,right,30.0,5.605961055529576,1.0,40.0,Low,1.0
91,Low,left,30.0,-0.2871202211652033,0.0,41.0,Low,1.0
92,Low,right,30.0,4.8441772057332955,0.0,42.0,Low,1.0
93,Low,left,30.0,0.9187129299935706,0.0,43.0,Low,1.0
94,Low,left,30.0,3.6293801635615988,0.0,44.0,Low,1.0
95,Low,right,30.0,3.9607664999932566,0.0,45.0,Low,1.0
96,Low,right,30.0,0.714834492981235,0.0,46.0,Low,1.0
97,Low,right,30.0,1.0721582249644641,1.0,47.0,Low,1.0
98,Low,left,30.0,2.0610704139310405,1.0,48.0,Low,1.0
99,Low,left,30.0,-1.1103511459661624,1.0,49.0,Low,1.0
100,High,left,30.0,0.150024009839973,0.0,0.0,High,2.0
101,High,left,30.0,1.201190972134206,0.0,1.0,High,2.0
102,High,left,30.0,2.937473095410631,0.0,2.0,High,2.0
103,High,right,30.0,1.9782227511557815,0.0,3.0,High,2.0
104,High,left,30.0,0.7590507187110676,1.0,4.0,High,2.0
105,High,left,30.0,1.3751366328285797,1.0,5.0,High,2.0
106,High,left,30.0,1.9541876893014432,0.0,6.0,High,2.0
107,High,right,30.0,0.21018965398535272,0.0,7.0,High,2.0
108,High,right,30.0,2.1951719137965924,1.0,8.0,High,2.0
109,High,right,30.0,2.656745337248148,1.0,9.0,High,2.0
110,High,right,30.0,3.093217784743703,1.0,10.0,High,2.0
111,High,right,30.0,2.9301331466657774,0.0,11.0,High,2.0
112,High,right,30.0,1.6527434811283475,0.0,12.0,High,2.0
113,High,right,30.0,5.217855185050778,0.0,13.0,High,2.0
114,High,right,30.0,0.43579280680369714,1.0,14.0,High,2.0
115,High,left,30.0,0.15490128090277522,1.0,15.0,High,2.0
116,High,left,30.0,-1.3566629605207883,1.0,16.0,High,2.0
117,High,right,30.0,3.0497211366228703,0.0,17.0,High,2.0
118,High,left,30.0,6.307228451797043,1.0,18.0,High,2.0
119,High,right,30.0,1.8179857353768398,1.0,19.0,High,2.0
120,High,left,30.0,0.26001298100996695,0.0,20.0,High,2.0
121,High,right,30.0,4.781654930388887,1.0,21.0,High,2.0
122,High,left,30.0,-0.5547165413126425,1.0,22.0,High,2.0
123,High,right,30.0,2.438674700966351,0.0,23.0,High,2.0
124,High,left,30.0,0.07509510399313957,1.0,24.0,High,2.0
125,High,right,30.0,-1.8151767834384354,1.0,25.0,High,2.0
126,High,left,30.0,1.6800779386892526,0.0,26.0,High,2.0
127,High,right,30.0,4.072887921946584,0.0,27.0,High,2.0
128,High,right,30.0,1.3119108104780468,1.0,28.0,High,2.0
129,High,right,30.0,4.477905635666835,1.0,29.0,High,2.0
130,High,right,30.0,2.061269628502978,1.0,30.0,High,2.0
131,High,right,30.0,2.3980028467165733,1.0,31.0,High,2.0
132,High,left,30.0,1.7588091926694833,1.0,32.0,High,2.0
133,High,left,30.0,2.688795032192209,0.0,33.0,High,2.0
134,High,left,30.0,3.3781538445229016,1.0,34.0,High,2.0
135,High,left,30.0,-0.8621852276999931,0.0,35.0,High,2.0
136,High,left,30.0,-1.2653090710960049,0.0,36.0,High,2.0
137,High,left,30.0,-0.0563466812580653,0.0,37.0,High,2.0
138,High,left,30.0,3.19821073443729,1.0,38.0,High,2.0
139,High,left,30.0,0.5277939796926743,1.0,39.0,High,2.0
140,High,left,30.0,0.8467534798209575,1.0,40.0,High,2.0
141,High,left,30.0,2.7105288591452084,0.0,41.0,High,2.0
142,High,right,30.0,-1.03567829465862,1.0,42.0,High,2.0
143,High,right,30.0,-2.719586218426012,1.0,43.0,High,2.0
144,High,left,30.0,-1.2180604893064109,0.0,44.0,High,2.0
145,High,left,30.0,0.5576369706795659,1.0,45.0,High,2.0
146,High,right,30.0,2.7004591283160653,1.0,46.0,High,2.0
147,High,right,30.0,0.8115279914850805,1.0,47.0,High,2.0
148,High,left,30.0,6.682045085155993,0.0,48.0,High,2.0
149,High,right,30.0,3.977632850408705,1.0,49.0,High,2.0
150,Low,right,30.0,2.631268069708807,1.0,0.0,High,3.0
151,Low,right,30.0,4.655983796223917,1.0,1.0,High,3.0
152,Low,left,30.0,3.72324925524514,0.0,2.0,High,3.0
153,Low,right,30.0,4.109332187160123,1.0,3.0,High,3.0
154,Low,left,30.0,4.003030423949771,0.0,4.0,High,3.0
155,Low,right,30.0,3.086486914043358,0.0,5.0,High,3.0
156,Low,left,30.0,-1.5615298187939737,0.0,6.0,High,3.0
157,Low,left,30.0,3.4213467561909585,1.0,7.0,High,3.0
158,Low,left,30.0,3.9672604906689326,1.0,8.0,High,3.0
159,Low,left,30.0,2.060578668449491,1.0,9.0,High,3.0
160,Low,left,30.0,0.5370710989601353,0.0,10.0,High,3.0
161,Low,right,30.0,2.5638036704194125,1.0,11.0,High,3.0
162,Low,right,30.0,4.672697321227275,1.0,12.0,High,3.0
163,Low,left,30.0,1.3841276738931279,1.0,13.0,High,3.0
164,Low,left,30.0,3.192769359665584,1.0,14.0,High,3.0
165,Low,left,30.0,0.5456989931801135,1.0,15.0,High,3.0
166,Low,left,30.0,4.571158816033621,0.0,16.0,High,3.0
167,Low,right,30.0,-1.3970702541664806,1.0,17.0,High,3.0
168,Low,left,30.0,4.319658577621394,1.0,18.0,High,3.0
169,Low,left,30.0,0.4595077914039165,0.0,19.0,High,3.0
170,Low,left,30.0,7.230167944904024,0.0,20.0,High,3.0
171,Low,left,30.0,-0.6987989519854088,1.0,21.0,High,3.0
172,Low,left,30.0,2.9967713809348675,1.0,22.0,High,3.0
173,Low,right,30.0,-2.43150233706466,1.0,23.0,High,3.0
174,Low,right,30.0,3.335143065420514,1.0,24.0,High,3.0
175,Low,left,30.0,0.04587722988977716,0.0,25.0,High,3.0
176,Low,left,30.0,1.2497883823218752,1.0,26.0,High,3.0
177,Low,left,30.0,3.238514311667888,1.0,27.0,High,3.0
178,Low,left,30.0,3.136827311479141,0.0,28.0,High,3.0
179,Low,right,30.0,3.742742111055968,1.0,29.0,High,3.0
180,Low,right,30.0,-0.6914963800214793,0.0,30.0,High,3.0
181,Low,right,30.0,4.426090295570903,1.0,31.0,High,3.0
182,Low,right,30.0,1.7029118086700692,1.0,32.0,High,3.0
183,Low,left,30.0,3.4317264481448584,1.0,33.0,High,3.0
184,Low,left,30.0,1.358000851270096,0.0,34.0,High,3.0
185,Low,right,30.0,0.9183618294484623,1.0,35.0,High,3.0
186,Low,left,30.0,5.47084197030298,1.0,36.0,High,3.0
187,Low,right,30.0,3.313304830916607,0.0,37.0,High,3.0
188,Low,right,30.0,0.9445139318269618,1.0,38.0,High,3.0
189,Low,right,30.0,2.34041236328048,1.0,39.0,High,3.0
190,Low,right,30.0,-0.19811021621014224,0.0,40.0,High,3.0
191,Low,left,30.0,1.9486195083679103,1.0,41.0,High,3.0
192,Low,right,30.0,1.557478969618077,1.0,42.0,High,3.0
193,Low,left,30.0,5.8046644915467684,0.0,43.0,High,3.0
194,Low,right,30.0,0.30441472047576634,1.0,44.0,High,3.0
195,Low,left,30.0,1.3948435154618926,1.0,45.0,High,3.0
196,Low,left,30.0,2.198175604919556,1.0,46.0,High,3.0
197,Low,left,30.0,2.6205943291704594,1.0,47.0,High,3.0
198,Low,right,30.0,4.880486144288849,1.0,48.0,High,3.0
199,Low,left,30.0,2.536120759867447,1.0,49.0,High,3.0
200,High,left,60.0,3.6134860907352495,1.0,0.0,High,4.0
201,High,right,60.0,4.877954075659694,0.0,1.0,High,4.0
202,High,left,60.0,1.7511851183543934,1.0,2.0,High,4.0
203,High,left,60.0,-0.5292163761887934,0.0,3.0,High,4.0
204,High,right,60.0,-0.4194310351505215,1.0,4.0,High,4.0
205,High,right,60.0,1.498287116165494,1.0,5.0,High,4.0
206,High,right,60.0,4.946447607514512,1.0,6.0,High,4.0
207,High,left,60.0,0.10520347437726629,1.0,7.0,High,4.0
208,High,left,60.0,2.187188505066458,0.0,8.0,High,4.0
209,High,right,60.0,1.237502593705201,1.0,9.0,High,4.0
210,High,left,60.0,1.2882184038233455,0.0,10.0,High,4.0
211,High,left,60.0,4.34108738332781,1.0,11.0,High,4.0
212,High,right,60.0,-1.4943627976863387,0.0,12.0,High,4.0
213,High,right,60.0,3.6181483096352682,1.0,13.0,High,4.0
214,High,right,60.0,3.512365137952886,1.0,14.0,High,4.0
215,High,right,60.0,0.45291119747409114,0.0,15.0,High,4.0
216,High,right,60.0,5.961865328590564,0.0,16.0,High,4.0
217,High,right,60.0,3.477499648596572,0.0,17.0,High,4.0
218,High,left,60.0,2.221057755792331,1.0,18.0,High,4.0
219,High,right,60.0,2.580559364199309,0.0,19.0,High,4.0
220,High,right,60.0,2.4571043696874666,0.0,20.0,High,4.0
221,High,right,60.0,7.9387830236476224,1.0,21.0,High,4.0
222,High,right,60.0,0.7722730627387169,1.0,22.0,High,4.0
223,High,left,60.0,5.8178338940711924,1.0,23.0,High,4.0
224,High,right,60.0,1.884215288409557,0.0,24.0,High,4.0
225,High,left,60.0,0.2909418974526454,1.0,25.0,High,4.0
226,High,right,60.0,-0.6080915604716719,0.0,26.0,High,4.0
227,High,right,60.0,1.0728868029672465,1.0,27.0,High,4.0
228,High,left,60.0,-0.423563272322957,0.0,28.0,High,4.0
229,High,right,60.0,0.8722285389466515,0.0,29.0,High,4.0
230,High,right,60.0,4.823812315980951,0.0,30.0,High,4.0
231,High,right,60.0,0.5912711088275042,0.0,31.0,High,4.0
232,High,right,60.0,-0.6709109750759907,0.0,32.0,High,4.0
233,High,right,60.0,0.33514239318812655,0.0,33.0,High,4.0
234,High,left,60.0,-0.10415546370729167,1.0,34.0,High,4.0
235,High,right,60.0,3.6973719496804347,1.0,35.0,High,4.0
236,High,left,60.0,1.9378664370588503,0.0,36.0,High,4.0
237,High,right,60.0,2.2582441924905323,1.0,37.0,High,4.0
238,High,right,60.0,0.196173810501719,1.0,38.0,High,4.0
239,High,left,60.0,1.6127257341318535,0.0,39.0,High,4.0
240,High,left,60.0,0.7644174764686951,0.0,40.0,High,4.0
241,High,right,60.0,3.3594960009672796,1.0,41.0,High,4.0
242,High,left,60.0,4.456931144185386,0.0,42.0,High,4.0
243,High,right,60.0,-0.24864229112879055,0.0,43.0,High,4.0
244,High,left,60.0,0.9604658350831073,1.0,44.0,High,4.0
245,High,right,60.0,3.1311980318134145,0.0,45.0,High,4.0
246,High,right,60.0,1.841472032468289,1.0,46.0,High,4.0
247,High,left,60.0,-0.8690735667194951,0.0,47.0,High,4.0
248,High,left,60.0,4.17815102123894,0.0,48.0,High,4.0
249,High,left,60.0,2.508376313898085,1.0,49.0,High,4.0
250,Low,right,60.0,4.34509549294884,0.0,0.0,High,5.0
251,Low,right,60.0,5.601738748786397,1.0,1.0,High,5.0
252,Low,left,60.0,5.206954546903636,1.0,2.0,High,5.0
253,Low,left,60.0,-0.37150550890782075,0.0,3.0,High,5.0
254,Low,right,60.0,1.0495008045523861,0.0,4.0,High,5.0
255,Low,right,60.0,0.37250600173902226,0.0,5.0,High,5.0
256,Low,right,60.0,1.404893101449574,0.0,6.0,High,5.0
257,Low,right,60.0,-4.6399249595591145,0.0,7.0,High,5.0
258,Low,left,60.0,4.33758772836152,1.0,8.0,High,5.0
259,Low,right,60.0,5.113729254433029,1.0,9.0,High,5.0
260,Low,right,60.0,-0.4733201398523663,1.0,10.0,High,5.0
261,Low,left,60.0,-0.7575587653846916,1.0,11.0,High,5.0
262,Low,right,60.0,4.523723925255517,0.0,12.0,High,5.0
263,Low,right,60.0,0.5019884354507198,0.0,13.0,High,5.0
264,Low,left,60.0,0.128583321474236,1.0,14.0,High,5.0
265,Low,left,60.0,4.608185979532962,0.0,15.0,High,5.0
266,Low,right,60.0,1.4049587188287278,1.0,16.0,High,5.0
267,Low,right,60.0,0.9101616666971837,1.0,17.0,High,5.0
268,Low,left,60.0,2.905117543058303,1.0,18.0,High,5.0
269,Low,left,60.0,0.9911229321615935,0.0,19.0,High,5.0
270,Low,right,60.0,3.390623748490737,0.0,20.0,High,5.0
271,Low,right,60.0,3.794466575178833,1.0,21.0,High,5.0
272,Low,left,60.0,4.463094299834854,0.0,22.0,High,5.0
273,Low,right,60.0,8.148721186529228,1.0,23.0,High,5.0
274,Low,right,60.0,1.396226433627604,0.0,24.0,High,5.0
275,Low,left,60.0,5.228646253176888,1.0,25.0,High,5.0
276,Low,right,60.0,2.008149620923476,0.0,26.0,High,5.0
277,Low,right,60.0,1.1607455045037143,0.0,27.0,High,5.0
278,Low,right,60.0,4.1229926450317524,0.0,28.0,High,5.0
279,Low,left,60.0,2.845473416798949,0.0,29.0,High,5.0
280,Low,right,60.0,0.26594700579175035,1.0,30.0,High,5.0
281,Low,right,60.0,1.7749540832912456,1.0,31.0,High,5.0
282,Low,right,60.0,3.3538008114605167,0.0,32.0,High,5.0
283,Low,right,60.0,2.143880022741385,1.0,33.0,High,5.0
284,Low,right,60.0,2.874074299964813,0.0,34.0,High,5.0
285,Low,left,60.0,4.15416299512907,0.0,35.0,High,5.0
286,Low,right,60.0,3.059201889827581,0.0,36.0,High,5.0
287,Low,left,60.0,3.2671456239762486,1.0,37.0,High,5.0
288,Low,left,60.0,-1.326134908293708,0.0,38.0,High,5.0
289,Low,right,60.0,2.6571115018701374,0.0,39.0,High,5.0
290,Low,right,60.0,1.5631126546692302,0.0,40.0,High,5.0
291,Low,right,60.0,3.5651772990084556,0.0,41.0,High,5.0
292,Low,right,60.0,2.4511218105495507,1.0,42.0,High,5.0
293,Low,left,60.0,0.2054353265266199,1.0,43.0,High,5.0
294,Low,right,60.0,1.550785715948209,1.0,44.0,High,5.0
295,Low,right,60.0,2.5250421031391515,1.0,45.0,High,5.0
296,Low,left,60.0,1.2726139365030278,0.0,46.0,High,5.0
297,Low,right,60.0,4.794074007211874,1.0,47.0,High,5.0
298,Low,right,60.0,0.7927510254069099,1.0,48.0,High,5.0
299,Low,left,60.0,4.342637072444811,0.0,49.0,High,5.0
300,High,right,90.0,0.768251201296104,1.0,0.0,High,6.0
301,High,right,90.0,2.9865403994852353,1.0,1.0,High,6.0
302,High,left,90.0,1.6512210130327445,0.0,2.0,High,6.0
303,High,left,90.0,2.559669214820535,0.0,3.0,High,6.0
304,High,left,90.0,2.397807259432749,1.0,4.0,High,6.0
305,High,right,90.0,1.0716204902578206,0.0,5.0,High,6.0
306,High,left,90.0,0.6160363521791106,1.0,6.0,High,6.0
307,High,left,90.0,0.04193469797348559,1.0,7.0,High,6.0
308,High,left,90.0,2.1561920114283044,1.0,8.0,High,6.0
309,High,left,90.0,-1.0725410888755753,0.0,9.0,High,6.0
310,High,right,90.0,3.9032778718603653,1.0,10.0,High,6.0
311,High,left,90.0,0.43593721719191647,1.0,11.0,High,6.0
312,High,left,90.0,1.904086836347034,1.0,12.0,High,6.0
313,High,left,90.0,3.6764654631483076,0.0,13.0,High,6.0
314,High,right,90.0,2.0829026840923857,0.0,14.0,High,6.0
315,High,left,90.0,3.2487579547248506,1.0,15.0,High,6.0
316,High,left,90.0,0.24036920808115614,1.0,16.0,High,6.0
317,High,left,90.0,-2.217402269190189,1.0,17.0,High,6.0
318,High,right,90.0,4.163047323860981,0.0,18.0,High,6.0
319,High,left,90.0,1.2798592695477158,0.0,19.0,High,6.0
320,High,left,90.0,1.048199713564937,0.0,20.0,High,6.0
321,High,left,90.0,5.025223440429422,0.0,21.0,High,6.0
322,High,right,90.0,-0.3825795566393213,1.0,22.0,High,6.0
323,High,right,90.0,2.4475600573703806,1.0,23.0,High,6.0
324,High,left,90.0,2.3144812203862264,0.0,24.0,High,6.0
325,High,right,90.0,-0.6745392296519428,0.0,25.0,High,6.0
326,High,right,90.0,1.6091571576363244,1.0,26.0,High,6.0
327,High,right,90.0,1.729816922675501,0.0,27.0,High,6.0
328,High,left,90.0,2.949935051425074,1.0,28.0,High,6.0
329,High,left,90.0,-1.9456634934083612,0.0,29.0,High,6.0
330,High,left,90.0,1.3158330705643704,1.0,30.0,High,6.0
331,High,right,90.0,-0.3216830611686772,1.0,31.0,High,6.0
332,High,left,90.0,3.331976461283253,0.0,32.0,High,6.0
333,High,left,90.0,6.32590441873651,0.0,33.0,High,6.0
334,High,right,90.0,1.769356784277762,1.0,34.0,High,6.0
335,High,right,90.0,0.6659571678245171,0.0,35.0,High,6.0
336,High,left,90.0,2.761370540458887,0.0,36.0,High,6.0
337,High,right,90.0,-0.5490991303264228,0.0,37.0,High,6.0
338,High,right,90.0,3.1585399728866013,1.0,38.0,High,6.0
339,High,left,90.0,-0.533217603780265,1.0,39.0,High,6.0
340,High,right,90.0,4.146937904996557,1.0,40.0,High,6.0
341,High,right,90.0,0.6815872984091478,1.0,41.0,High,6.0
342,High,left,90.0,0.5311702522318567,1.0,42.0,High,6.0
343,High,left,90.0,0.004473577942954998,0.0,43.0,High,6.0
344,High,left,90.0,1.6966041729777253,1.0,44.0,High,6.0
345,High,left,90.0,0.3886155600141259,0.0,45.0,High,6.0
346,High,left,90.0,-0.777812787802691,0.0,46.0,High,6.0
347,High,left,90.0,-1.7879713390887941,0.0,47.0,High,6.0
348,High,left,90.0,0.6217089182538691,1.0,48.0,High,6.0
349,High,right,90.0,0.07588400045041577,1.0,49.0,High,6.0
350,Low,left,60.0,-1.1107423474943792,1.0,0.0,Low,7.0
351,Low,right,60.0,1.8802925713521694,0.0,1.0,Low,7.0
352,Low,left,60.0,2.097604029792866,1.0,2.0,Low,7.0
353,Low,right,60.0,-0.7836887074920118,1.0,3.0,Low,7.0
354,Low,left,60.0,0.6303653007884024,1.0,4.0,Low,7.0
355,Low,left,60.0,2.343366711982604,1.0,5.0,Low,7.0
356,Low,right,60.0,2.375393215641326,0.0,6.0,Low,7.0
357,Low,left,60.0,1.7687581246077755,0.0,7.0,Low,7.0
358,Low,right,60.0,4.009760259837235,1.0,8.0,Low,7.0
359,Low,left,60.0,5.037360886789613,0.0,9.0,Low,7.0
360,Low,right,60.0,-1.713716351703126,0.0,10.0,Low,7.0
361,Low,left,60.0,-1.38471665912548,0.0,11.0,Low,7.0
362,Low,left,60.0,3.1254447742789977,0.0,12.0,Low,7.0
363,Low,right,60.0,1.3246518760347137,1.0,13.0,Low,7.0
364,Low,left,60.0,2.387670369384461,1.0,14.0,Low,7.0
365,Low,left,60.0,1.3765655870988127,0.0,15.0,Low,7.0
366,Low,left,60.0,2.387216924662013,1.0,16.0,Low,7.0
367,Low,left,60.0,5.308935226797498,1.0,17.0,Low,7.0
368,Low,left,60.0,1.3029178927158163,1.0,18.0,Low,7.0
369,Low,left,60.0,0.16596939950916445,1.0,19.0,Low,7.0
370,Low,right,60.0,-0.3203963748567158,1.0,20.0,Low,7.0
371,Low,left,60.0,2.9564552781678937,1.0,21.0,Low,7.0
372,Low,left,60.0,5.14593249677082,1.0,22.0,Low,7.0
373,Low,left,60.0,2.3522493168486784,0.0,23.0,Low,7.0
374,Low,right,60.0,-0.6410929444706701,1.0,24.0,Low,7.0
375,Low,left,60.0,2.7054042146611095,1.0,25.0,Low,7.0
376,Low,right,60.0,3.42618903979883,0.0,26.0,Low,7.0
377,Low,right,60.0,1.5835630891769015,1.0,27.0,Low,7.0
378,Low,left,60.0,-1.5016750590193184,1.0,28.0,Low,7.0
379,Low,right,60.0,1.1980390229525493,0.0,29.0,Low,7.0
380,Low,left,60.0,4.528609571043365,0.0,30.0,Low,7.0
381,Low,right,60.0,1.7607053710750848,0.0,31.0,Low,7.0
382,Low,left,60.0,-3.761374002101716,1.0,32.0,Low,7.0
383,Low,left,60.0,3.847885482642356,1.0,33.0,Low,7.0
384,Low,left,60.0,6.025822867580293,1.0,34.0,Low,7.0
385,Low,left,60.0,3.209543765009074,0.0,35.0,Low,7.0
386,Low,left,60.0,0.7165934818984581,1.0,36.0,Low,7.0
387,Low,right,60.0,1.878441517114415,1.0,37.0,Low,7.0
388,Low,left,60.0,3.7010491265181966,1.0,38.0,Low,7.0
389,Low,right,60.0,2.454254762053079,0.0,39.0,Low,7.0
390,Low,right,60.0,5.695247642630448,0.0,40.0,Low,7.0
391,Low,left,60.0,0.32555893839326355,1.0,41.0,Low,7.0
392,Low,left,60.0,3.8707510057339003,0.0,42.0,Low,7.0
393,Low,left,60.0,0.4761846613636911,1.0,43.0,Low,7.0
394,Low,left,60.0,-2.2569662465020426,1.0,44.0,Low,7.0
395,Low,right,60.0,1.0452960041580173,1.0,45.0,Low,7.0
396,Low,right,60.0,6.711234086628975,1.0,46.0,Low,7.0
397,Low,left,60.0,1.2700757992542298,1.0,47.0,Low,7.0
398,Low,right,60.0,2.020574207624145,0.0,48.0,Low,7.0
399,Low,right,60.0,1.9800252003911185,0.0,49.0,Low,7.0
400,High,right,60.0,6.80175085744555,0.0,0.0,Low,8.0
401,High,right,60.0,1.3552699655059954,0.0,1.0,Low,8.0
402,High,right,60.0,1.4263202093667289,0.0,2.0,Low,8.0
403,High,left,60.0,5.587949769336713,0.0,3.0,Low,8.0
404,High,left,60.0,2.50848301922015,0.0,4.0,Low,8.0
405,High,right,60.0,0.4783460953493026,1.0,5.0,Low,8.0
406,High,right,60.0,2.7641943695691586,0.0,6.0,Low,8.0
407,High,left,60.0,3.2486878505736962,0.0,7.0,Low,8.0
408,High,left,60.0,-0.3634395227538225,0.0,8.0,Low,8.0
409,High,right,60.0,1.2498454149101912,0.0,9.0,Low,8.0
410,High,right,60.0,2.7818188066987872,1.0,10.0,Low,8.0
411,High,left,60.0,4.523961674893563,0.0,11.0,Low,8.0
412,High,right,60.0,1.431416395164229,0.0,12.0,Low,8.0
413,High,left,60.0,0.13303161134406571,0.0,13.0,Low,8.0
414,High,left,60.0,1.1947324376509671,0.0,14.0,Low,8.0
415,High,left,60.0,1.3527826738752007,0.0,15.0,Low,8.0
416,High,left,60.0,-0.7127307981279283,0.0,16.0,Low,8.0
417,High,left,60.0,4.330686944699444,0.0,17.0,Low,8.0
418,High,left,60.0,-0.2931816053322127,1.0,18.0,Low,8.0
419,High,left,60.0,3.5666001727816177,0.0,19.0,Low,8.0
420,High,left,60.0,2.6005123254470304,1.0,20.0,Low,8.0
421,High,right,60.0,-0.08728035172560533,0.0,21.0,Low,8.0
422,High,right,60.0,-0.8535611903143279,1.0,22.0,Low,8.0
423,High,right,60.0,3.91402479297956,0.0,23.0,Low,8.0
424,High,right,60.0,6.493543532195198,0.0,24.0,Low,8.0
425,High,right,60.0,2.1994040275914952,0.0,25.0,Low,8.0
426,High,right,60.0,3.84011182633559,1.0,26.0,Low,8.0
427,High,right,60.0,0.8384078425974646,1.0,27.0,Low,8.0
428,High,left,60.0,4.351210840819914,0.0,28.0,Low,8.0
429,High,left,60.0,1.308667807611547,1.0,29.0,Low,8.0
430,High,right,60.0,1.9474184468874163,0.0,30.0,Low,8.0
431,High,left,60.0,1.9238422300438538,0.0,31.0,Low,8.0
432,High,left,60.0,0.6802173666931803,0.0,32.0,Low,8.0
433,High,right,60.0,0.40040934783181603,0.0,33.0,Low,8.0
434,High,right,60.0,5.195494830336472,1.0,34.0,Low,8.0
435,High,right,60.0,6.313228178722241,0.0,35.0,Low,8.0
436,High,left,60.0,5.287532238174825,0.0,36.0,Low,8.0
437,High,right,60.0,2.5837731759998834,0.0,37.0,Low,8.0
438,High,right,60.0,2.6580712674227884,0.0,38.0,Low,8.0
439,High,right,60.0,1.2387262848864402,1.0,39.0,Low,8.0
440,High,left,60.0,0.7291419266614747,0.0,40.0,Low,8.0
441,High,right,60.0,2.9505763342211058,1.0,41.0,Low,8.0
442,High,right,60.0,0.5211415419488129,1.0,42.0,Low,8.0
443,High,right,60.0,2.053660618953002,0.0,43.0,Low,8.0
444,High,right,60.0,-0.3557618040601793,1.0,44.0,Low,8.0
445,High,right,60.0,-1.3648526017267246,0.0,45.0,Low,8.0
446,High,left,60.0,0.4964308886186446,0.0,46.0,Low,8.0
447,High,left,60.0,1.1773264728937793,1.0,47.0,Low,8.0
448,High,left,60.0,2.386621025317504,1.0,48.0,Low,8.0
449,High,left,60.0,2.19056900665317,1.0,49.0,Low,8.0
450,Low,left,90.0,3.2261768385323326,1.0,0.0,Low,9.0
451,Low,left,90.0,1.0296111606011864,0.0,1.0,Low,9.0
452,Low,left,90.0,5.120503882218889,0.0,2.0,Low,9.0
453,Low,left,90.0,-1.8906473995059923,0.0,3.0,Low,9.0
454,Low,right,90.0,2.28584093728016,1.0,4.0,Low,9.0
455,Low,right,90.0,1.1067448723013535,0.0,5.0,Low,9.0
456,Low,left,90.0,2.736558463951082,0.0,6.0,Low,9.0
457,Low,left,90.0,2.8162243910968154,1.0,7.0,Low,9.0
458,Low,right,90.0,1.1060551504437734,1.0,8.0,Low,9.0
459,Low,left,90.0,2.1022747077992894,0.0,9.0,Low,9.0
460,Low,right,90.0,0.716011092254845,1.0,10.0,Low,9.0
461,Low,right,90.0,4.042736825791285,0.0,11.0,Low,9.0
462,Low,right,90.0,5.119497243690395,0.0,12.0,Low,9.0
463,Low,right,90.0,0.9579242600115268,1.0,13.0,Low,9.0
464,Low,left,90.0,1.824035176924932,1.0,14.0,Low,9.0
465,Low,left,90.0,3.8078749359788024,1.0,15.0,Low,9.0
466,Low,left,90.0,1.7493647845235576,1.0,16.0,Low,9.0
467,Low,right,90.0,2.494863936528698,0.0,17.0,Low,9.0
468,Low,right,90.0,2.411726720034725,1.0,18.0,Low,9.0
469,Low,right,90.0,-2.7315899354734423,0.0,19.0,Low,9.0
470,Low,right,90.0,0.8598830914385969,1.0,20.0,Low,9.0
471,Low,right,90.0,0.38952417882503343,1.0,21.0,Low,9.0
472,Low,right,90.0,1.401413481965656,1.0,22.0,Low,9.0
473,Low,right,90.0,9.696307884219113,0.0,23.0,Low,9.0
474,Low,left,90.0,5.648321178514004,0.0,24.0,Low,9.0
475,Low,left,90.0,0.15369767860791184,1.0,25.0,Low,9.0
476,Low,left,90.0,2.7683978077035194,0.0,26.0,Low,9.0
477,Low,right,90.0,4.445682888115275,0.0,27.0,Low,9.0
478,Low,left,90.0,5.362653281532124,0.0,28.0,Low,9.0
479,Low,left,90.0,2.7186987387630777,1.0,29.0,Low,9.0
480,Low,left,90.0,2.110981561499452,1.0,30.0,Low,9.0
481,Low,left,90.0,2.6101668759751733,1.0,31.0,Low,9.0
482,Low,left,90.0,2.491263686815637,0.0,32.0,Low,9.0
483,Low,left,90.0,5.557531242576471,1.0,33.0,Low,9.0
484,Low,left,90.0,2.1134935788855818,1.0,34.0,Low,9.0
485,Low,right,90.0,-1.1508436598106262,0.0,35.0,Low,9.0
486,Low,left,90.0,5.002954903551514,0.0,36.0,Low,9.0
487,Low,left,90.0,1.6868464393860632,0.0,37.0,Low,9.0
488,Low,left,90.0,3.457644713682695,0.0,38.0,Low,9.0
489,Low,right,90.0,2.5036942595142238,0.0,39.0,Low,9.0
490,Low,left,90.0,2.08066040845611,0.0,40.0,Low,9.0
491,Low,left,90.0,4.276144993942107,0.0,41.0,Low,9.0
492,Low,right,90.0,0.36395501642495187,1.0,42.0,Low,9.0
493,Low,left,90.0,-1.170036441517602,0.0,43.0,Low,9.0
494,Low,right,90.0,-0.71963282548557,1.0,44.0,Low,9.0
495,Low,right,90.0,2.3419232029265196,0.0,45.0,Low,9.0
496,Low,left,90.0,-1.7439791741091826,0.0,46.0,Low,9.0
497,Low,right,90.0,1.3166207186618315,0.0,47.0,Low,9.0
498,Low,right,90.0,2.177043381137156,1.0,48.0,Low,9.0
499,Low,right,90.0,5.952536079364659,1.0,49.0,Low,9.0
500,High,right,90.0,1.6918345926550726,0.0,0.0,Low,10.0
501,High,left,90.0,0.773687741375469,1.0,1.0,Low,10.0
502,High,right,90.0,3.1425781794907683,0.0,2.0,Low,10.0
503,High,right,90.0,2.468740385839265,0.0,3.0,Low,10.0
504,High,left,90.0,0.38516796877072945,0.0,4.0,Low,10.0
505,High,right,90.0,3.286907574155507,0.0,5.0,Low,10.0
506,High,left,90.0,-3.8303708745026097,0.0,6.0,Low,10.0
507,High,right,90.0,3.8870799205196582,1.0,7.0,Low,10.0
508,High,left,90.0,2.1412763169666036,0.0,8.0,Low,10.0
509,High,right,90.0,3.333028335525275,1.0,9.0,Low,10.0
510,High,left,90.0,2.08346133910658,0.0,10.0,Low,10.0
511,High,left,90.0,2.0864224326535736,1.0,11.0,Low,10.0
512,High,right,90.0,0.4448646673999366,1.0,12.0,Low,10.0
513,High,left,90.0,3.0995497504690324,1.0,13.0,Low,10.0
514,High,right,90.0,-0.32339547323886375,0.0,14.0,Low,10.0
515,High,left,90.0,2.528689492028454,1.0,15.0,Low,10.0
516,High,right,90.0,8.058017918304678,1.0,16.0,Low,10.0
517,High,left,90.0,4.104686752800449,1.0,17.0,Low,10.0
518,High,right,90.0,2.812364239796378,1.0,18.0,Low,10.0
519,High,left,90.0,2.3725972422385975,0.0,19.0,Low,10.0
520,High,right,90.0,3.0914737048447063,0.0,20.0,Low,10.0
521,High,left,90.0,1.822146704165411,1.0,21.0,Low,10.0
522,High,left,90.0,1.2613791419349172,0.0,22.0,Low,10.0
523,High,right,90.0,1.7700825707538916,0.0,23.0,Low,10.0
524,High,left,90.0,1.0871779076769896,0.0,24.0,Low,10.0
525,High,left,90.0,2.1865570282891382,0.0,25.0,Low,10.0
526,High,left,90.0,6.267634901811288,1.0,26.0,Low,10.0
527,High,right,90.0,3.6408958197325827,1.0,27.0,Low,10.0
528,High,right,90.0,-0.647828491187866,0.0,28.0,Low,10.0
529,High,left,90.0,2.6775742250678984,0.0,29.0,Low,10.0
530,High,left,90.0,-1.9311390380941427,0.0,30.0,Low,10.0
531,High,right,90.0,5.011847069652391,0.0,31.0,Low,10.0
532,High,right,90.0,2.0826249801743475,0.0,32.0,Low,10.0
533,High,right,90.0,5.4490687777647775,0.0,33.0,Low,10.0
534,High,left,90.0,3.6718808584948883,1.0,34.0,Low,10.0
535,High,left,90.0,3.738827307109011,0.0,35.0,Low,10.0
536,High,left,90.0,-0.17188538541288545,1.0,36.0,Low,10.0
537,High,left,90.0,-0.48048794270195927,0.0,37.0,Low,10.0
538,High,left,90.0,2.5258939618335514,1.0,38.0,Low,10.0
539,High,left,90.0,1.628772974457465,0.0,39.0,Low,10.0
540,High,right,90.0,0.719854814866802,1.0,40.0,Low,10.0
541,High,left,90.0,2.9559622532393752,0.0,41.0,Low,10.0
542,High,right,90.0,3.365685373784199,1.0,42.0,Low,10.0
543,High,left,90.0,5.807613632065271,0.0,43.0,Low,10.0
544,High,left,90.0,4.268625912637948,0.0,44.0,Low,10.0
545,High,left,90.0,0.5313516887165226,1.0,45.0,Low,10.0
546,High,left,90.0,2.414554107186722,1.0,46.0,Low,10.0
547,High,right,90.0,2.552729994381994,1.0,47.0,Low,10.0
548,High,left,90.0,1.773358685120238,1.0,48.0,Low,10.0
549,High,right,90.0,5.798883273938699,1.0,49.0,Low,10.0
550,Low,left,90.0,4.10035084408275,1.0,0.0,High,11.0
551,Low,left,90.0,0.9093197151801514,0.0,1.0,High,11.0
552,Low,left,90.0,1.4416254665882242,0.0,2.0,High,11.0
553,Low,left,90.0,1.5211349582569473,0.0,3.0,High,11.0
554,Low,right,90.0,-0.07894243840883841,0.0,4.0,High,11.0
555,Low,left,90.0,2.2921677703063112,0.0,5.0,High,11.0
556,Low,right,90.0,2.88688182113436,0.0,6.0,High,11.0
557,Low,left,90.0,3.9571771157043614,0.0,7.0,High,11.0
558,Low,right,90.0,-0.511678849471068,0.0,8.0,High,11.0
559,Low,right,90.0,1.7508497530468872,1.0,9.0,High,11.0
560,Low,right,90.0,4.536841708749402,0.0,10.0,High,11.0
561,Low,left,90.0,1.8904608651047026,0.0,11.0,High,11.0
562,Low,left,90.0,0.5710519929503315,0.0,12.0,High,11.0
563,Low,left,90.0,0.8118138456840206,1.0,13.0,High,11.0
564,Low,right,90.0,2.0935190813049007,1.0,14.0,High,11.0
565,Low,right,90.0,2.4200038795282035,1.0,15.0,High,11.0
566,Low,left,90.0,1.5287709277503803,1.0,16.0,High,11.0
567,Low,right,90.0,1.0116006285224763,0.0,17.0,High,11.0
568,Low,right,90.0,3.605523407009849,1.0,18.0,High,11.0
569,Low,right,90.0,1.9246620140428328,1.0,19.0,High,11.0
570,Low,left,90.0,1.3926783821563748,0.0,20.0,High,11.0
571,Low,left,90.0,1.2176988064932792,1.0,21.0,High,11.0
572,Low,left,90.0,1.5417690370281756,1.0,22.0,High,11.0
573,Low,left,90.0,1.8314601213241293,0.0,23.0,High,11.0
574,Low,right,90.0,0.8222853764008365,0.0,24.0,High,11.0
575,Low,left,90.0,3.696740062217004,1.0,25.0,High,11.0
576,Low,right,90.0,3.965976219027541,0.0,26.0,High,11.0
577,Low,left,90.0,1.0634906337906755,1.0,27.0,High,11.0
578,Low,right,90.0,5.911040612920317,0.0,28.0,High,11.0
579,Low,left,90.0,-2.695049236609297,0.0,29.0,High,11.0
580,Low,left,90.0,2.5167586582260877,0.0,30.0,High,11.0
581,Low,right,90.0,7.302943740534302,0.0,31.0,High,11.0
582,Low,right,90.0,3.727920056825022,1.0,32.0,High,11.0
583,Low,right,90.0,2.9019317837586573,1.0,33.0,High,11.0
584,Low,left,90.0,-0.30316692324031047,1.0,34.0,High,11.0
585,Low,left,90.0,0.6449128034652152,1.0,35.0,High,11.0
586,Low,left,90.0,2.9052927849246415,1.0,36.0,High,11.0
587,Low,right,90.0,0.48562636463743636,1.0,37.0,High,11.0
588,Low,left,90.0,4.840888415860945,0.0,38.0,High,11.0
589,Low,left,90.0,2.50729447263305,1.0,39.0,High,11.0
590,Low,left,90.0,2.4345070450109265,1.0,40.0,High,11.0
591,Low,right,90.0,0.45668216039226417,0.0,41.0,High,11.0
592,Low,right,90.0,-1.666705925083545,0.0,42.0,High,11.0
593,Low,left,90.0,0.6077440237758838,1.0,43.0,High,11.0
594,Low,right,90.0,2.6334980349245702,1.0,44.0,High,11.0
595,Low,left,90.0,3.007762471989114,0.0,45.0,High,11.0
596,Low,left,90.0,2.164289693591547,0.0,46.0,High,11.0
597,Low,left,90.0,1.7569158914059702,1.0,47.0,High,11.0
598,Low,right,90.0,0.8244808290803914,1.0,48.0,High,11.0
599,Low,right,90.0,2.5785752315021737,1.0,49.0,High,11.0
