,Arousal,KeyPressed,LearningTime,RT,Response,TrialNumber,Valence,nBlock
0,High,right,30.0,0.2823436967187811,0.0,0.0,Low,0.0
1,High,right,30.0,-1.9172598211488228,0.0,1.0,Low,0.0
2,High,left,30.0,5.1364083148949105,1.0,2.0,Low,0.0
3,High,left,30.0,0.8605963490220365,0.0,3.0,Low,0.0
4,High,left,30.0,4.383111842360248,1.0,4.0,Low,0.0
5,High,right,30.0,0.28798359663963846,1.0,5.0,Low,0.0
6,High,right,30.0,4.157579434568046,1.0,6.0,Low,0.0
7,High,right,30.0,1.9482046554997967,1.0,7.0,Low,0.0
8,High,left,30.0,-0.6111748968108353,1.0,8.0,Low,0.0
9,High,left,30.0,1.527918818033477,0.0,9.0,Low,0.0
10,High,left,30.0,1.4446730809023391,0.0,10.0,Low,0.0
11,High,right,30.0,3.5224646534521495,1.0,11.0,Low,0.0
12,High,right,30.0,0.15389155062860516,1.0,12.0,Low,0.0
13,High,right,30.0,-0.913583699171379,0.0,13.0,Low,0.0
14,High,left,30.0,2.414961043759447,1.0,14.0,Low,0.0
15,High,left,30.0,0.877216025646109,1.0,15.0,Low,0.0
16,High,left,30.0,2.742911802604898,1.0,16.0,Low,0.0
17,High,right,30.0,1.035261481947788,0.0,17.0,Low,0.0
18,High,right,30.0,0.5079214431340695,0.0,18.0,Low,0.0
19,High,right,30.0,3.2274570524547315,1.0,19.0,Low,0.0
20,High,left,30.0,1.0160100232230254,0.0,20.0,Low,0.0
21,High,right,30.0,0.36104249753700257,0.0,21.0,Low,0.0
22,High,left,30.0,-3.029791083049123,1.0,22.0,Low,0.0
23,High,right,30.0,0.4978428273620408,1.0,23.0,Low,0.0
24,High,right,30.0,3.643910225540256,1.0,24.0,Low,0.0
25,High,left,30.0,3.9390980231772073,0.0,25.0,Low,0.0
26,High,right,30.0,3.518917801894508,1.0,26.0,Low,0.0
27,High,left,30.0,2.2606075014917653,1.0,27.0,Low,0.0
28,High,right,30.0,2.670641458319068,1.0,28.0,Low,0.0
29,High,right,30.0,3.3866928189383203,0.0,29.0,Low,0.0
30,High,left,30.0,0.24221912699336157,1.0,30.0,Low,0.0
31,High,left,30.0,2.252128443829826,0.0,31.0,Low,0.0
32,High,left,30.0,2.062483777824845,1.0,32.0,Low,0.0
33,High,right,30.0,3.73208194762955,1.0,33.0,Low,0.0
34,High,right,30.0,-0.30907410898400256,0.0,34.0,Low,0.0
35,High,left,30.0,0.34513911799889674,1.0,35.0,Low,0.0
36,High,left,30.0,2.4446441230929374,1.0,36.0,Low,0.0
37,High,left,30.0,2.023979265973562,0.0,37.0,Low,0.0
38,High,left,30.0,-2.5745733513473965,0.0,38.0,Low,0.0
39,High,left,30.0,-0.3859531646861709,1.0,39.0,Low,0.0
40,High,left,30.0,1.0043957846067788,1.0,40.0,Low,0.0
41,High,left,30.0,-1.1163550349039673,0.0,41.0,Low,0.0
42,High,left,30.0,4.101656369589291,0.0,42.0,Low,0.0
43,High,left,30.0,3.477971051624965,1.0,43.0,Low,0.0
44,High,right,30.0,0.8968703406314873,1.0,44.0,Low,0.0
45,High,right,30.0,-0.8763273938612843,1.0,45.0,Low,0.0
46,High,right,30.0,5.160416369460215,0.0,46.0,Low,0.0
47,High,left,30.0,3.0854182973069664,1.0,47.0,Low,0.0
48,High,right,30.0,0.8077034624808055,0.0,48.0,Low,0.0
49,High,left,30.0,1.777413085672983,0.0,49.0,Low,0.0
50,Low,right,30.0,-0.566658730713959,1.0,0.0,High,1.0
51,Low,right,30.0,2.3516399214078123,1.0,1.0,High,1.0
52,Low,right,30.0,-0.7253353536870164,1.0,2.0,High,1.0
53,Low,right,30.0,2.8917053683117855,1.0,3.0,High,1.0
54,Low,right,30.0,0.33087754901220245,1.0,4.0,High,1.0
55,Low,left,30.0,-0.9138172041511452,1.0,5.0,High,1.0
56,Low,left,30.0,3.1685839577237704,0.0,6.0,High,1.0
57,Low,right,30.0,-1.7122841549315806,1.0,7.0,High,1.0
58,Low,right,30.0,4.767561834504357,1.0,8.0,High,1.0
59,Low,left,30.0,1.427585187594264,1.0,9.0,High,1.0
60,Low,left,30.0,3.514240182695508,0.0,10.0,High,1.0
61,Low,left,30.0,0.2740149604114446,0.0,11.0,High,1.0
62,Low,right,30.0,-0.8884092686750513,0.0,12.0,High,1.0
63,Low,left,30.0,1.975137925668746,0.0,13.0,High,1.0
64,Low,right,30.0,6.236055236306414,0.0,14.0,High,1.0
65,Low,right,30.0,0.5766392086853589,0.0,15.0,High,1.0
66,Low,right,30.0,-1.9168294779872475,0.0,16.0,High,1.0
67,Low,left,30.0,2.455932519450814,0.0,17.0,High,1.0
68,Low,left,30.0,1.5876675191107936,0.0,18.0,High,1.0
69,Low,left,30.0,3.201337909193493,0.0,19.0,High,1.0
70,Low,right,30.0,3.8618204401189544,0.0,20.0,High,1.0
71,Low,left,30.0,3.9151840607055894,0.0,21.0,High,1.0
72,Low,right,30.0,0.20951716248864583,0.0,22.0,High,1.0
73,Low,left,30.0,3.0321226321160806,1.0,23.0,High,1.0
74,Low,right,30.0,0.8245426233037382,0.0,24.0,High,1.0
75,Low,right,30.0,0.5919269855232592,1.0,25.0,High,1.0
76,Low,right,30.0,2.9482776154237937,0.0,26.0,High,1.0
77,Low,right,30.0,-1.5758653505846236,1.0,27.0,High,1.0
78,Low,right,30.0,5.758125119487069,0.0,28.0,High,1.0
79,Low,left,30.0,3.1084080477357814,0.0,29.0,High,1.0
80,Low,left,30.0,5.464190600614858,0.0,30.0,High,1.0
81,Low,right,30.0,2.8061067849415573,1.0,31.0,High,1.0
82,Low,right,30.0,3.702842611846096,1.0,32.0,High,1.0
83,Low,right,30.0,0.17152757882972747,1.0,33.0,High,1.0
84,Low,left,30.0,1.2903499017953073,0.0,34.0,High,1.0
85,Low,right,30.0,4.180920621111204,0.0,35.0,High,1.0
86,Low,right,30.0,-3.09115888713682,1.0,36.0,High,1.0
87,Low,left,30.0,2.5112527134972433,1.0,37.0,High,1.0
88,Low,right,30.0,-0.7634741737660886,0.0,38.0,High,1.0
89,Low,right,30.0,2.269290479392972,1.0,39.0,High,1.0
90,Low,left,30.0,5.319032031537354,0.0,40.0,High,1.0
91,Low,right,30.0,0.5694561043261347,0.0,41.0,High,1.0
92,Low,right,30.0,2.5472494743837486,1.0,42.0,High,1.0
93,Low,right,30.0,1.3532393689768583,0.0,43.0,High,1.0
94,Low,right,30.0,0.35982765013375373,1.0,44.0,High,1.0
95,Low,right,30.0,1.9502709712579511,1.0,45.0,High,1.0
96,Low,right,30.0,0.30803502761113233,0.0,46.0,High,1.0
97,Low,right,30.0,1.3181365140982628,1.0,47.0,High,1.0
98,Low,right,30.0,1.815886199638244,0.0,48.0,High,1.0
99,Low,left,30.0,1.8948712949122029,0.0,49.0,High,1.0
100,High,right,60.0,3.9442729056876145,1.0,0.0,Low,2.0
101,High,right,60.0,-3.379896442241936,1.0,1.0,Low,2.0
102,High,right,60.0,1.2342527462940684,0.0,2.0,Low,2.0
103,High,right,60.0,-1.9514546358037714,1.0,3.0,Low,2.0
104,High,right,60.0,4.449412304205018,1.0,4.0,Low,2.0
105,High,left,60.0,-0.5779221487689552,0.0,5.0,Low,2.0
106,High,right,60.0,0.24545306037360048,0.0,6.0,Low,2.0
107,High,left,60.0,1.6362495196278162,0.0,7.0,Low,2.0
108,High,left,60.0,4.786103944718821,0.0,8.0,Low,2.0
109,High,right,60.0,-3.948860210956997,1.0,9.0,Low,2.0
110,High,right,60.0,2.5219668771499633,1.0,10.0,Low,2.0
111,High,left,60.0,2.730049682702968,0.0,11.0,Low,2.0
112,High,left,60.0,0.07640670310796449,1.0,12.0,Low,2.0
113,High,left,60.0,1.4172574205855344,1.0,13.0,Low,2.0
114,High,left,60.0,4.152879253562327,1.0,14.0,Low,2.0
115,High,right,60.0,1.3376562433664354,1.0,15.0,Low,2.0
116,High,left,60.0,2.174650077223789,0.0,16.0,Low,2.0
117,High,right,60.0,3.293752999129065,0.0,17.0,Low,2.0
118,High,left,60.0,-0.3408051700077468,0.0,18.0,Low,2.0
119,High,left,60.0,2.110481415871278,1.0,19.0,Low,2.0
120,High,left,60.0,-1.7960241957231844,0.0,20.0,Low,2.0
121,High,right,60.0,3.8111206815404683,0.0,21.0,Low,2.0
122,High,right,60.0,2.797742598939008,1.0,22.0,Low,2.0
123,High,right,60.0,-0.08669637584780188,1.0,23.0,Low,2.0
124,High,right,60.0,4.443185114141812,0.0,24.0,Low,2.0
125,High,right,60.0,2.2525068839255726,0.0,25.0,Low,2.0
126,High,left,60.0,2.9028602105547554,1.0,26.0,Low,2.0
127,High,left,60.0,3.4998713904950796,1.0,27.0,Low,2.0
128,High,right,60.0,2.4410457697741514,1.0,28.0,Low,2.0
129,High,right,60.0,1.7570866518617714,0.0,29.0,Low,2.0
130,High,left,60.0,1.6206109294812066,0.0,30.0,Low,2.0
131,High,right,60.0,5.191032282497219,0.0,31.0,Low,2.0
132,High,left,60.0,0.8922604121332152,0.0,32.0,Low,2.0
133,High,right,60.0,1.8139197832182619,0.0,33.0,Low,2.0
134,High,right,60.0,-0.12583972900204676,0.0,34.0,Low,2.0
135,High,right,60.0,2.2629138936932955,1.0,35.0,Low,2.0
136,High,left,60.0,-0.516526152951162,0.0,36.0,Low,2.0
137,High,right,60.0,2.7707319218595057,1.0,37.0,Low,2.0
138,High,left,60.0,8.693656830886857,0.0,38.0,Low,2.0
139,High,left,60.0,5.851883816811862,1.0,39.0,Low,2.0
140,High,left,60.0,1.4840649262184402,0.0,40.0,Low,2.0
141,High,left,60.0,5.225147164727888,0.0,41.0,Low,2.0
142,High,right,60.0,2.376192571585977,0.0,42.0,Low,2.0
143,High,left,60.0,1.229572401511606,1.0,43.0,Low,2.0
144,High,right,60.0,1.9052923318683108,1.0,44.0,Low,2.0
145,High,left,60.0,4.9079174075714285,0.0,45.0,Low,2.0
146,High,left,60.0,2.8973665287403625,1.0,46.0,Low,2.0
147,High,left,60.0,0.7661774989304646,1.0,47.0,Low,2.0
148,High,right,60.0,-3.1963636843768377,0.0,48.0,Low,2.0
149,High,right,60.0,2.2181261067823277,1.0,49.0,Low,2.0
150,Low,right,60.0,4.471934546012209,1.0,0.0,High,3.0
151,Low,left,60.0,2.0036698911846322,0.0,1.0,High,3.0
152,Low,left,60.0,0.8950515933469105,0.0,2.0,High,3.0
153,Low,right,60.0,4.000438485678645,1.0,3.0,High,3.0
154,Low,right,60.0,3.585416494898227,0.0,4.0,High,3.0
155,Low,left,60.0,3.727894304350004,0.0,5.0,High,3.0
156,Low,right,60.0,3.4326705666033637,0.0,6.0,High,3.0
157,Low,right,60.0,-0.369957171349788,0.0,7.0,High,3.0
158,Low,right,60.0,0.8743959094921545,0.0,8.0,High,3.0
159,Low,right,60.0,0.44262567533007546,1.0,9.0,High,3.0
160,Low,left,60.0,6.005744561206661,1.0,10.0,High,3.0
161,Low,right,60.0,-1.3053421272855439,0.0,11.0,High,3.0
162,Low,right,60.0,2.126540857801864,1.0,12.0,High,3.0
163,Low,right,60.0,-0.33800963614735524,0.0,13.0,High,3.0
164,Low,right,60.0,-0.14225595123825308,1.0,14.0,High,3.0
165,Low,right,60.0,-0.1222030207009599,1.0,15.0,High,3.0
166,Low,left,60.0,0.0942520219196763,0.0,16.0,High,3.0
167,Low,right,60.0,1.4339978061207024,1.0,17.0,High,3.0
168,Low,right,60.0,3.2423667084242274,0.0,18.0,High,3.0
169,Low,right,60.0,1.2852937002917986,0.0,19.0,High,3.0
170,Low,left,60.0,2.925682602262645,0.0,20.0,High,3.0
171,Low,left,60.0,0.9410719471411839,0.0,21.0,High,3.0
172,Low,right,60.0,2.001607576362577,0.0,22.0,High,3.0
173,Low,right,60.0,3.418973057518217,0.0,23.0,High,3.0
174,Low,left,60.0,2.7894222648309226,0.0,24.0,High,3.0
175,Low,right,60.0,6.08700068643965,1.0,25.0,High,3.0
176,Low,right,60.0,4.300372304621252,1.0,26.0,High,3.0
177,Low,right,60.0,0.5813035358974834,0.0,27.0,High,3.0
178,Low,right,60.0,2.0869819532726726,0.0,28.0,High,3.0
179,Low,left,60.0,3.531902274041456,0.0,29.0,High,3.0
180,Low,right,60.0,-4.436719916786686,0.0,30.0,High,3.0
181,Low,right,60.0,5.710183193170634,1.0,31.0,High,3.0
182,Low,left,60.0,-1.0930283638487068,0.0,32.0,High,3.0
183,Low,right,60.0,2.0013383223681838,1.0,33.0,High,3.0
184,Low,left,60.0,4.2009443205902155,0.0,34.0,High,3.0
185,Low,right,60.0,1.4974285102588203,0.0,35.0,High,3.0
186,Low,left,60.0,2.5808225282699198,1.0,36.0,High,3.0
187,Low,right,60.0,-0.8062400926135616,0.0,37.0,High,3.0
188,Low,left,60.0,3.281045481814135,0.0,38.0,High,3.0
189,Low,left,60.0,3.050511033216429,0.0,39.0,High,3.0
190,Low,right,60.0,5.808770462749919,0.0,40.0,High,3.0
191,Low,left,60.0,3.5302936648378846,0.0,41.0,High,3.0
192,Low,left,60.0,1.7527826346127127,1.0,42.0,High,3.0
193,Low,right,60.0,1.6162405967021556,0.0,43.0,High,3.0
194,Low,right,60.0,-1.1800927051260222,1.0,44.0,High,3.0
195,Low,left,60.0,0.9836243477291999,0.0,45.0,High,3.0
196,Low,right,60.0,2.362348161509713,0.0,46.0,High,3.0
197,Low,right,60.0,1.9373799485738574,1.0,47.0,High,3.0
198,Low,left,60.0,3.8963286666749593,0.0,48.0,High,3.0
199,Low,left,60.0,-1.0494497487607166,1.0,49.0,High,3.0
200,High,left,30.0,-2.3045492607588614,0.0,0.0,High,4.0
201,High,right,30.0,4.5819233608862024,0.0,1.0,High,4.0
202,High,right,30.0,-0.8606049708083447,1.0,2.0,High,4.0
203,High,left,30.0,0.7483039924463373,1.0,3.0,High,4.0
204,High,right,30.0,4.61495950059842,1.0,4.0,High,4.0
205,High,left,30.0,-0.023174982328183935,1.0,5.0,High,4.0
206,High,left,30.0,5.916176063920936,1.0,6.0,High,4.0
207,High,right,30.0,1.8253118432947104,0.0,7.0,High,4.0
208,High,left,30.0,-2.5667933451909946,0.0,8.0,High,4.0
209,High,left,30.0,2.7957809138490988,1.0,9.0,High,4.0
210,High,left,30.0,7.5349766909617655,0.0,10.0,High,4.0
211,High,right,30.0,-5.976227775884186,0.0,11.0,High,4.0
212,High,left,30.0,2.9031335337973663,1.0,12.0,High,4.0
213,High,left,30.0,5.203869910963025,0.0,13.0,High,4.0
214,High,right,30.0,5.559346328309806,0.0,14.0,High,4.0
215,High,left,30.0,1.710242238440947,1.0,15.0,High,4.0
216,High,left,30.0,-2.9877180070772704,1.0,16.0,High,4.0
217,High,left,30.0,1.573866958606148,1.0,17.0,High,4.0
218,High,right,30.0,0.07018153859432008,0.0,18.0,High,4.0
219,High,right,30.0,-1.0082263333682628,1.0,19.0,High,4.0
220,High,right,30.0,0.1449239364969559,0.0,20.0,High,4.0
221,High,right,30.0,6.138440516612661,0.0,21.0,High,4.0
222,High,left,30.0,0.9181323767091681,0.0,22.0,High,4.0
223,High,left,30.0,4.566469156465463,1.0,23.0,High,4.0
224,High,right,30.0,0.4583997366379138,1.0,24.0,High,4.0
225,High,right,30.0,1.4472397537039323,1.0,25.0,High,4.0
226,High,right,30.0,3.276294725429194,0.0,26.0,High,4.0
227,High,right,30.0,-0.8814325633490516,0.0,27.0,High,4.0
228,High,right,30.0,3.6045585334660126,0.0,28.0,High,4.0
229,High,right,30.0,5.593839418204443,0.0,29.0,High,4.0
230,High,left,30.0,4.407191633112435,0.0,30.0,High,4.0
231,High,left,30.0,2.294059872925638,1.0,31.0,High,4.0
232,High,left,30.0,10.370300209985123,0.0,32.0,High,4.0
233,High,right,30.0,-1.3433377138250167,0.0,33.0,High,4.0
234,High,left,30.0,-3.073366607601318,0.0,34.0,High,4.0
235,High,right,30.0,-1.0482793260588057,0.0,35.0,High,4.0
236,High,right,30.0,-0.16428903765832414,1.0,36.0,High,4.0
237,High,right,30.0,4.564119374226368,1.0,37.0,High,4.0
238,High,left,30.0,-0.1933853978221831,0.0,38.0,High,4.0
239,High,left,30.0,4.915786704388364,0.0,39.0,High,4.0
240,High,right,30.0,4.297654048089598,0.0,40.0,High,4.0
241,High,right,30.0,1.350623703073093,0.0,41.0,High,4.0
242,High,left,30.0,-1.1243820791285777,0.0,42.0,High,4.0
243,High,left,30.0,1.5902734889208279,1.0,43.0,High,4.0
244,High,right,30.0,1.0245842532702418,1.0,44.0,High,4.0
245,High,right,30.0,1.5476100597336788,1.0,45.0,High,4.0
246,High,right,30.0,1.7330197500840998,1.0,46.0,High,4.0
247,High,left,30.0,4.934067899354561,1.0,47.0,High,4.0
248,High,left,30.0,-0.10313907494122909,1.0,48.0,High,4.0
249,High,right,30.0,-0.15109746643338773,0.0,49.0,High,4.0
250,Low,left,30.0,2.2087204640909865,1.0,0.0,Low,5.0
251,Low,left,30.0,3.707786038633742,0.0,1.0,Low,5.0
252,Low,right,30.0,-2.1227989587665648,1.0,2.0,Low,5.0
253,Low,right,30.0,3.2991185383906085,1.0,3.0,Low,5.0
254,Low,left,30.0,0.028951969242248854,1.0,4.0,Low,5.0
255,Low,right,30.0,0.48345700368288425,1.0,5.0,Low,5.0
256,Low,right,30.0,3.4189740430619446,1.0,6.0,Low,5.0
257,Low,left,30.0,-0.4570250211772615,0.0,7.0,Low,5.0
258,Low,right,30.0,-0.06645388099236671,0.0,8.0,Low,5.0
259,Low,right,30.0,4.9989135440897945,1.0,9.0,Low,5.0
260,Low,left,30.0,4.5004697598120496,1.0,10.0,Low,5.0
261,Low,left,30.0,6.33342988070301,0.0,11.0,Low,5.0
262,Low,left,30.0,1.282984531460389,1.0,12.0,Low,5.0
263,Low,right,30.0,4.809750971055635,0.0,13.0,Low,5.0
264,Low,left,30.0,3.246659129876258,0.0,14.0,Low,5.0
265,Low,left,30.0,1.1625224702198302,1.0,15.0,Low,5.0
266,Low,left,30.0,5.4081829896144695,1.0,16.0,Low,5.0
267,Low,right,30.0,0.8610065979011006,0.0,17.0,Low,5.0
268,Low,left,30.0,2.101155476586377,1.0,18.0,Low,5.0
269,Low,right,30.0,2.341440650601129,1.0,19.0,Low,5.0
270,Low,left,30.0,2.2735964895180887,0.0,20.0,Low,5.0
271,Low,right,30.0,4.07955552309725,0.0,21.0,Low,5.0
272,Low,left,30.0,3.7582241827388074,0.0,22.0,Low,5.0
273,Low,left,30.0,2.5618864767922935,0.0,23.0,Low,5.0
274,Low,left,30.0,2.7941948304841873,1.0,24.0,Low,5.0
275,Low,right,30.0,-0.5760338371924065,1.0,25.0,Low,5.0
276,Low,right,30.0,-2.5146502032380935,1.0,26.0,Low,5.0
277,Low,right,30.0,0.09879993893503647,0.0,27.0,Low,5.0
278,Low,right,30.0,2.7609105199444772,0.0,28.0,Low,5.0
279,Low,left,30.0,1.9725409013066386,0.0,29.0,Low,5.0
280,Low,right,30.0,3.044573263831415,1.0,30.0,Low,5.0
281,Low,right,30.0,1.8012432168705799,1.0,31.0,Low,5.0
282,Low,left,30.0,1.2992089029437035,1.0,32.0,Low,5.0
283,Low,left,30.0,3.385209327094095,0.0,33.0,Low,5.0
284,Low,left,30.0,0.22453524990466667,0.0,34.0,Low,5.0
285,Low,right,30.0,4.328222604406319,0.0,35.0,Low,5.0
286,Low,left,30.0,2.7250766556234547,1.0,36.0,Low,5.0
287,Low,left,30.0,0.12846720340330742,0.0,37.0,Low,5.0
288,Low,right,30.0,2.442358559268525,1.0,38.0,Low,5.0
289,Low,left,30.0,1.4380962939657844,1.0,39.0,Low,5.0
290,Low,right,30.0,-0.3097647753614281,1.0,40.0,Low,5.0
291,Low,right,30.0,3.320965912990774,1.0,41.0,Low,5.0
292,Low,left,30.0,2.234886244006486,1.0,42.0,Low,5.0
293,Low,right,30.0,3.222932268808995,1.0,43.0,Low,5.0
294,Low,right,30.0,0.01403226668464752,1.0,44.0,Low,5.0
295,Low,left,30.0,4.0023821029932405,0.0,45.0,Low,5.0
296,Low,left,30.0,0.25770044397286473,0.0,46.0,Low,5.0
297,Low,left,30.0,3.6871277308476316,0.0,47.0,Low,5.0
298,Low,left,30.0,0.09400655422455673,0.0,48.0,Low,5.0
299,Low,right,30.0,2.159852832588993,0.0,49.0,Low,5.0
300,High,left,60.0,2.8292899380758474,0.0,0.0,High,6.0
301,High,right,60.0,0.24065188234707757,1.0,1.0,High,6.0
302,High,right,60.0,5.79545998894319,0.0,2.0,High,6.0
303,High,left,60.0,3.7402264936796987,1.0,3.0,High,6.0
304,High,right,60.0,1.4221264823347584,1.0,4.0,High,6.0
305,High,left,60.0,1.4044494331107447,1.0,5.0,High,6.0
306,High,right,60.0,2.2560293877288564,1.0,6.0,High,6.0
307,High,left,60.0,0.8638029642277527,0.0,7.0,High,6.0
308,High,left,60.0,2.991055549772843,0.0,8.0,High,6.0
309,High,left,60.0,0.6687575529689949,0.0,9.0,High,6.0
310,High,left,60.0,3.0755689415126244,0.0,10.0,High,6.0
311,High,right,60.0,-0.1063497000137612,0.0,11.0,High,6.0
312,High,left,60.0,0.17973119591774234,1.0,12.0,High,6.0
313,High,left,60.0,1.0927546421149223,1.0,13.0,High,6.0
314,High,right,60.0,0.03061638882397455,0.0,14.0,High,6.0
315,High,left,60.0,-1.1014075569158395,1.0,15.0,High,6.0
316,High,left,60.0,0.5022282158407549,1.0,16.0,High,6.0
317,High,left,60.0,1.7318316174910664,1.0,17.0,High,6.0
318,High,right,60.0,3.1464706700824707,1.0,18.0,High,6.0
319,High,right,60.0,7.655040706795468,1.0,19.0,High,6.0
320,High,left,60.0,4.526587197125362,1.0,20.0,High,6.0
321,High,left,60.0,2.8980659036182637,1.0,21.0,High,6.0
322,High,right,60.0,1.1481014003899355,1.0,22.0,High,6.0
323,High,right,60.0,1.103602044437885,1.0,23.0,High,6.0
324,High,left,60.0,3.123211774179401,0.0,24.0,High,6.0
325,High,left,60.0,1.827853779666802,1.0,25.0,High,6.0
326,High,left,60.0,1.1693749396959003,0.0,26.0,High,6.0
327,High,left,60.0,0.8818554062076268,0.0,27.0,High,6.0
328,High,right,60.0,3.7098450827302463,1.0,28.0,High,6.0
329,High,right,60.0,3.7982646686814086,1.0,29.0,High,6.0
330,High,right,60.0,1.1021100371227075,0.0,30.0,High,6.0
331,High,left,60.0,2.0099298992677905,0.0,31.0,High,6.0
332,High,right,60.0,-0.11209401139344521,0.0,32.0,High,6.0
333,High,left,60.0,2.6384518223759694,1.0,33.0,High,6.0
334,High,left,60.0,7.004715464782799,0.0,34.0,High,6.0
335,High,left,60.0,-1.1616349422773191,0.0,35.0,High,6.0
336,High,left,60.0,5.140658297921371,1.0,36.0,High,6.0
337,High,left,60.0,3.697651189171985,1.0,37.0,High,6.0
338,High,right,60.0,1.702734816724777,1.0,38.0,High,6.0
339,High,right,60.0,-0.25304571361689954,0.0,39.0,High,6.0
340,High,right,60.0,3.384883151208792,0.0,40.0,High,6.0
341,High,right,60.0,1.7826358827325919,1.0,41.0,High,6.0
342,High,right,60.0,3.5610808527417324,1.0,42.0,High,6.0
343,High,left,60.0,1.343626144197624,1.0,43.0,High,6.0
344,High,left,60.0,6.76614034906299,1.0,44.0,High,6.0
345,High,right,60.0,0.5385090631092316,0.0,45.0,High,6.0
346,High,right,60.0,3.4248537351197763,0.0,46.0,High,6.0
347,High,left,60.0,0.41369329081872497,0.0,47.0,High,6.0
348,High,left,60.0,-1.279664398088221,1.0,48.0,High,6.0
349,High,left,60.0,4.7079568146970985,0.0,49.0,High,6.0
350,Low,right,60.0,3.5838516093355084,0.0,0.0,Low,7.0
351,Low,left,60.0,4.449242752872374,1.0,1.0,Low,7.0
352,Low,left,60.0,0.7779102608773991,1.0,2.0,Low,7.0
353,Low,left,60.0,1.6202623602808108,1.0,3.0,Low,7.0
354,Low,right,60.0,3.1576070090158663,1.0,4.0,Low,7.0
355,Low,left,60.0,4.026246709373176,0.0,5.0,Low,7.0
356,Low,left,60.0,3.334626296676112,0.0,6.0,Low,7.0
357,Low,left,60.0,4.094908620166387,0.0,7.0,Low,7.0
358,Low,left,60.0,-2.722058763156894,1.0,8.0,Low,7.0
359,Low,left,60.0,4.6785671036330925,1.0,9.0,Low,7.0
360,Low,left,60.0,2.5986782654450926,1.0,10.0,Low,7.0
361,Low,right,60.0,3.672524804549823,1.0,11.0,Low,7.0
362,Low,right,60.0,2.655623936485923,0.0,12.0,Low,7.0
363,Low,left,60.0,1.848552983219264,1.0,13.0,Low,7.0
364,Low,left,60.0,0.44765137716531034,1.0,14.0,Low,7.0
365,Low,right,60.0,2.9414469310916145,0.0,15.0,Low,7.0
366,Low,right,60.0,1.595014486722812,1.0,16.0,Low,7.0
367,Low,left,60.0,0.2815370160865802,1.0,17.0,Low,7.0
368,Low,left,60.0,2.9611322586231017,0.0,18.0,Low,7.0
369,Low,left,60.0,2.5590833198781016,0.0,19.0,Low,7.0
370,Low,right,60.0,1.6648221226023479,1.0,20.0,Low,7.0
371,Low,right,60.0,4.003507112536217,0.0,21.0,Low,7.0
372,Low,left,60.0,-0.32737681096039206,1.0,22.0,Low,7.0
373,Low,right,60.0,3.6192723812915713,0.0,23.0,Low,7.0
374,Low,right,60.0,5.560335642453943,1.0,24.0,Low,7.0
375,Low,left,60.0,5.173117941639905,0.0,25.0,Low,7.0
376,Low,left,60.0,-2.132770161573036,1.0,26.0,Low,7.0
377,Low,left,60.0,2.880270476136413,1.0,27.0,Low,7.0
378,Low,left,60.0,1.3910104975244628,1.0,28.0,Low,7.0
379,Low,right,60.0,0.3947507081843833,0.0,29.0,Low,7.0
380,Low,left,60.0,1.1420549506580013,0.0,30.0,Low,7.0
381,Low,right,60.0,7.0108765818888745,0.0,31.0,Low,7.0
382,Low,right,60.0,-0.7895965567263343,0.0,32.0,Low,7.0
383,Low,left,60.0,1.3265963694501102,0.0,33.0,Low,7.0
384,Low,right,60.0,1.495033032739402,0.0,34.0,Low,7.0
385,Low,left,60.0,-0.719970793691227,1.0,35.0,Low,7.0
386,Low,right,60.0,3.54166668436715,1.0,36.0,Low,7.0
387,Low,left,60.0,0.722059601508914,1.0,37.0,Low,7.0
388,Low,left,60.0,4.808234431530023,0.0,38.0,Low,7.0
389,Low,left,60.0,1.8192682783746004,1.0,39.0,Low,7.0
390,Low,right,60.0,-0.8996625696565985,0.0,40.0,Low,7.0
391,Low,left,60.0,0.7202446534636537,1.0,41.0,Low,7.0
392,Low,right,60.0,0.8586366171717056,0.0,42.0,Low,7.0
393,Low,left,60.0,0.49176578931638026,1.0,43.0,Low,7.0
394,Low,right,60.0,1.3150607406284738,0.0,44.0,Low,7.0
395,Low,left,60.0,-0.6133562288493126,1.0,45.0,Low,7.0
396,Low,right,60.0,3.5995728685901955,0.0,46.0,Low,7.0
397,Low,right,60.0,0.4784221122898571,1.0,47.0,Low,7.0
398,Low,left,60.0,3.040024262015056,1.0,48.0,Low,7.0
399,Low,left,60.0,2.0456348540536102,1.0,49.0,Low,7.0
400,High,right,90.0,-2.208267202617235,0.0,0.0,Low,8.0
401,High,right,90.0,6.556958370955,0.0,1.0,Low,8.0
402,High,right,90.0,1.9032527251747664,0.0,2.0,Low,8.0
403,High,left,90.0,1.3292786224834165,1.0,3.0,Low,8.0
404,High,right,90.0,0.9478051514210148,1.0,4.0,Low,8.0
405,High,left,90.0,-0.6823102845723121,0.0,5.0,Low,8.0
406,High,left,90.0,2.3525712674894996,0.0,6.0,Low,8.0
407,High,left,90.0,2.3803361436625368,1.0,7.0,Low,8.0
408,High,right,90.0,0.7285280627368332,0.0,8.0,Low,8.0
409,High,left,90.0,-0.3252037958903726,0.0,9.0,Low,8.0
410,High,right,90.0,1.602760811540183,0.0,10.0,Low,8.0
411,High,left,90.0,-0.9213127912953825,0.0,11.0,Low,8.0
412,High,right,90.0,4.837217114995593,1.0,12.0,Low,8.0
413,High,left,90.0,6.9216841391979145,1.0,13.0,Low,8.0
414,High,left,90.0,-0.12446450709587986,1.0,14.0,Low,8.0
415,High,right,90.0,2.3922022976171333,1.0,15.0,Low,8.0
416,High,left,90.0,2.1530478481624673,0.0,16.0,Low,8.0
417,High,left,90.0,7.092247822783749,1.0,17.0,Low,8.0
418,High,right,90.0,0.3928394686677015,1.0,18.0,Low,8.0
419,High,right,90.0,1.0617010669740232,1.0,19.0,Low,8.0
420,High,right,90.0,-2.1189667023682968,1.0,20.0,Low,8.0
421,High,right,90.0,-1.6792923254243879,0.0,21.0,Low,8.0
422,High,right,90.0,0.4342397717143478,1.0,22.0,Low,8.0
423,High,right,90.0,1.266155208502972,1.0,23.0,Low,8.0
424,High,left,90.0,2.1134329225925943,0.0,24.0,Low,8.0
425,High,right,90.0,2.7322333917543196,0.0,25.0,Low,8.0
426,High,right,90.0,2.49489915290472,1.0,26.0,Low,8.0
427,High,left,90.0,3.674356388282925,1.0,27.0,Low,8.0
428,High,right,90.0,0.7237863526035948,1.0,28.0,Low,8.0
429,High,right,90.0,2.3968876096048444,1.0,29.0,Low,8.0
430,High,left,90.0,2.9637913848851003,1.0,30.0,Low,8.0
431,High,left,90.0,-0.6019692135028718,0.0,31.0,Low,8.0
432,High,right,90.0,-1.1486048657702743,1.0,32.0,Low,8.0
433,High,left,90.0,-1.8034848522156306,1.0,33.0,Low,8.0
434,High,left,90.0,1.6204972040174654,1.0,34.0,Low,8.0
435,High,left,90.0,4.309443568154631,1.0,35.0,Low,8.0
436,High,right,90.0,-0.5588006971142088,0.0,36.0,Low,8.0
437,High,right,90.0,0.7254912400617337,1.0,37.0,Low,8.0
438,High,right,90.0,3.4220826554632837,0.0,38.0,Low,8.0
439,High,right,90.0,5.538682880112747,0.0,39.0,Low,8.0
440,High,left,90.0,6.784786700435971,1.0,40.0,Low,8.0
441,High,right,90.0,2.6837928112197282,1.0,41.0,Low,8.0
442,High,right,90.0,3.344307738641248,1.0,42.0,Low,8.0
443,High,right,90.0,7.609582212498786,0.0,43.0,Low,8.0
444,High,left,90.0,-1.0427543357411206,0.0,44.0,Low,8.0
445,High,left,90.0,3.226373647357385,0.0,45.0,Low,8.0
446,High,left,90.0,-0.40847669055214597,0.0,46.0,Low,8.0
447,High,right,90.0,3.2263970841329,0.0,47.0,Low,8.0
448,High,left,90.0,3.1309386905921888,1.0,48.0,Low,8.0
449,High,right,90.0,0.869272015866335,0.0,49.0,Low,8.0
450,Low,right,90.0,-0.020728677985413002,0.0,0.0,Low,9.0
451,Low,right,90.0,0.8481958510212579,0.0,1.0,Low,9.0
452,Low,right,90.0,3.720450204454465,0.0,2.0,Low,9.0
453,Low,right,90.0,1.201461023030874,0.0,3.0,Low,9.0
454,Low,right,90.0,2.6123230135970408,1.0,4.0,Low,9.0
455,Low,right,90.0,1.5400566816358061,0.0,5.0,Low,9.0
456,Low,left,90.0,5.0686474282275,0.0,6.0,Low,9.0
457,Low,left,90.0,0.6301524975270196,1.0,7.0,Low,9.0
458,Low,left,90.0,4.849739395335974,1.0,8.0,Low,9.0
459,Low,right,90.0,3.5542617771717957,0.0,9.0,Low,9.0
460,Low,right,90.0,3.1212419435939363,1.0,10.0,Low,9.0
461,Low,left,90.0,3.021023179906398,0.0,11.0,Low,9.0
462,Low,left,90.0,1.9159357988085812,1.0,12.0,Low,9.0
463,Low,left,90.0,2.284407435641206,1.0,13.0,Low,9.0
464,Low,right,90.0,1.1100768890865702,0.0,14.0,Low,9.0
465,Low,right,90.0,4.81623549367473,1.0,15.0,Low,9.0
466,Low,left,90.0,1.7891768089113733,0.0,16.0,Low,9.0
467,Low,right,90.0,5.253059176395547,1.0,17.0,Low,9.0
468,Low,left,90.0,1.7772186365125662,1.0,18.0,Low,9.0
469,Low,right,90.0,5.284683467733849,1.0,19.0,Low,9.0
470,Low,left,90.0,2.354187202238009,0.0,20.0,Low,9.0
471,Low,right,90.0,0.8943120361902515,1.0,21.0,Low,9.0
472,Low,left,90.0,2.5627654364464374,0.0,22.0,Low,9.0
473,Low,right,90.0,-0.22974149188737858,0.0,23.0,Low,9.0
474,Low,left,90.0,2.452416119508328,1.0,24.0,Low,9.0
475,Low,right,90.0,1.260501555076171,0.0,25.0,Low,9.0
476,Low,left,90.0,2.0120435095871656,1.0,26.0,Low,9.0
477,Low,right,90.0,2.683934721344961,0.0,27.0,Low,9.0
478,Low,left,90.0,-0.46583868021783825,0.0,28.0,Low,9.0
479,Low,right,90.0,2.833610079873644,1.0,29.0,Low,9.0
480,Low,left,90.0,3.5169302291117353,0.0,30.0,Low,9.0
481,Low,right,90.0,4.480807446153624,0.0,31.0,Low,9.0
482,Low,right,90.0,-0.09739863301693363,1.0,32.0,Low,9.0
483,Low,left,90.0,2.383204101798422,0.0,33.0,Low,9.0
484,Low,right,90.0,3.0680676886940437,1.0,34.0,Low,9.0
485,Low,right,90.0,2.737364749739113,1.0,35.0,Low,9.0
486,Low,left,90.0,2.2232633172503986,1.0,36.0,Low,9.0
487,Low,left,90.0,0.157992184822209,0.0,37.0,Low,9.0
488,Low,right,90.0,4.66522232707157,0.0,38.0,Low,9.0
489,Low,left,90.0,2.322790184544333,0.0,39.0,Low,9.0
490,Low,right,90.0,2.5287337188105004,0.0,40.0,Low,9.0
491,Low,right,90.0,-1.1414129478908674,0.0,41.0,Low,9.0
492,Low,right,90.0,-1.1758899244755674,0.0,42.0,Low,9.0
493,Low,left,90.0,3.5343672378678352,1.0,43.0,Low,9.0
494,Low,left,90.0,2.4570839571166894,1.0,44.0,Low,9.0
495,Low,right,90.0,0.7404348091039916,0.0,45.0,Low,9.0
496,Low,right,90.0,2.4691436205645743,1.0,46.0,Low,9.0
497,Low,right,90.0,4.101626942530549,1.0,47.0,Low,9.0
498,Low,right,90.0,0.7841889674492535,1.0,48.0,Low,9.0
499,Low,left,90.0,3.0363517807250973,1.0,49.0,Low,9.0
500,High,right,90.0,2.8711922579403293,0.0,0.0,High,10.0
501,High,left,90.0,1.8592743477238654,0.0,1.0,High,10.0
502,High,left,90.0,1.4063169211978188,0.0,2.0,High,10.0
503,High,left,90.0,0.6245819650213265,0.0,3.0,High,10.0
504,High,left,90.0,2.096229786985401,0.0,4.0,High,10.0
505,High,left,90.0,1.2502315934649286,0.0,5.0,High,10.0
506,High,left,90.0,2.1139573607637563,1.0,6.0,High,10.0
507,High,left,90.0,4.453968581156637,0.0,7.0,High,10.0
508,High,right,90.0,3.1396017911137646,1.0,8.0,High,10.0
509,High,right,90.0,1.1571690246551338,1.0,9.0,High,10.0
510,High,left,90.0,2.578042349518471,1.0,10.0,High,10.0
511,High,left,90.0,4.538219430936051,0.0,11.0,High,10.0
512,High,left,90.0,2.7357871502599864,0.0,12.0,High,10.0
513,High,left,90.0,2.8791902715335054,1.0,13.0,High,10.0
514,High,right,90.0,0.6073447258791174,0.0,14.0,High,10.0
515,High,left,90.0,2.8407967693916594,0.0,15.0,High,10.0
516,High,left,90.0,4.987510824810547,0.0,16.0,High,10.0
517,High,left,90.0,0.14118796448427995,0.0,17.0,High,10.0
518,High,right,90.0,4.186421351516856,0.0,18.0,High,10.0
519,High,right,90.0,4.697138144319952,1.0,19.0,High,10.0
520,High,right,90.0,3.9242325006168204,1.0,20.0,High,10.0
521,High,left,90.0,0.13135925070092158,1.0,21.0,High,10.0
522,High,left,90.0,6.014747381824513,0.0,22.0,High,10.0
523,High,left,90.0,0.06592486220117744,1.0,23.0,High,10.0
524,High,left,90.0,1.1753377169546182,1.0,24.0,High,10.0
525,High,left,90.0,3.5569422316836117,1.0,25.0,High,10.0
526,High,right,90.0,4.406984676855268,1.0,26.0,High,10.0
527,High,right,90.0,4.3722951257626015,0.0,27.0,High,10.0
528,High,left,90.0,-0.6161056223003916,1.0,28.0,High,10.0
529,High,right,90.0,-0.15209233846859016,0.0,29.0,High,10.0
530,High,right,90.0,-0.8689521514280107,1.0,30.0,High,10.0
531,High,right,90.0,3.220179757466658,0.0,31.0,High,10.0
532,High,left,90.0,-0.33390903753615486,0.0,32.0,High,10.0
533,High,right,90.0,2.1044739023288725,0.0,33.0,High,10.0
534,High,left,90.0,0.591083462126675,1.0,34.0,High,10.0
535,High,left,90.0,1.1306606016349294,1.0,35.0,High,10.0
536,High,left,90.0,1.2312005339172016,0.0,36.0,High,10.0
537,High,left,90.0,1.6303071272093872,0.0,37.0,High,10.0
538,High,right,90.0,4.712218637987459,0.0,38.0,High,10.0
539,High,left,90.0,3.5833866383954986,1.0,39.0,High,10.0
540,High,right,90.0,4.251118725493119,0.0,40.0,High,10.0
541,High,right,90.0,-2.29793304207954,1.0,41.0,High,10.0
542,High,left,90.0,0.9740169725347703,1.0,42.0,High,10.0
543,High,left,90.0,0.5403244465927484,1.0,43.0,High,10.0
544,High,left,90.0,0.03167576156162455,1.0,44.0,High,10.0
545,High,left,90.0,-1.6507254602944377,0.0,45.0,High,10.0
546,High,right,90.0,2.424900786209169,1.0,46.0,High,10.0
547,High,left,90.0,4.153627714533105,0.0,47.0,High,10.0
548,High,right,90.0,0.6782924701370929,0.0,48.0,High,10.0
549,High,left,90.0,3.814599683571699,1.0,49.0,High,10.0
550,Low,right,90.0,5.0408991441730375,1.0,0.0,High,11.0
551,Low,left,90.0,2.762413024653475,0.0,1.0,High,11.0
552,Low,right,90.0,2.7487110633551683,1.0,2.0,High,11.0
553,Low,right,90.0,1.2754653006689722,1.0,3.0,High,11.0
554,Low,left,90.0,2.4243811211795343,0.0,4.0,High,11.0
555,Low,right,90.0,0.03859146642739453,0.0,5.0,High,11.0
556,Low,left,90.0,1.9283562674460388,0.0,6.0,High,11.0
557,Low,left,90.0,1.2590091133106034,0.0,7.0,High,11.0
558,Low,right,90.0,1.3513105814551993,1.0,8.0,High,11.0
559,Low,right,90.0,2.942787657900729,0.0,9.0,High,11.0
560,Low,left,90.0,1.7553754805869821,0.0,10.0,High,11.0
561,Low,left,90.0,-0.2501022061145557,0.0,11.0,High,11.0
562,Low,right,90.0,1.3488991328392084,0.0,12.0,High,11.0
563,Low,left,90.0,4.433051468477688,1.0,13.0,High,11.0
564,Low,left,90.0,3.152939683726608,1.0,14.0,High,11.0
565,Low,right,90.0,-0.6159617156233015,0.0,15.0,High,11.0
566,Low,left,90.0,-1.4728378687206343,1.0,16.0,High,11.0
567,Low,right,90.0,1.8951265324888036,1.0,17.0,High,11.0
568,Low,left,90.0,1.6024575232634959,1.0,18.0,High,11.0
569,Low,right,90.0,0.472846494786755,0.0,19.0,High,11.0
570,Low,left,90.0,0.9031667545224913,0.0,20.0,High,11.0
571,Low,right,90.0,3.4401617665071687,1.0,21.0,High,11.0
572,Low,left,90.0,0.678046137667183,0.0,22.0,High,11.0
573,Low,right,90.0,3.2642526133253194,0.0,23.0,High,11.0
574,Low,left,90.0,0.7744218980790218,0.0,24.0,High,11.0
575,Low,right,90.0,1.104576165424396,1.0,25.0,High,11.0
576,Low,right,90.0,1.9490072028465824,0.0,26.0,High,11.0
577,Low,left,90.0,2.680709759376312,1.0,27.0,High,11.0
578,Low,left,90.0,4.613509788882968,1.0,28.0,High,11.0
579,Low,left,90.0,3.3825923751669045,1.0,29.0,High,11.0
580,Low,right,90.0,-1.1901993839322307,0.0,30.0,High,11.0
581,Low,right,90.0,3.3452945338441102,1.0,31.0,High,11.0
582,Low,right,90.0,1.7691086759150259,0.0,32.0,High,11.0
583,Low,left,90.0,5.376919731317466,1.0,33.0,High,11.0
584,Low,left,90.0,2.540001671214202,0.0,34.0,High,11.0
585,Low,left,90.0,1.958935788499125,0.0,35.0,High,11.0
586,Low,right,90.0,3.4062893737286637,1.0,36.0,High,11.0
587,Low,right,90.0,1.305904325040116,1.0,37.0,High,11.0
588,Low,left,90.0,5.4713715016581155,0.0,38.0,High,11.0
589,Low,left,90.0,-1.9644780880380597,0.0,39.0,High,11.0
590,Low,left,90.0,2.6936233911388396,0.0,40.0,High,11.0
591,Low,right,90.0,0.030523856457216114,1.0,41.0,High,11.0
592,Low,left,90.0,3.009096559988709,1.0,42.0,High,11.0
593,Low,left,90.0,2.0053632027578407,1.0,43.0,High,11.0
594,Low,left,90.0,1.700977109443493,1.0,44.0,High,11.0
595,Low,left,90.0,1.357467311002796,0.0,45.0,High,11.0
596,Low,left,90.0,1.6229971244190438,1.0,46.0,High,11.0
597,Low,left,90.0,1.0919312267978416,0.0,47.0,High,11.0
598,Low,left,90.0,4.286159403775914,0.0,48.0,High,11.0
599,Low,right,90.0,0.7923751901399295,1.0,49.0,High,11.0
