,Arousal,KeyPressed,LearningTime,RT,Response,TrialNumber,Valence,nBlock
0,High,left,30.0,1.3613350251454341,1.0,0.0,Low,0.0
1,High,left,30.0,2.852656346406469,1.0,1.0,Low,0.0
2,High,right,30.0,2.7736722391348296,1.0,2.0,Low,0.0
3,High,right,30.0,3.9289429270992366,0.0,3.0,Low,0.0
4,High,right,30.0,-3.921011842422515,1.0,4.0,Low,0.0
5,High,right,30.0,0.9374455617992149,1.0,5.0,Low,0.0
6,High,right,30.0,3.508371486314091,0.0,6.0,Low,0.0
7,High,right,30.0,4.952678701974321,1.0,7.0,Low,0.0
8,High,left,30.0,4.994955588200392,0.0,8.0,Low,0.0
9,High,right,30.0,1.1211307350819686,1.0,9.0,Low,0.0
10,High,left,30.0,1.3759825751860002,0.0,10.0,Low,0.0
11,High,left,30.0,-0.07606267828108426,0.0,11.0,Low,0.0
12,High,right,30.0,2.014892417505198,0.0,12.0,Low,0.0
13,High,left,30.0,-0.4017465075155757,0.0,13.0,Low,0.0
14,High,right,30.0,3.6123887941915465,0.0,14.0,Low,0.0
15,High,right,30.0,2.2305187649395677,1.0,15.0,Low,0.0
16,High,left,30.0,2.775690463430677,1.0,16.0,Low,0.0
17,High,left,30.0,-0.30277867034263295,0.0,17.0,Low,0.0
18,High,left,30.0,2.1986276324305924,0.0,18.0,Low,0.0
19,High,left,30.0,-4.483952409763139,0.0,19.0,Low,0.0
20,High,left,30.0,-1.729034555986655,0.0,20.0,Low,0.0
21,High,right,30.0,0.5582295150581713,1.0,21.0,Low,0.0
22,High,left,30.0,4.1181803730116595,0.0,22.0,Low,0.0
23,High,right,30.0,6.170957747465046,0.0,23.0,Low,0.0
24,High,left,30.0,0.4928218910467781,0.0,24.0,Low,0.0
25,High,left,30.0,-2.580570561123868,0.0,25.0,Low,0.0
26,High,right,30.0,-0.14695902537950367,1.0,26.0,Low,0.0
27,High,left,30.0,3.608434322876549,0.0,27.0,Low,0.0
28,High,left,30.0,0.6180662300751478,0.0,28.0,Low,0.0
29,High,right,30.0,0.6786256494275302,0.0,29.0,Low,0.0
30,High,right,30.0,-0.7113789287655006,1.0,30.0,Low,0.0
31,High,left,30.0,2.2683182989909554,0.0,31.0,Low,0.0
32,High,right,30.0,1.5726926849224163,0.0,32.0,Low,0.0
33,High,left,30.0,4.712107565111938,1.0,33.0,Low,0.0
34,High,right,30.0,2.1034916010782903,1.0,34.0,Low,0.0
35,High,left,30.0,2.4695088659495625,0.0,35.0,Low,0.0
36,High,right,30.0,1.9802053016253502,0.0,36.0,Low,0.0
37,High,left,30.0,1.8417180793385752,0.0,37.0,Low,0.0
38,High,left,30.0,0.41967016219922515,1.0,38.0,Low,0.0
39,High,left,30.0,-1.2385325298303982,0.0,39.0,Low,0.0
40,High,left,30.0,0.670113834084282,1.0,40.0,Low,0.0
41,High,left,30.0,0.233927311018594,0.0,41.0,Low,0.0
42,High,left,30.0,0.09143842064929353,0.0,42.0,Low,0.0
43,High,left,30.0,1.2003922074697706,1.0,43.0,Low,0.0
44,High,right,30.0,0.5110961696470371,1.0,44.0,Low,0.0
45,High,right,30.0,2.343286009723565,0.0,45.0,Low,0.0
46,High,right,30.0,8.697896983960343,0.0,46.0,Low,0.0
47,High,left,30.0,1.078366912386375,0.0,47.0,Low,0.0
48,High,left,30.0,1.7851154378808147,1.0,48.0,Low,0.0
49,High,left,30.0,6.808846626560886,0.0,49.0,Low,0.0
50,Low,left,30.0,2.40093816282666,1.0,0.0,Low,1.0
51,Low,right,30.0,-0.950257980368113,1.0,1.0,Low,1.0
52,Low,right,30.0,0.4346504698477389,0.0,2.0,Low,1.0
53,Low,right,30.0,2.871722118709719,1.0,3.0,Low,1.0
54,Low,left,30.0,-0.39955709926017136,1.0,4.0,Low,1.0
55,Low,right,30.0,2.4201444812068917,0.0,5.0,Low,1.0
56,Low,right,30.0,4.187448018877246,0.0,6.0,Low,1.0
57,Low,left,30.0,-0.079426992633439,0.0,7.0,Low,1.0
58,Low,left,30.0,1.2074717333675205,0.0,8.0,Low,1.0
59,Low,left,30.0,-1.1075441854145898,0.0,9.0,Low,1.0
60,Low,right,30.0,3.528181428680135,0.0,10.0,Low,1.0
61,Low,left,30.0,-0.9021924083145181,0.0,11.0,Low,1.0
62,Low,right,30.0,-3.5471055909194003,1.0,12.0,Low,1.0
63,Low,right,30.0,3.346262580630996,1.0,13.0,Low,1.0
64,Low,left,30.0,2.4829322774774862,0.0,14.0,Low,1.0
65,Low,left,30.0,-0.03374993095026291,1.0,15.0,Low,1.0
66,Low,left,30.0,-0.06344043208662997,1.0,16.0,Low,1.0
67,Low,left,30.0,0.5870861600928654,0.0,17.0,Low,1.0
68,Low,left,30.0,4.5074121730522085,1.0,18.0,Low,1.0
69,Low,left,30.0,3.2587034006745923,1.0,19.0,Low,1.0
70,Low,left,30.0,-0.16096052040028708,1.0,20.0,Low,1.0
71,Low,left,30.0,0.9873067721928467,0.0,21.0,Low,1.0
72,Low,left,30.0,1.5652191303233778,0.0,22.0,Low,1.0
73,Low,right,30.0,-2.076842965475605,0.0,23.0,Low,1.0
74,Low,left,30.0,-0.8802010181991751,1.0,24.0,Low,1.0
75,Low,right,30.0,4.15516779796349,1.0,25.0,Low,1.0
76,Low,left,30.0,3.257449632881505,0.0,26.0,Low,1.0
77,Low,left,30.0,-2.7926810266945745,0.0,27.0,Low,1.0
78,Low,left,30.0,4.52702658873288,0.0,28.0,Low,1.0
79,Low,left,30.0,5.921562084532873,1.0,29.0,Low,1.0
80,Low,right,30.0,5.801249312320856,1.0,30.0,Low,1.0
81,Low,left,30.0,2.516284569715173,1.0,31.0,Low,1.0
82,Low,left,30.0,-0.24828875850948262,1.0,32.0,Low,1.0
83,Low,left,30.0,5.251784611619181,0.0,33.0,Low,1.0
84,Low,left,30.0,-1.1792762268994572,1.0,34.0,Low,1.0
85,Low,right,30.0,4.431534444016473,1.0,35.0,Low,1.0
86,Low,right,30.0,5.33831630908173,1.0,36.0,Low,1.0
87,Low,right,30.0,3.7850378712570087,0.0,37.0,Low,1.0
88,Low,right,30.0,4.279416733205329,1.0,38.0,Low,1.0
89,Low,right,30.0,3.2392764612118716,0.0,39.0,Low,1.0
90,Low,right,30.0,0.4417506473290911,1.0,40.0,Low,1.0
91,Low,left,30.0,3.377495220768912,0.0,41.0,Low,1.0
92,Low,left,30.0,2.2297195374803187,1.0,42.0,Low,1.0
93,Low,right,30.0,2.8029457572419343,1.0,43.0,Low,1.0
94,Low,left,30.0,2.5791798641753383,0.0,44.0,Low,1.0
95,Low,left,30.0,5.385493894181241,0.0,45.0,Low,1.0
96,Low,left,30.0,3.880132680808965,1.0,46.0,Low,1.0
97,Low,right,30.0,0.26512463127735186,0.0,47.0,Low,1.0
98,Low,right,30.0,5.277950820833494,0.0,48.0,Low,1.0
99,Low,left,30.0,3.238523445627563,1.0,49.0,Low,1.0
100,High,right,30.0,0.8503211943182447,0.0,0.0,High,2.0
101,High,left,30.0,1.417945378396629,1.0,1.0,High,2.0
102,High,left,30.0,0.40167603677271724,1.0,2.0,High,2.0
103,High,left,30.0,0.31710412014844813,1.0,3.0,High,2.0
104,High,right,30.0,-1.117217021156581,0.0,4.0,High,2.0
105,High,left,30.0,1.0585471056280136,0.0,5.0,High,2.0
106,High,right,30.0,2.6198454288724764,1.0,6.0,High,2.0
107,High,right,30.0,-0.12489787940893415,0.0,7.0,High,2.0
108,High,left,30.0,1.5162984514962807,0.0,8.0,High,2.0
109,High,left,30.0,1.5898658543507787,1.0,9.0,High,2.0
110,High,right,30.0,0.4888110115949036,1.0,10.0,High,2.0
111,High,left,30.0,2.6404078378970235,1.0,11.0,High,2.0
112,High,left,30.0,-2.0416172016156193,0.0,12.0,High,2.0
113,High,left,30.0,-1.1235036172854378,0.0,13.0,High,2.0
114,High,left,30.0,-0.5290878431613413,0.0,14.0,High,2.0
115,High,right,30.0,1.2730047346857538,0.0,15.0,High,2.0
116,High,right,30.0,2.9392072040954824,1.0,16.0,High,2.0
117,High,right,30.0,-2.8690834365999285,0.0,17.0,High,2.0
118,High,right,30.0,2.0662163799988593,1.0,18.0,High,2.0
119,High,right,30.0,0.5023962861247488,0.0,19.0,High,2.0
120,High,right,30.0,4.176955446527497,1.0,20.0,High,2.0
121,High,right,30.0,0.18290402253557003,0.0,21.0,High,2.0
122,High,right,30.0,3.365741748044356,1.0,22.0,High,2.0
123,High,left,30.0,1.2824873183477319,1.0,23.0,High,2.0
124,High,left,30.0,2.348080485551748,1.0,24.0,High,2.0
125,High,left,30.0,0.2949474803498642,1.0,25.0,High,2.0
126,High,right,30.0,1.4885309190560672,0.0,26.0,High,2.0
127,High,right,30.0,1.1338006489452717,0.0,27.0,High,2.0
128,High,right,30.0,4.1336334843396765,0.0,28.0,High,2.0
129,High,right,30.0,-1.218455959825255,1.0,29.0,High,2.0
130,High,right,30.0,0.46391837480355314,1.0,30.0,High,2.0
131,High,left,30.0,0.312486800326528,1.0,31.0,High,2.0
132,High,left,30.0,1.4238416994303968,0.0,32.0,High,2.0
133,High,left,30.0,-0.2565644479147484,0.0,33.0,High,2.0
134,High,left,30.0,2.0652161246194063,1.0,34.0,High,2.0
135,High,left,30.0,3.788466942961966,0.0,35.0,High,2.0
136,High,right,30.0,7.418194384858461,0.0,36.0,High,2.0
137,High,right,30.0,0.5996401574909085,1.0,37.0,High,2.0
138,High,right,30.0,1.4206302467075254,1.0,38.0,High,2.0
139,High,right,30.0,0.9926517988157106,0.0,39.0,High,2.0
140,High,right,30.0,1.1929159010650028,1.0,40.0,High,2.0
141,High,left,30.0,0.434813943914096,0.0,41.0,High,2.0
142,High,right,30.0,0.8730403545592733,1.0,42.0,High,2.0
143,High,right,30.0,3.9945693494546073,0.0,43.0,High,2.0
144,High,right,30.0,-0.049628991030400194,1.0,44.0,High,2.0
145,High,right,30.0,4.752816283040714,1.0,45.0,High,2.0
146,High,left,30.0,2.1014870092340505,0.0,46.0,High,2.0
147,High,right,30.0,4.103926234813089,0.0,47.0,High,2.0
148,High,left,30.0,0.10673735806660956,1.0,48.0,High,2.0
149,High,right,30.0,0.015433078336742678,1.0,49.0,High,2.0
150,Low,right,60.0,2.4508124921118664,0.0,0.0,Low,3.0
151,Low,right,60.0,0.17681875102530364,0.0,1.0,Low,3.0
152,Low,right,60.0,0.8597373699332591,1.0,2.0,Low,3.0
153,Low,left,60.0,2.215047875551782,0.0,3.0,Low,3.0
154,Low,right,60.0,1.9887706722533551,1.0,4.0,Low,3.0
155,Low,left,60.0,3.7840212937977658,1.0,5.0,Low,3.0
156,Low,right,60.0,-0.8929091564343823,0.0,6.0,Low,3.0
157,Low,left,60.0,3.2264632968633276,1.0,7.0,Low,3.0
158,Low,left,60.0,2.6792191971291928,0.0,8.0,Low,3.0
159,Low,right,60.0,-1.6172057299452192,0.0,9.0,Low,3.0
160,Low,right,60.0,2.9792113107915403,1.0,10.0,Low,3.0
161,Low,left,60.0,2.5122538734956428,0.0,11.0,Low,3.0
162,Low,right,60.0,0.7737980484439979,0.0,12.0,Low,3.0
163,Low,left,60.0,1.3900863233724814,1.0,13.0,Low,3.0
164,Low,left,60.0,4.914179418522398,0.0,14.0,Low,3.0
165,Low,left,60.0,5.31881748494013,0.0,15.0,Low,3.0
166,Low,right,60.0,-2.737993350758036,0.0,16.0,Low,3.0
167,Low,left,60.0,-0.6864898391779553,0.0,17.0,Low,3.0
168,Low,right,60.0,0.39924137834058904,0.0,18.0,Low,3.0
169,Low,right,60.0,1.2351373493111493,1.0,19.0,Low,3.0
170,Low,left,60.0,-1.6920307413698645,0.0,20.0,Low,3.0
171,Low,left,60.0,2.789068518530213,0.0,21.0,Low,3.0
172,Low,right,60.0,2.527838731812094,1.0,22.0,Low,3.0
173,Low,right,60.0,0.8790534220616251,1.0,23.0,Low,3.0
174,Low,right,60.0,2.5706762725735612,0.0,24.0,Low,3.0
175,Low,left,60.0,-1.301206993819422,1.0,25.0,Low,3.0
176,Low,right,60.0,6.56611759065437,0.0,26.0,Low,3.0
177,Low,right,60.0,9.395117813609122,1.0,27.0,Low,3.0
178,Low,left,60.0,6.039012162785086,0.0,28.0,Low,3.0
179,Low,left,60.0,3.807066124907756,0.0,29.0,Low,3.0
180,Low,left,60.0,2.0946915256718697,0.0,30.0,Low,3.0
181,Low,right,60.0,-1.3982454848063406,1.0,31.0,Low,3.0
182,Low,left,60.0,1.4764993956807555,1.0,32.0,Low,3.0
183,Low,left,60.0,3.97028037445535,1.0,33.0,Low,3.0
184,Low,left,60.0,2.5339835505208663,1.0,34.0,Low,3.0
185,Low,left,60.0,-0.9043001022904829,1.0,35.0,Low,3.0
186,Low,right,60.0,3.867113001628663,1.0,36.0,Low,3.0
187,Low,left,60.0,2.176816066650383,1.0,37.0,Low,3.0
188,Low,left,60.0,1.0278779227874522,0.0,38.0,Low,3.0
189,Low,left,60.0,2.467829165210966,0.0,39.0,Low,3.0
190,Low,right,60.0,2.0221445215221463,1.0,40.0,Low,3.0
191,Low,left,60.0,2.5225284409031086,0.0,41.0,Low,3.0
192,Low,right,60.0,3.595282852921872,0.0,42.0,Low,3.0
193,Low,left,60.0,2.5902812189162545,0.0,43.0,Low,3.0
194,Low,left,60.0,3.012846281855688,1.0,44.0,Low,3.0
195,Low,right,60.0,2.1498940809248688,0.0,45.0,Low,3.0
196,Low,right,60.0,-0.05108049797645631,1.0,46.0,Low,3.0
197,Low,right,60.0,3.0775460373970005,1.0,47.0,Low,3.0
198,Low,left,60.0,3.530174108072556,0.0,48.0,Low,3.0
199,Low,left,60.0,6.900416066621286,0.0,49.0,Low,3.0
200,High,left,60.0,0.7154970247344832,1.0,0.0,High,4.0
201,High,right,60.0,-0.30990174510338253,0.0,1.0,High,4.0
202,High,left,60.0,-0.2105252828882569,0.0,2.0,High,4.0
203,High,right,60.0,-0.8388653594787114,0.0,3.0,High,4.0
204,High,left,60.0,0.9251668956454752,0.0,4.0,High,4.0
205,High,right,60.0,1.9876724412658187,1.0,5.0,High,4.0
206,High,left,60.0,-0.6526656866547651,0.0,6.0,High,4.0
207,High,left,60.0,4.149820601751796,1.0,7.0,High,4.0
208,High,right,60.0,0.8789796709363519,0.0,8.0,High,4.0
209,High,left,60.0,2.050405584543148,0.0,9.0,High,4.0
210,High,right,60.0,-0.05523957008574265,0.0,10.0,High,4.0
211,High,left,60.0,7.37123335108072,1.0,11.0,High,4.0
212,High,right,60.0,0.6161328980590837,1.0,12.0,High,4.0
213,High,right,60.0,2.7473681650500303,0.0,13.0,High,4.0
214,High,left,60.0,0.4471680473504336,1.0,14.0,High,4.0
215,High,left,60.0,-0.5250950522890729,0.0,15.0,High,4.0
216,High,right,60.0,5.285712299443133,1.0,16.0,High,4.0
217,High,left,60.0,-0.9054801163596085,0.0,17.0,High,4.0
218,High,right,60.0,-1.743017014272803,0.0,18.0,High,4.0
219,High,left,60.0,1.0333014773475333,1.0,19.0,High,4.0
220,High,left,60.0,6.269504280727107,0.0,20.0,High,4.0
221,High,right,60.0,3.5073642852410143,0.0,21.0,High,4.0
222,High,right,60.0,3.641945890323737,1.0,22.0,High,4.0
223,High,left,60.0,4.206700601695686,1.0,23.0,High,4.0
224,High,left,60.0,1.1859926222942705,1.0,24.0,High,4.0
225,High,right,60.0,1.0507786730528879,1.0,25.0,High,4.0
226,High,right,60.0,2.708375207394767,1.0,26.0,High,4.0
227,High,right,60.0,5.4052555976088374,0.0,27.0,High,4.0
228,High,left,60.0,-0.25477321176573886,1.0,28.0,High,4.0
229,High,left,60.0,3.2967171691377883,1.0,29.0,High,4.0
230,High,left,60.0,4.628574450124597,1.0,30.0,High,4.0
231,High,right,60.0,-0.7605527929837064,1.0,31.0,High,4.0
232,High,left,60.0,4.020694964883088,0.0,32.0,High,4.0
233,High,left,60.0,-2.0256662368586458,0.0,33.0,High,4.0
234,High,right,60.0,0.6110107920303871,1.0,34.0,High,4.0
235,High,right,60.0,-0.2969817294498145,1.0,35.0,High,4.0
236,High,left,60.0,1.5343317275783273,0.0,36.0,High,4.0
237,High,left,60.0,0.7362564741608613,1.0,37.0,High,4.0
238,High,right,60.0,3.2406340312873354,0.0,38.0,High,4.0
239,High,right,60.0,-0.11620697808570779,1.0,39.0,High,4.0
240,High,left,60.0,3.307864225134106,1.0,40.0,High,4.0
241,High,right,60.0,1.6471062301307275,1.0,41.0,High,4.0
242,High,right,60.0,-1.2239195606024817,0.0,42.0,High,4.0
243,High,left,60.0,1.339365157655834,0.0,43.0,High,4.0
244,High,left,60.0,-1.5537502722749008,1.0,44.0,High,4.0
245,High,right,60.0,-1.1376154231980928,1.0,45.0,High,4.0
246,High,left,60.0,1.5631250865754924,1.0,46.0,High,4.0
247,High,right,60.0,6.083460125904033,1.0,47.0,High,4.0
248,High,left,60.0,1.2585766357671195,1.0,48.0,High,4.0
249,High,right,60.0,5.302456890252354,0.0,49.0,High,4.0
250,Low,right,30.0,0.5586630173566514,0.0,0.0,High,5.0
251,Low,right,30.0,3.326240604436307,1.0,1.0,High,5.0
252,Low,left,30.0,-3.235795724449173,0.0,2.0,High,5.0
253,Low,right,30.0,1.8946863927429445,1.0,3.0,High,5.0
254,Low,left,30.0,4.874958353916025,1.0,4.0,High,5.0
255,Low,left,30.0,-0.5614536048110477,1.0,5.0,High,5.0
256,Low,left,30.0,-1.1748053623269317,1.0,6.0,High,5.0
257,Low,right,30.0,0.6149130124403921,1.0,7.0,High,5.0
258,Low,left,30.0,0.9094638763421061,1.0,8.0,High,5.0
259,Low,right,30.0,2.141062606797535,0.0,9.0,High,5.0
260,Low,left,30.0,3.064523004108252,0.0,10.0,High,5.0
261,Low,right,30.0,3.1195546113429,1.0,11.0,High,5.0
262,Low,right,30.0,0.5255809164241023,1.0,12.0,High,5.0
263,Low,left,30.0,-0.7237042274608156,0.0,13.0,High,5.0
264,Low,right,30.0,1.2191135687248336,0.0,14.0,High,5.0
265,Low,left,30.0,3.8585804810120776,0.0,15.0,High,5.0
266,Low,left,30.0,2.247111709233339,0.0,16.0,High,5.0
267,Low,left,30.0,1.6183300173725876,1.0,17.0,High,5.0
268,Low,right,30.0,6.317111145384802,0.0,18.0,High,5.0
269,Low,right,30.0,0.8821289026073191,1.0,19.0,High,5.0
270,Low,left,30.0,4.790664486844619,0.0,20.0,High,5.0
271,Low,left,30.0,2.9989107623097153,1.0,21.0,High,5.0
272,Low,left,30.0,4.377368926551947,1.0,22.0,High,5.0
273,Low,right,30.0,4.220730699456889,0.0,23.0,High,5.0
274,Low,left,30.0,-0.5027306942841636,1.0,24.0,High,5.0
275,Low,right,30.0,4.205321036338826,0.0,25.0,High,5.0
276,Low,right,30.0,0.9752244596180442,1.0,26.0,High,5.0
277,Low,left,30.0,1.8989730419597413,0.0,27.0,High,5.0
278,Low,right,30.0,2.9698163379983553,1.0,28.0,High,5.0
279,Low,left,30.0,2.1877013358043813,0.0,29.0,High,5.0
280,Low,left,30.0,0.9878709229741396,0.0,30.0,High,5.0
281,Low,left,30.0,-0.35803023932498923,1.0,31.0,High,5.0
282,Low,right,30.0,-0.0012621678553947913,1.0,32.0,High,5.0
283,Low,right,30.0,0.5244960925617745,1.0,33.0,High,5.0
284,Low,right,30.0,3.5679972236530397,1.0,34.0,High,5.0
285,Low,right,30.0,2.338594427827648,0.0,35.0,High,5.0
286,Low,right,30.0,-1.290839971979056,1.0,36.0,High,5.0
287,Low,right,30.0,1.6492732934625889,1.0,37.0,High,5.0
288,Low,left,30.0,0.6372356506853847,1.0,38.0,High,5.0
289,Low,right,30.0,1.5723705032226238,0.0,39.0,High,5.0
290,Low,left,30.0,5.130535239893097,0.0,40.0,High,5.0
291,Low,left,30.0,2.2485911738317075,0.0,41.0,High,5.0
292,Low,left,30.0,-0.26386342416442377,0.0,42.0,High,5.0
293,Low,left,30.0,4.3043406451915285,0.0,43.0,High,5.0
294,Low,right,30.0,2.0064098448755106,0.0,44.0,High,5.0
295,Low,left,30.0,0.574168572719326,0.0,45.0,High,5.0
296,Low,left,30.0,1.0874964136114211,1.0,46.0,High,5.0
297,Low,right,30.0,5.532325786332949,1.0,47.0,High,5.0
298,Low,left,30.0,2.859985816421483,1.0,48.0,High,5.0
299,Low,right,30.0,0.9002047807767131,1.0,49.0,High,5.0
300,High,left,60.0,7.366862968148611,1.0,0.0,Low,6.0
301,High,right,60.0,1.4619275399186176,1.0,1.0,Low,6.0
302,High,left,60.0,0.7048389216351101,1.0,2.0,Low,6.0
303,High,left,60.0,-0.8626647454260201,1.0,3.0,Low,6.0
304,High,left,60.0,4.522301023214468,0.0,4.0,Low,6.0
305,High,right,60.0,0.8152354593082971,1.0,5.0,Low,6.0
306,High,left,60.0,4.023934392114015,1.0,6.0,Low,6.0
307,High,left,60.0,1.8442439009771843,1.0,7.0,Low,6.0
308,High,right,60.0,3.246229398633795,0.0,8.0,Low,6.0
309,High,left,60.0,2.2239863441223724,1.0,9.0,Low,6.0
310,High,left,60.0,2.350144112268938,0.0,10.0,Low,6.0
311,High,right,60.0,1.4063289973998239,0.0,11.0,Low,6.0
312,High,left,60.0,3.3460590892230355,0.0,12.0,Low,6.0
313,High,left,60.0,2.110226663284087,1.0,13.0,Low,6.0
314,High,right,60.0,0.336178038172422,1.0,14.0,Low,6.0
315,High,right,60.0,2.2592338194903525,0.0,15.0,Low,6.0
316,High,right,60.0,6.037068553321708,1.0,16.0,Low,6.0
317,High,left,60.0,0.4802977600990985,0.0,17.0,Low,6.0
318,High,left,60.0,5.902218657219028,0.0,18.0,Low,6.0
319,High,right,60.0,-3.4502594262861352,1.0,19.0,Low,6.0
320,High,left,60.0,1.544785450416385,0.0,20.0,Low,6.0
321,High,left,60.0,1.5355735690218157,1.0,21.0,Low,6.0
322,High,left,60.0,0.5264636218583745,1.0,22.0,Low,6.0
323,High,left,60.0,-0.8243622973835418,0.0,23.0,Low,6.0
324,High,left,60.0,3.224597980188308,1.0,24.0,Low,6.0
325,High,right,60.0,2.694557863895869,0.0,25.0,Low,6.0
326,High,left,60.0,1.2485576821689048,1.0,26.0,Low,6.0
327,High,left,60.0,0.22128752928369844,1.0,27.0,Low,6.0
328,High,left,60.0,-0.35875331315233217,1.0,28.0,Low,6.0
329,High,right,60.0,-0.5720063710976486,0.0,29.0,Low,6.0
330,High,right,60.0,-1.8776922603063366,1.0,30.0,Low,6.0
331,High,left,60.0,2.0800273542134935,0.0,31.0,Low,6.0
332,High,left,60.0,3.592859132508014,0.0,32.0,Low,6.0
333,High,right,60.0,4.622713043438605,1.0,33.0,Low,6.0
334,High,left,60.0,1.962565533755603,0.0,34.0,Low,6.0
335,High,left,60.0,3.366683867945038,0.0,35.0,Low,6.0
336,High,left,60.0,1.4015807942860345,1.0,36.0,Low,6.0
337,High,left,60.0,0.6362122161024988,0.0,37.0,Low,6.0
338,High,left,60.0,-0.414911920921041,0.0,38.0,Low,6.0
339,High,right,60.0,6.006632668796065,1.0,39.0,Low,6.0
340,High,left,60.0,4.170768231399531,0.0,40.0,Low,6.0
341,High,left,60.0,0.5975343228068837,1.0,41.0,Low,6.0
342,High,right,60.0,-1.4919137283374568,0.0,42.0,Low,6.0
343,High,left,60.0,-0.5687539790852116,0.0,43.0,Low,6.0
344,High,right,60.0,2.2074837864294445,0.0,44.0,Low,6.0
345,High,right,60.0,4.739946900598537,0.0,45.0,Low,6.0
346,High,right,60.0,-3.410799894948645,1.0,46.0,Low,6.0
347,High,left,60.0,1.9026627888609449,1.0,47.0,Low,6.0
348,High,right,60.0,-0.8248151115046065,0.0,48.0,Low,6.0
349,High,right,60.0,1.8316568330627352,1.0,49.0,Low,6.0
350,Low,right,90.0,-0.27478919282872605,0.0,0.0,Low,7.0
351,Low,right,90.0,2.296820664544046,1.0,1.0,Low,7.0
352,Low,right,90.0,0.943180546563179,0.0,2.0,Low,7.0
353,Low,left,90.0,3.4022374495018926,1.0,3.0,Low,7.0
354,Low,left,90.0,1.1607639700897556,0.0,4.0,Low,7.0
355,Low,left,90.0,4.0954524684854965,0.0,5.0,Low,7.0
356,Low,left,90.0,2.524040818860586,0.0,6.0,Low,7.0
357,Low,right,90.0,5.183966655597363,1.0,7.0,Low,7.0
358,Low,right,90.0,2.374849775738981,1.0,8.0,Low,7.0
359,Low,left,90.0,-2.245632765470986,0.0,9.0,Low,7.0
360,Low,right,90.0,3.59536862932553,0.0,10.0,Low,7.0
361,Low,right,90.0,2.7010204519647534,1.0,11.0,Low,7.0
362,Low,right,90.0,-0.4432440808827418,0.0,12.0,Low,7.0
363,Low,right,90.0,6.128647794309873,1.0,13.0,Low,7.0
364,Low,right,90.0,-1.3968998479225494,0.0,14.0,Low,7.0
365,Low,right,90.0,-3.288760905412169,0.0,15.0,Low,7.0
366,Low,left,90.0,-2.1965635824548126,1.0,16.0,Low,7.0
367,Low,right,90.0,6.138255534092223,0.0,17.0,Low,7.0
368,Low,left,90.0,2.5837241588558593,0.0,18.0,Low,7.0
369,Low,right,90.0,-0.1876557054247845,1.0,19.0,Low,7.0
370,Low,right,90.0,2.1851457224274475,0.0,20.0,Low,7.0
371,Low,left,90.0,2.2127231672045005,0.0,21.0,Low,7.0
372,Low,left,90.0,1.5090551440805826,0.0,22.0,Low,7.0
373,Low,left,90.0,0.31274442948040293,0.0,23.0,Low,7.0
374,Low,right,90.0,0.6851556168787392,1.0,24.0,Low,7.0
375,Low,right,90.0,2.505457553955493,1.0,25.0,Low,7.0
376,Low,right,90.0,1.0173445075983913,0.0,26.0,Low,7.0
377,Low,left,90.0,2.9364110022492875,1.0,27.0,Low,7.0
378,Low,right,90.0,1.6059452662562141,1.0,28.0,Low,7.0
379,Low,left,90.0,1.4446686606687433,1.0,29.0,Low,7.0
380,Low,left,90.0,3.96292643057133,0.0,30.0,Low,7.0
381,Low,left,90.0,1.772068934452671,0.0,31.0,Low,7.0
382,Low,left,90.0,3.171186523043966,1.0,32.0,Low,7.0
383,Low,left,90.0,4.540944658958471,0.0,33.0,Low,7.0
384,Low,left,90.0,-0.0445629282320712,1.0,34.0,Low,7.0
385,Low,right,90.0,0.3674115342616304,1.0,35.0,Low,7.0
386,Low,right,90.0,0.19538974619058802,1.0,36.0,Low,7.0
387,Low,left,90.0,0.9229368798743862,1.0,37.0,Low,7.0
388,Low,right,90.0,5.669611563808111,0.0,38.0,Low,7.0
389,Low,right,90.0,-1.415637356798455,1.0,39.0,Low,7.0
390,Low,left,90.0,1.207779583992814,1.0,40.0,Low,7.0
391,Low,left,90.0,2.3822523323311455,1.0,41.0,Low,7.0
392,Low,left,90.0,0.3154837770509773,1.0,42.0,Low,7.0
393,Low,left,90.0,2.9910441633727594,0.0,43.0,Low,7.0
394,Low,left,90.0,1.580512451645423,0.0,44.0,Low,7.0
395,Low,left,90.0,2.173256930523888,1.0,45.0,Low,7.0
396,Low,left,90.0,5.389377692215932,0.0,46.0,Low,7.0
397,Low,right,90.0,0.546467240326086,0.0,47.0,Low,7.0
398,Low,left,90.0,3.630501938316139,1.0,48.0,Low,7.0
399,Low,right,90.0,2.8000034406428043,0.0,49.0,Low,7.0
400,High,left,90.0,2.7959474841149667,1.0,0.0,High,8.0
401,High,left,90.0,2.386458490079861,0.0,1.0,High,8.0
402,High,left,90.0,5.628251296540332,0.0,2.0,High,8.0
403,High,right,90.0,3.837139203791972,0.0,3.0,High,8.0
404,High,right,90.0,3.5764607880788546,1.0,4.0,High,8.0
405,High,left,90.0,5.825010131407401,0.0,5.0,High,8.0
406,High,right,90.0,2.343237962601133,1.0,6.0,High,8.0
407,High,right,90.0,0.7804575113050962,0.0,7.0,High,8.0
408,High,left,90.0,2.5412817575689846,0.0,8.0,High,8.0
409,High,right,90.0,4.777179441094804,0.0,9.0,High,8.0
410,High,right,90.0,1.3107514602503016,1.0,10.0,High,8.0
411,High,left,90.0,2.0995255055736877,1.0,11.0,High,8.0
412,High,right,90.0,-2.5142824907350714,0.0,12.0,High,8.0
413,High,left,90.0,-2.0529845096634034,0.0,13.0,High,8.0
414,High,right,90.0,2.3617051236439637,0.0,14.0,High,8.0
415,High,right,90.0,1.2987021457211807,1.0,15.0,High,8.0
416,High,right,90.0,2.7797062786356763,0.0,16.0,High,8.0
417,High,right,90.0,3.4537718670108672,1.0,17.0,High,8.0
418,High,left,90.0,5.23934859953099,0.0,18.0,High,8.0
419,High,right,90.0,1.2644251402692648,0.0,19.0,High,8.0
420,High,left,90.0,1.166686741129588,1.0,20.0,High,8.0
421,High,left,90.0,0.10216243160486016,0.0,21.0,High,8.0
422,High,left,90.0,5.755804437971559,0.0,22.0,High,8.0
423,High,right,90.0,0.5322830532528353,0.0,23.0,High,8.0
424,High,right,90.0,0.9211363298673644,1.0,24.0,High,8.0
425,High,right,90.0,0.22069901994314645,1.0,25.0,High,8.0
426,High,left,90.0,4.166894374517433,1.0,26.0,High,8.0
427,High,right,90.0,-0.8090338743769443,1.0,27.0,High,8.0
428,High,left,90.0,1.5371230339900506,1.0,28.0,High,8.0
429,High,left,90.0,1.6050690961408454,1.0,29.0,High,8.0
430,High,left,90.0,3.137876398559545,0.0,30.0,High,8.0
431,High,right,90.0,1.1460772110264632,0.0,31.0,High,8.0
432,High,left,90.0,1.1984907351060916,0.0,32.0,High,8.0
433,High,right,90.0,4.014914524845313,0.0,33.0,High,8.0
434,High,right,90.0,3.115218565994028,0.0,34.0,High,8.0
435,High,right,90.0,1.0164052804347834,1.0,35.0,High,8.0
436,High,right,90.0,2.566258167474224,0.0,36.0,High,8.0
437,High,right,90.0,0.3793981679631532,1.0,37.0,High,8.0
438,High,left,90.0,1.1746381484635529,0.0,38.0,High,8.0
439,High,left,90.0,0.939780097906137,0.0,39.0,High,8.0
440,High,right,90.0,-0.24738003074155612,0.0,40.0,High,8.0
441,High,right,90.0,2.1011035475997053,1.0,41.0,High,8.0
442,High,right,90.0,3.3056143672958878,1.0,42.0,High,8.0
443,High,left,90.0,1.133106619443552,0.0,43.0,High,8.0
444,High,right,90.0,3.3090605943469122,0.0,44.0,High,8.0
445,High,right,90.0,2.5968744783845317,0.0,45.0,High,8.0
446,High,right,90.0,-0.005948487571290517,0.0,46.0,High,8.0
447,High,right,90.0,-3.456806556057655,1.0,47.0,High,8.0
448,High,left,90.0,4.7346136520272815,0.0,48.0,High,8.0
449,High,left,90.0,7.834495971070954,1.0,49.0,High,8.0
450,Low,left,60.0,3.046955720239912,0.0,0.0,High,9.0
451,Low,right,60.0,-0.28058467432219514,1.0,1.0,High,9.0
452,Low,right,60.0,4.015637992669035,1.0,2.0,High,9.0
453,Low,right,60.0,4.126435884372519,1.0,3.0,High,9.0
454,Low,left,60.0,-1.1199400624016533,0.0,4.0,High,9.0
455,Low,left,60.0,2.0313347267397224,1.0,5.0,High,9.0
456,Low,left,60.0,3.7105640387698875,1.0,6.0,High,9.0
457,Low,right,60.0,2.2398755800578116,1.0,7.0,High,9.0
458,Low,left,60.0,2.4706650570473685,0.0,8.0,High,9.0
459,Low,left,60.0,2.5229867869587865,1.0,9.0,High,9.0
460,Low,left,60.0,-0.3742712507236652,0.0,10.0,High,9.0
461,Low,left,60.0,2.5318600797794324,1.0,11.0,High,9.0
462,Low,left,60.0,0.7897677783906623,0.0,12.0,High,9.0
463,Low,left,60.0,1.417854108373641,0.0,13.0,High,9.0
464,Low,right,60.0,2.9878564933205096,0.0,14.0,High,9.0
465,Low,left,60.0,5.342856080885957,0.0,15.0,High,9.0
466,Low,left,60.0,1.3159763477414046,1.0,16.0,High,9.0
467,Low,left,60.0,2.201610328630041,1.0,17.0,High,9.0
468,Low,left,60.0,1.5161979085935973,1.0,18.0,High,9.0
469,Low,right,60.0,0.06854443408639854,0.0,19.0,High,9.0
470,Low,left,60.0,1.2200110277932508,1.0,20.0,High,9.0
471,Low,right,60.0,-1.317818856656983,0.0,21.0,High,9.0
472,Low,left,60.0,2.602606224505883,0.0,22.0,High,9.0
473,Low,right,60.0,4.79250271012558,0.0,23.0,High,9.0
474,Low,left,60.0,-0.1437592574263893,1.0,24.0,High,9.0
475,Low,left,60.0,2.3725303535549083,0.0,25.0,High,9.0
476,Low,left,60.0,0.793555170347138,0.0,26.0,High,9.0
477,Low,left,60.0,-0.36921015633582344,0.0,27.0,High,9.0
478,Low,left,60.0,2.2421796447705873,1.0,28.0,High,9.0
479,Low,right,60.0,0.44796315920299734,1.0,29.0,High,9.0
480,Low,left,60.0,-1.5916589432110104,1.0,30.0,High,9.0
481,Low,right,60.0,1.356699705583316,0.0,31.0,High,9.0
482,Low,right,60.0,3.288613696440242,1.0,32.0,High,9.0
483,Low,right,60.0,3.4228816340554262,1.0,33.0,High,9.0
484,Low,left,60.0,1.937159894709003,0.0,34.0,High,9.0
485,Low,left,60.0,0.08819087926795066,0.0,35.0,High,9.0
486,Low,left,60.0,1.2049368618166916,1.0,36.0,High,9.0
487,Low,left,60.0,4.304195905015359,0.0,37.0,High,9.0
488,Low,left,60.0,4.383318802342728,0.0,38.0,High,9.0
489,Low,left,60.0,2.4084463538037233,1.0,39.0,High,9.0
490,Low,right,60.0,0.638631340703657,1.0,40.0,High,9.0
491,Low,right,60.0,-2.772705840503792,1.0,41.0,High,9.0
492,Low,left,60.0,2.8777144647860875,0.0,42.0,High,9.0
493,Low,left,60.0,0.3108077822782689,1.0,43.0,High,9.0
494,Low,right,60.0,1.387638397990791,1.0,44.0,High,9.0
495,Low,right,60.0,-1.6452667745382699,0.0,45.0,High,9.0
496,Low,left,60.0,5.297761966677182,1.0,46.0,High,9.0
497,Low,right,60.0,-0.252865314735903,1.0,47.0,High,9.0
498,Low,right,60.0,0.9587868314449413,1.0,48.0,High,9.0
499,Low,left,60.0,1.1346179084623207,0.0,49.0,High,9.0
500,High,right,90.0,0.9612633464334226,1.0,0.0,Low,10.0
501,High,right,90.0,4.261714035923866,0.0,1.0,Low,10.0
502,High,left,90.0,2.11641458531901,1.0,2.0,Low,10.0
503,High,right,90.0,2.1620444722707726,1.0,3.0,Low,10.0
504,High,right,90.0,-0.5591760247523818,0.0,4.0,Low,10.0
505,High,right,90.0,2.0964579382316786,1.0,5.0,Low,10.0
506,High,right,90.0,2.125427045740804,1.0,6.0,Low,10.0
507,High,right,90.0,1.3682115560412753,0.0,7.0,Low,10.0
508,High,right,90.0,4.363713532580109,1.0,8.0,Low,10.0
509,High,left,90.0,1.8494591617935066,0.0,9.0,Low,10.0
510,High,left,90.0,-0.4627791205392211,0.0,10.0,Low,10.0
511,High,right,90.0,2.346630491254168,0.0,11.0,Low,10.0
512,High,left,90.0,4.17272168269167,1.0,12.0,Low,10.0
513,High,right,90.0,4.625385242065413,1.0,13.0,Low,10.0
514,High,left,90.0,-0.10375714756511689,0.0,14.0,Low,10.0
515,High,right,90.0,4.207655330159385,0.0,15.0,Low,10.0
516,High,right,90.0,1.9961796713278663,1.0,16.0,Low,10.0
517,High,right,90.0,0.4406241383619671,0.0,17.0,Low,10.0
518,High,left,90.0,1.1613119736367434,1.0,18.0,Low,10.0
519,High,right,90.0,3.9802338626700164,0.0,19.0,Low,10.0
520,High,left,90.0,6.167411250009699,0.0,20.0,Low,10.0
521,High,right,90.0,2.7582862900814273,1.0,21.0,Low,10.0
522,High,right,90.0,0.731365937101263,1.0,22.0,Low,10.0
523,High,right,90.0,1.1320779753196226,1.0,23.0,Low,10.0
524,High,left,90.0,4.857745610949824,0.0,24.0,Low,10.0
525,High,right,90.0,0.43853662024752316,1.0,25.0,Low,10.0
526,High,left,90.0,0.7876652996939901,0.0,26.0,Low,10.0
527,High,right,90.0,2.9587708315255457,1.0,27.0,Low,10.0
528,High,right,90.0,3.190605054185914,0.0,28.0,Low,10.0
529,High,left,90.0,1.22092282154573,0.0,29.0,Low,10.0
530,High,right,90.0,1.9975576530894148,1.0,30.0,Low,10.0
531,High,right,90.0,1.1521085989905693,0.0,31.0,Low,10.0
532,High,left,90.0,2.22772169323545,1.0,32.0,Low,10.0
533,High,right,90.0,0.8168607715936673,1.0,33.0,Low,10.0
534,High,left,90.0,2.0249269030993737,1.0,34.0,Low,10.0
535,High,left,90.0,1.7212688706156118,1.0,35.0,Low,10.0
536,High,right,90.0,6.687948510061169,1.0,36.0,Low,10.0
537,High,left,90.0,1.9180585832772281,0.0,37.0,Low,10.0
538,High,left,90.0,1.984477612785918,0.0,38.0,Low,10.0
539,High,left,90.0,-4.195280057398472,0.0,39.0,Low,10.0
540,High,right,90.0,1.1332562723938315,1.0,40.0,Low,10.0
541,High,left,90.0,0.02870916284780556,1.0,41.0,Low,10.0
542,High,left,90.0,1.7201664587067027,0.0,42.0,Low,10.0
543,High,left,90.0,3.6514604827246187,1.0,43.0,Low,10.0
544,High,left,90.0,-0.7371551364331599,1.0,44.0,Low,10.0
545,High,right,90.0,0.2893067732742993,1.0,45.0,Low,10.0
546,High,right,90.0,1.6338859185164558,1.0,46.0,Low,10.0
547,High,left,90.0,2.9311470988117416,1.0,47.0,Low,10.0
548,High,right,90.0,0.7542556650135028,1.0,48.0,Low,10.0
549,High,left,90.0,0.9963864370035459,0.0,49.0,Low,10.0
550,Low,right,90.0,1.1174862550538904,0.0,0.0,High,11.0
551,Low,left,90.0,2.7918021796785637,1.0,1.0,High,11.0
552,Low,right,90.0,0.5178437153879756,0.0,2.0,High,11.0
553,Low,left,90.0,3.4683838858800318,1.0,3.0,High,11.0
554,Low,right,90.0,1.68385860202391,1.0,4.0,High,11.0
555,Low,left,90.0,2.911889297727221,0.0,5.0,High,11.0
556,Low,left,90.0,0.9746179327725504,1.0,6.0,High,11.0
557,Low,right,90.0,0.7761188906584503,1.0,7.0,High,11.0
558,Low,left,90.0,1.043523735909692,1.0,8.0,High,11.0
559,Low,right,90.0,0.02001895783292551,0.0,9.0,High,11.0
560,Low,right,90.0,2.058023545049828,1.0,10.0,High,11.0
561,Low,right,90.0,2.794105294013751,1.0,11.0,High,11.0
562,Low,left,90.0,5.472106510259417,1.0,12.0,High,11.0
563,Low,right,90.0,2.0570145375762694,0.0,13.0,High,11.0
564,Low,left,90.0,-0.5896194639826837,0.0,14.0,High,11.0
565,Low,left,90.0,2.0875695659191202,0.0,15.0,High,11.0
566,Low,right,90.0,-3.2861606114261375,0.0,16.0,High,11.0
567,Low,right,90.0,2.5506376620315354,0.0,17.0,High,11.0
568,Low,left,90.0,3.586059876799454,1.0,18.0,High,11.0
569,Low,right,90.0,0.9053537178970021,1.0,19.0,High,11.0
570,Low,right,90.0,2.1855806474926993,1.0,20.0,High,11.0
571,Low,right,90.0,2.6917054854683196,1.0,21.0,High,11.0
572,Low,left,90.0,3.4842548325288223,1.0,22.0,High,11.0
573,Low,left,90.0,-0.4279088124289778,1.0,23.0,High,11.0
574,Low,right,90.0,3.3998700700240665,1.0,24.0,High,11.0
575,Low,right,90.0,3.5236090814399663,1.0,25.0,High,11.0
576,Low,right,90.0,-1.848321585629622,0.0,26.0,High,11.0
577,Low,left,90.0,0.15740261717414317,1.0,27.0,High,11.0
578,Low,right,90.0,6.3461327697146235,1.0,28.0,High,11.0
579,Low,left,90.0,2.5078435920486797,1.0,29.0,High,11.0
580,Low,left,90.0,-0.7647191874826031,0.0,30.0,High,11.0
581,Low,left,90.0,7.177236798922369,0.0,31.0,High,11.0
582,Low,right,90.0,1.552913022944876,1.0,32.0,High,11.0
583,Low,right,90.0,4.352632681657079,1.0,33.0,High,11.0
584,Low,right,90.0,2.1007041130516435,0.0,34.0,High,11.0
585,Low,left,90.0,4.440667671317598,0.0,35.0,High,11.0
586,Low,right,90.0,6.14943920470426,1.0,36.0,High,11.0
587,Low,left,90.0,3.6742028657286023,0.0,37.0,High,11.0
588,Low,left,90.0,1.704514960023519,0.0,38.0,High,11.0
589,Low,left,90.0,3.064647677715455,0.0,39.0,High,11.0
590,Low,left,90.0,1.3421882425788734,1.0,40.0,High,11.0
591,Low,left,90.0,4.878206097061846,1.0,41.0,High,11.0
592,Low,left,90.0,0.7723655198453261,0.0,42.0,High,11.0
593,Low,right,90.0,1.3188928779820297,0.0,43.0,High,11.0
594,Low,left,90.0,3.08196872716913,0.0,44.0,High,11.0
595,Low,right,90.0,1.4638381549896948,1.0,45.0,High,11.0
596,Low,right,90.0,0.22711389174580265,1.0,46.0,High,11.0
597,Low,left,90.0,1.1794427174730946,0.0,47.0,High,11.0
598,Low,right,90.0,5.353805025661149,1.0,48.0,High,11.0
599,Low,left,90.0,0.08474257883533642,0.0,49.0,High,11.0
