,Arousal,KeyPressed,LearningTime,RT,Response,TrialNumber,Valence,nBlock
0,High,right,30.0,3.0094760880798916,0.0,0.0,High,0.0
1,High,left,30.0,0.891204230643863,1.0,1.0,High,0.0
2,High,left,30.0,-2.0486092202438755,0.0,2.0,High,0.0
3,High,right,30.0,4.066072187375628,0.0,3.0,High,0.0
4,High,right,30.0,4.694922573646657,0.0,4.0,High,0.0
5,High,left,30.0,-0.13602498865916934,0.0,5.0,High,0.0
6,High,right,30.0,3.8620477821349657,1.0,6.0,High,0.0
7,High,left,30.0,-0.06680851458060788,1.0,7.0,High,0.0
8,High,right,30.0,0.8894850090680173,0.0,8.0,High,0.0
9,High,right,30.0,-0.8463918653872651,0.0,9.0,High,0.0
10,High,left,30.0,0.40105802863865936,0.0,10.0,High,0.0
11,High,right,30.0,-1.7051621451290955,0.0,11.0,High,0.0
12,High,left,30.0,1.5258296728507663,0.0,12.0,High,0.0
13,High,right,30.0,0.2559643354198009,1.0,13.0,High,0.0
14,High,right,30.0,4.218400406992955,1.0,14.0,High,0.0
15,High,right,30.0,2.7484390369122007,1.0,15.0,High,0.0
16,High,right,30.0,3.8543676321488833,1.0,16.0,High,0.0
17,High,left,30.0,1.251278041260121,1.0,17.0,High,0.0
18,High,right,30.0,1.2330166862902194,1.0,18.0,High,0.0
19,High,left,30.0,3.217498535145496,0.0,19.0,High,0.0
20,High,right,30.0,1.4773681778938057,1.0,20.0,High,0.0
21,High,left,30.0,4.350596614170134,1.0,21.0,High,0.0
22,High,right,30.0,0.6777974389138819,1.0,22.0,High,0.0
23,High,left,30.0,0.16962321609970932,1.0,23.0,High,0.0
24,High,left,30.0,-1.8111636937664088,0.0,24.0,High,0.0
25,High,right,30.0,1.0548286726470972,0.0,25.0,High,0.0
26,High,left,30.0,3.9496667340664686,0.0,26.0,High,0.0
27,High,right,30.0,-0.5326635671462172,0.0,27.0,High,0.0
28,High,left,30.0,1.5114041520790793,1.0,28.0,High,0.0
29,High,left,30.0,0.16475830893566945,1.0,29.0,High,0.0
30,High,right,30.0,2.6969891276934175,1.0,30.0,High,0.0
31,High,left,30.0,-1.5831104070984354,1.0,31.0,High,0.0
32,High,right,30.0,5.716178869080132,1.0,32.0,High,0.0
33,High,left,30.0,5.779643247556625,1.0,33.0,High,0.0
34,High,left,30.0,3.893194901388073,1.0,34.0,High,0.0
35,High,right,30.0,-0.7844050215544991,0.0,35.0,High,0.0
36,High,right,30.0,1.873235272633249,0.0,36.0,High,0.0
37,High,left,30.0,3.0821504348647357,1.0,37.0,High,0.0
38,High,right,30.0,0.9198183655214284,1.0,38.0,High,0.0
39,High,left,30.0,2.2979213643144436,1.0,39.0,High,0.0
40,High,right,30.0,-0.3034376160539156,1.0,40.0,High,0.0
41,High,left,30.0,2.5545517128531197,1.0,41.0,High,0.0
42,High,right,30.0,2.4383301116779235,0.0,42.0,High,0.0
43,High,right,30.0,3.08531869243014,1.0,43.0,High,0.0
44,High,right,30.0,1.8850633749426517,0.0,44.0,High,0.0
45,High,right,30.0,2.2331339303421176,1.0,45.0,High,0.0
46,High,right,30.0,4.303331489055004,1.0,46.0,High,0.0
47,High,left,30.0,2.991857280680606,1.0,47.0,High,0.0
48,High,left,30.0,5.310664103534162,1.0,48.0,High,0.0
49,High,right,30.0,2.477106314475015,1.0,49.0,High,0.0
50,Low,right,30.0,5.375952929998569,1.0,0.0,Low,1.0
51,Low,left,30.0,1.1564129802150633,1.0,1.0,Low,1.0
52,Low,right,30.0,0.850409284827474,1.0,2.0,Low,1.0
53,Low,right,30.0,-0.024798548457990233,0.0,3.0,Low,1.0
54,Low,right,30.0,3.693528283475602,1.0,4.0,Low,1.0
55,Low,left,30.0,-0.09262334457959764,1.0,5.0,Low,1.0
56,Low,left,30.0,-0.44066093483896984,1.0,6.0,Low,1.0
57,Low,left,30.0,5.548942574270592,1.0,7.0,Low,1.0
58,Low,right,30.0,3.784613615211816,0.0,8.0,Low,1.0
59,Low,left,30.0,3.0208638255484215,0.0,9.0,Low,1.0
60,Low,left,30.0,0.06949036310654844,0.0,10.0,Low,1.0
61,Low,right,30.0,3.1305987563986895,1.0,11.0,Low,1.0
62,Low,left,30.0,3.349637757854163,0.0,12.0,Low,1.0
63,Low,left,30.0,-3.3101567320778424,1.0,13.0,Low,1.0
64,Low,left,30.0,3.417423912818723,1.0,14.0,Low,1.0
65,Low,right,30.0,2.933882208440309,0.0,15.0,Low,1.0
66,Low,right,30.0,-1.0371974866201092,1.0,16.0,Low,1.0
67,Low,right,30.0,4.139579569431965,1.0,17.0,Low,1.0
68,Low,left,30.0,1.8746154798467642,0.0,18.0,Low,1.0
69,Low,left,30.0,5.596607497515837,0.0,19.0,Low,1.0
70,Low,right,30.0,1.8136704315779941,1.0,20.0,Low,1.0
71,Low,right,30.0,-0.2886445316041222,1.0,21.0,Low,1.0
72,Low,left,30.0,0.9115944100106741,0.0,22.0,Low,1.0
73,Low,left,30.0,0.5592675695465485,0.0,23.0,Low,1.0
74,Low,left,30.0,5.741033646462226,1.0,24.0,Low,1.0
75,Low,right,30.0,1.1284490581379145,0.0,25.0,Low,1.0
76,Low,right,30.0,3.01458156817242,1.0,26.0,Low,1.0
77,Low,right,30.0,-1.463389497643477,0.0,27.0,Low,1.0
78,Low,right,30.0,0.314500328438853,1.0,28.0,Low,1.0
79,Low,left,30.0,0.1849988387536734,1.0,29.0,Low,1.0
80,Low,right,30.0,6.091947355802699,1.0,30.0,Low,1.0
81,Low,right,30.0,1.8796047540570326,1.0,31.0,Low,1.0
82,Low,left,30.0,-0.14050514096928257,0.0,32.0,Low,1.0
83,Low,left,30.0,2.3362240482036443,0.0,33.0,Low,1.0
84,Low,left,30.0,0.8255490563892596,1.0,34.0,Low,1.0
85,Low,left,30.0,6.267101553820103,0.0,35.0,Low,1.0
86,Low,left,30.0,3.7218263365976894,1.0,36.0,Low,1.0
87,Low,right,30.0,-1.488457742223418,0.0,37.0,Low,1.0
88,Low,right,30.0,4.902883148685513,1.0,38.0,Low,1.0
89,Low,left,30.0,2.3599569761320685,1.0,39.0,Low,1.0
90,Low,right,30.0,-0.11905584705091465,0.0,40.0,Low,1.0
91,Low,right,30.0,1.7994687638445748,1.0,41.0,Low,1.0
92,Low,right,30.0,-0.30508822268977864,0.0,42.0,Low,1.0
93,Low,right,30.0,2.7230829072578127,1.0,43.0,Low,1.0
94,Low,left,30.0,2.3286892310381417,1.0,44.0,Low,1.0
95,Low,right,30.0,1.5105823603815085,1.0,45.0,Low,1.0
96,Low,left,30.0,0.5631380177509078,1.0,46.0,Low,1.0
97,Low,right,30.0,2.224358169418412,0.0,47.0,Low,1.0
98,Low,left,30.0,1.6111433747511406,0.0,48.0,Low,1.0
99,Low,left,30.0,3.7750021735208112,0.0,49.0,Low,1.0
100,High,right,30.0,0.047685230075388274,0.0,0.0,Low,2.0
101,High,right,30.0,3.13423444987189,0.0,1.0,Low,2.0
102,High,right,30.0,0.5276747175837593,0.0,2.0,Low,2.0
103,High,left,30.0,3.747276650103414,1.0,3.0,Low,2.0
104,High,left,30.0,1.5501435165711157,0.0,4.0,Low,2.0
105,High,right,30.0,4.5911747615852185,1.0,5.0,Low,2.0
106,High,right,30.0,-0.7897095572179285,0.0,6.0,Low,2.0
107,High,left,30.0,0.3435886208724743,0.0,7.0,Low,2.0
108,High,left,30.0,0.38319142803923856,1.0,8.0,Low,2.0
109,High,right,30.0,3.534062357280973,0.0,9.0,Low,2.0
110,High,right,30.0,5.239054819123017,1.0,10.0,Low,2.0
111,High,left,30.0,4.167211962379009,1.0,11.0,Low,2.0
112,High,right,30.0,3.1090597914676312,1.0,12.0,Low,2.0
113,High,right,30.0,1.6920664729355601,1.0,13.0,Low,2.0
114,High,right,30.0,0.9743348284438829,1.0,14.0,Low,2.0
115,High,right,30.0,2.09553694020149,0.0,15.0,Low,2.0
116,High,right,30.0,3.403404513946528,1.0,16.0,Low,2.0
117,High,right,30.0,0.03476108095485242,1.0,17.0,Low,2.0
118,High,right,30.0,3.1554798018056056,0.0,18.0,Low,2.0
119,High,right,30.0,1.071733896911233,0.0,19.0,Low,2.0
120,High,left,30.0,0.5194127080402862,1.0,20.0,Low,2.0
121,High,right,30.0,2.127330755809248,1.0,21.0,Low,2.0
122,High,left,30.0,2.9079069240749704,1.0,22.0,Low,2.0
123,High,left,30.0,1.1529255730525578,0.0,23.0,Low,2.0
124,High,left,30.0,0.8743363035650257,1.0,24.0,Low,2.0
125,High,right,30.0,2.901304412152566,1.0,25.0,Low,2.0
126,High,right,30.0,2.628876462445893,1.0,26.0,Low,2.0
127,High,right,30.0,-0.031025196862018323,1.0,27.0,Low,2.0
128,High,right,30.0,-0.9250044843394338,1.0,28.0,Low,2.0
129,High,left,30.0,3.747497998782647,1.0,29.0,Low,2.0
130,High,right,30.0,-0.5867190978284933,1.0,30.0,Low,2.0
131,High,right,30.0,2.706068120061903,1.0,31.0,Low,2.0
132,High,left,30.0,0.5262898596053296,1.0,32.0,Low,2.0
133,High,right,30.0,2.4394241196611053,1.0,33.0,Low,2.0
134,High,right,30.0,2.0561263412890556,0.0,34.0,Low,2.0
135,High,left,30.0,-1.5787855760905218,0.0,35.0,Low,2.0
136,High,left,30.0,-2.465805638737339,0.0,36.0,Low,2.0
137,High,right,30.0,3.6728759222356704,1.0,37.0,Low,2.0
138,High,right,30.0,4.6218062513440055,0.0,38.0,Low,2.0
139,High,right,30.0,5.997591026903935,0.0,39.0,Low,2.0
140,High,right,30.0,4.533423791876322,0.0,40.0,Low,2.0
141,High,left,30.0,3.5036121797140427,1.0,41.0,Low,2.0
142,High,right,30.0,5.499170174663599,1.0,42.0,Low,2.0
143,High,left,30.0,0.5743249778064057,1.0,43.0,Low,2.0
144,High,left,30.0,0.45121213754636047,1.0,44.0,Low,2.0
145,High,left,30.0,-0.09659225258189297,0.0,45.0,Low,2.0
146,High,left,30.0,1.8672368733777027,1.0,46.0,Low,2.0
147,High,right,30.0,0.47228896355869066,0.0,47.0,Low,2.0
148,High,left,30.0,1.4974108586068935,0.0,48.0,Low,2.0
149,High,left,30.0,2.251093647798463,0.0,49.0,Low,2.0
150,Low,right,30.0,7.558536882418241,1.0,0.0,High,3.0
151,Low,left,30.0,3.7932669694856376,1.0,1.0,High,3.0
152,Low,right,30.0,4.390279066995894,1.0,2.0,High,3.0
153,Low,left,30.0,1.073723722113985,0.0,3.0,High,3.0
154,Low,right,30.0,2.226073991184756,0.0,4.0,High,3.0
155,Low,right,30.0,-3.2014702465627787,1.0,5.0,High,3.0
156,Low,right,30.0,3.253223802275743,1.0,6.0,High,3.0
157,Low,right,30.0,2.820980652679332,1.0,7.0,High,3.0
158,Low,left,30.0,2.5502882163856677,1.0,8.0,High,3.0
159,Low,left,30.0,3.9932150450674238,0.0,9.0,High,3.0
160,Low,right,30.0,8.958250902294381,1.0,10.0,High,3.0
161,Low,left,30.0,2.5572064021943586,0.0,11.0,High,3.0
162,Low,right,30.0,3.041188673659801,1.0,12.0,High,3.0
163,Low,right,30.0,2.02752425837958,0.0,13.0,High,3.0
164,Low,right,30.0,3.9168000600118833,1.0,14.0,High,3.0
165,Low,left,30.0,1.4918612003654423,1.0,15.0,High,3.0
166,Low,right,30.0,0.3576205818192957,0.0,16.0,High,3.0
167,Low,left,30.0,1.8506616570097074,0.0,17.0,High,3.0
168,Low,left,30.0,3.2511919398261027,1.0,18.0,High,3.0
169,Low,left,30.0,1.317473205451879,0.0,19.0,High,3.0
170,Low,right,30.0,1.9815450382974409,0.0,20.0,High,3.0
171,Low,right,30.0,0.8930695546889563,0.0,21.0,High,3.0
172,Low,left,30.0,0.5265672110076226,0.0,22.0,High,3.0
173,Low,left,30.0,1.0565990133509844,1.0,23.0,High,3.0
174,Low,right,30.0,2.4698635862564062,1.0,24.0,High,3.0
175,Low,right,30.0,3.5690250074497207,1.0,25.0,High,3.0
176,Low,right,30.0,3.2872485507321403,0.0,26.0,High,3.0
177,Low,right,30.0,3.0072891315854493,0.0,27.0,High,3.0
178,Low,right,30.0,-0.8405049796122739,1.0,28.0,High,3.0
179,Low,left,30.0,2.2858353828114883,1.0,29.0,High,3.0
180,Low,right,30.0,0.23012409309249593,0.0,30.0,High,3.0
181,Low,right,30.0,-1.3102727649494494,1.0,31.0,High,3.0
182,Low,left,30.0,1.0007975532726525,1.0,32.0,High,3.0
183,Low,right,30.0,4.30749665034709,1.0,33.0,High,3.0
184,Low,right,30.0,2.7641074988518706,0.0,34.0,High,3.0
185,Low,left,30.0,3.4682648092751993,1.0,35.0,High,3.0
186,Low,right,30.0,0.2785955741563433,0.0,36.0,High,3.0
187,Low,right,30.0,4.8937128795528855,1.0,37.0,High,3.0
188,Low,left,30.0,-0.0826178153032826,0.0,38.0,High,3.0
189,Low,left,30.0,3.608119120676868,1.0,39.0,High,3.0
190,Low,left,30.0,0.18034333192739904,1.0,40.0,High,3.0
191,Low,left,30.0,4.969938263311079,1.0,41.0,High,3.0
192,Low,left,30.0,5.109752217946854,0.0,42.0,High,3.0
193,Low,right,30.0,1.8668004339582067,1.0,43.0,High,3.0
194,Low,left,30.0,3.8043512209676456,0.0,44.0,High,3.0
195,Low,right,30.0,-1.4088822257216291,0.0,45.0,High,3.0
196,Low,left,30.0,0.34959375188728203,0.0,46.0,High,3.0
197,Low,right,30.0,0.8435429157837515,0.0,47.0,High,3.0
198,Low,right,30.0,2.603370284120089,0.0,48.0,High,3.0
199,Low,right,30.0,1.961220351266102,1.0,49.0,High,3.0
200,High,right,60.0,5.430377220329835,0.0,0.0,High,4.0
201,High,left,60.0,-1.0570743353350447,1.0,1.0,High,4.0
202,High,right,60.0,3.4825933931860007,0.0,2.0,High,4.0
203,High,right,60.0,1.2369359327899772,1.0,3.0,High,4.0
204,High,left,60.0,3.5813839593680985,0.0,4.0,High,4.0
205,High,left,60.0,3.221619635704613,1.0,5.0,High,4.0
206,High,left,60.0,2.02201450809216,0.0,6.0,High,4.0
207,High,right,60.0,-3.644507859150925,0.0,7.0,High,4.0
208,High,left,60.0,4.095782273367609,1.0,8.0,High,4.0
209,High,right,60.0,2.473039906502801,0.0,9.0,High,4.0
210,High,left,60.0,-0.8098097965407931,1.0,10.0,High,4.0
211,High,right,60.0,3.0586837568757446,1.0,11.0,High,4.0
212,High,right,60.0,3.5881429740539055,0.0,12.0,High,4.0
213,High,right,60.0,0.9309831610123349,0.0,13.0,High,4.0
214,High,right,60.0,0.6638937363933086,0.0,14.0,High,4.0
215,High,right,60.0,1.8199598315023051,0.0,15.0,High,4.0
216,High,right,60.0,0.640427191520774,1.0,16.0,High,4.0
217,High,left,60.0,1.1074096571711864,1.0,17.0,High,4.0
218,High,right,60.0,2.8261125100045277,0.0,18.0,High,4.0
219,High,right,60.0,1.5009854284170743,1.0,19.0,High,4.0
220,High,left,60.0,1.2776047995729525,0.0,20.0,High,4.0
221,High,left,60.0,-1.348859431826385,0.0,21.0,High,4.0
222,High,right,60.0,2.2618318179797585,0.0,22.0,High,4.0
223,High,left,60.0,-0.94357416774253,0.0,23.0,High,4.0
224,High,right,60.0,-3.199922719670159,0.0,24.0,High,4.0
225,High,right,60.0,4.042738972699042,0.0,25.0,High,4.0
226,High,right,60.0,6.543044285898453,0.0,26.0,High,4.0
227,High,right,60.0,6.46049715785389,1.0,27.0,High,4.0
228,High,left,60.0,3.633581575940943,0.0,28.0,High,4.0
229,High,left,60.0,3.325402576546762,1.0,29.0,High,4.0
230,High,left,60.0,2.611610723016241,1.0,30.0,High,4.0
231,High,left,60.0,-0.825211145797395,1.0,31.0,High,4.0
232,High,right,60.0,3.0318140729089085,0.0,32.0,High,4.0
233,High,right,60.0,2.652486635506288,0.0,33.0,High,4.0
234,High,left,60.0,0.08003364935305912,0.0,34.0,High,4.0
235,High,right,60.0,1.9586003954335254,1.0,35.0,High,4.0
236,High,right,60.0,3.299608216205065,1.0,36.0,High,4.0
237,High,right,60.0,5.472516026980672,0.0,37.0,High,4.0
238,High,right,60.0,-0.3656643360741132,1.0,38.0,High,4.0
239,High,left,60.0,2.6329550792797347,0.0,39.0,High,4.0
240,High,right,60.0,0.1628672496530823,0.0,40.0,High,4.0
241,High,left,60.0,1.8626725702288953,1.0,41.0,High,4.0
242,High,left,60.0,0.891072109551488,1.0,42.0,High,4.0
243,High,right,60.0,6.502168693133198,1.0,43.0,High,4.0
244,High,right,60.0,0.9264793290369668,1.0,44.0,High,4.0
245,High,right,60.0,0.035023830030854075,1.0,45.0,High,4.0
246,High,right,60.0,2.2480908898021266,0.0,46.0,High,4.0
247,High,right,60.0,3.828143691756066,1.0,47.0,High,4.0
248,High,left,60.0,5.59502490982891,1.0,48.0,High,4.0
249,High,right,60.0,3.4806907141657537,0.0,49.0,High,4.0
250,Low,left,60.0,-0.6841181850577498,0.0,0.0,Low,5.0
251,Low,right,60.0,-1.1522125399383945,0.0,1.0,Low,5.0
252,Low,left,60.0,1.5238170721502218,0.0,2.0,Low,5.0
253,Low,right,60.0,1.5966402977833232,0.0,3.0,Low,5.0
254,Low,left,60.0,2.039214335158089,1.0,4.0,Low,5.0
255,Low,left,60.0,1.2747996691272272,1.0,5.0,Low,5.0
256,Low,left,60.0,0.41713084004488854,0.0,6.0,Low,5.0
257,Low,left,60.0,0.6877711261021087,0.0,7.0,Low,5.0
258,Low,right,60.0,0.512164722661594,0.0,8.0,Low,5.0
259,Low,left,60.0,0.8579964939454341,1.0,9.0,Low,5.0
260,Low,left,60.0,0.5667352875467251,1.0,10.0,Low,5.0
261,Low,right,60.0,4.139018300673824,1.0,11.0,Low,5.0
262,Low,right,60.0,3.4340062784714935,1.0,12.0,Low,5.0
263,Low,right,60.0,3.829268779525467,1.0,13.0,Low,5.0
264,Low,left,60.0,2.8778597891093973,1.0,14.0,Low,5.0
265,Low,right,60.0,1.7991960956279482,1.0,15.0,Low,5.0
266,Low,left,60.0,5.7285531979116,0.0,16.0,Low,5.0
267,Low,left,60.0,2.74546382460415,1.0,17.0,Low,5.0
268,Low,left,60.0,0.9752715487559753,1.0,18.0,Low,5.0
269,Low,left,60.0,3.7590551041808817,1.0,19.0,Low,5.0
270,Low,left,60.0,4.572152027653345,1.0,20.0,Low,5.0
271,Low,left,60.0,0.8740088506085667,0.0,21.0,Low,5.0
272,Low,right,60.0,0.11052470900702738,0.0,22.0,Low,5.0
273,Low,left,60.0,-2.1153697838125627,1.0,23.0,Low,5.0
274,Low,right,60.0,4.811379823928697,1.0,24.0,Low,5.0
275,Low,right,60.0,-1.7614765275959363,1.0,25.0,Low,5.0
276,Low,left,60.0,2.5121170627777634,0.0,26.0,Low,5.0
277,Low,left,60.0,1.1310684125877226,0.0,27.0,Low,5.0
278,Low,left,60.0,-0.18376428520950094,1.0,28.0,Low,5.0
279,Low,left,60.0,2.267719350327171,1.0,29.0,Low,5.0
280,Low,right,60.0,3.9560811621990224,0.0,30.0,Low,5.0
281,Low,right,60.0,3.867729459912705,1.0,31.0,Low,5.0
282,Low,right,60.0,1.6004948582882592,1.0,32.0,Low,5.0
283,Low,left,60.0,-2.3526613412934902,1.0,33.0,Low,5.0
284,Low,left,60.0,-1.051876161584862,0.0,34.0,Low,5.0
285,Low,left,60.0,1.3589312167797165,1.0,35.0,Low,5.0
286,Low,right,60.0,0.3080618236851338,0.0,36.0,Low,5.0
287,Low,left,60.0,1.3327995398857593,1.0,37.0,Low,5.0
288,Low,right,60.0,-0.40412867192688307,1.0,38.0,Low,5.0
289,Low,left,60.0,2.6589977083404754,0.0,39.0,Low,5.0
290,Low,right,60.0,1.1776981279579244,0.0,40.0,Low,5.0
291,Low,right,60.0,2.995678386044947,1.0,41.0,Low,5.0
292,Low,left,60.0,0.9470038852819596,0.0,42.0,Low,5.0
293,Low,right,60.0,2.6133370168883587,0.0,43.0,Low,5.0
294,Low,left,60.0,3.5023516286874923,1.0,44.0,Low,5.0
295,Low,left,60.0,3.48607885325549,1.0,45.0,Low,5.0
296,Low,right,60.0,3.5351491292183743,1.0,46.0,Low,5.0
297,Low,left,60.0,2.5052038876633214,1.0,47.0,Low,5.0
298,Low,left,60.0,1.1187621983776088,1.0,48.0,Low,5.0
299,Low,right,60.0,4.996015728494696,1.0,49.0,Low,5.0
300,High,left,90.0,2.986363877420983,0.0,0.0,High,6.0
301,High,left,90.0,3.6444445012049336,0.0,1.0,High,6.0
302,High,left,90.0,3.0138514892255914,0.0,2.0,High,6.0
303,High,left,90.0,-1.2854288817816082,0.0,3.0,High,6.0
304,High,left,90.0,2.189811785427828,1.0,4.0,High,6.0
305,High,right,90.0,4.718641799144553,1.0,5.0,High,6.0
306,High,right,90.0,2.714399328217957,0.0,6.0,High,6.0
307,High,left,90.0,-1.5435536955855236,1.0,7.0,High,6.0
308,High,right,90.0,2.2472353900190853,0.0,8.0,High,6.0
309,High,right,90.0,2.749229750525095,0.0,9.0,High,6.0
310,High,left,90.0,0.8560035317502048,0.0,10.0,High,6.0
311,High,right,90.0,0.8660680576813427,1.0,11.0,High,6.0
312,High,right,90.0,4.288365654877694,0.0,12.0,High,6.0
313,High,left,90.0,2.3203292254997425,0.0,13.0,High,6.0
314,High,right,90.0,1.9770032168544414,1.0,14.0,High,6.0
315,High,left,90.0,1.1643260777287672,0.0,15.0,High,6.0
316,High,left,90.0,2.062586982909345,1.0,16.0,High,6.0
317,High,left,90.0,1.8582847960955164,1.0,17.0,High,6.0
318,High,left,90.0,1.1921514918789322,1.0,18.0,High,6.0
319,High,right,90.0,1.2426749356787643,1.0,19.0,High,6.0
320,High,right,90.0,3.533981235739633,1.0,20.0,High,6.0
321,High,left,90.0,2.816116777740939,1.0,21.0,High,6.0
322,High,left,90.0,-0.3415535232201645,1.0,22.0,High,6.0
323,High,left,90.0,0.9941269529179331,0.0,23.0,High,6.0
324,High,right,90.0,-0.8722658702281068,1.0,24.0,High,6.0
325,High,right,90.0,1.4490559526805886,1.0,25.0,High,6.0
326,High,left,90.0,2.790766254246794,0.0,26.0,High,6.0
327,High,right,90.0,3.410021549383909,1.0,27.0,High,6.0
328,High,right,90.0,1.861266733094467,0.0,28.0,High,6.0
329,High,left,90.0,3.875020514020344,0.0,29.0,High,6.0
330,High,left,90.0,3.8296507941115534,1.0,30.0,High,6.0
331,High,left,90.0,6.431271063185199,0.0,31.0,High,6.0
332,High,right,90.0,2.7780000716318582,0.0,32.0,High,6.0
333,High,right,90.0,4.167873980477088,0.0,33.0,High,6.0
334,High,right,90.0,1.0451638424788463,0.0,34.0,High,6.0
335,High,left,90.0,3.149194570561553,1.0,35.0,High,6.0
336,High,left,90.0,7.574310097730724,0.0,36.0,High,6.0
337,High,right,90.0,2.3503302259777916,0.0,37.0,High,6.0
338,High,left,90.0,3.0642788786257062,1.0,38.0,High,6.0
339,High,left,90.0,0.6886467706585377,1.0,39.0,High,6.0
340,High,left,90.0,2.257942934153297,0.0,40.0,High,6.0
341,High,right,90.0,0.8291928799618806,0.0,41.0,High,6.0
342,High,left,90.0,2.2373378111704287,0.0,42.0,High,6.0
343,High,right,90.0,2.8611032476021,1.0,43.0,High,6.0
344,High,left,90.0,4.182389501746249,0.0,44.0,High,6.0
345,High,right,90.0,1.9337549533685876,0.0,45.0,High,6.0
346,High,left,90.0,1.3354395240363341,0.0,46.0,High,6.0
347,High,left,90.0,4.763740145120892,0.0,47.0,High,6.0
348,High,right,90.0,3.3237159107748195,0.0,48.0,High,6.0
349,High,left,90.0,4.139473315354248,0.0,49.0,High,6.0
350,Low,right,60.0,-2.8887241394833447,1.0,0.0,High,7.0
351,Low,right,60.0,1.9486839531457465,0.0,1.0,High,7.0
352,Low,right,60.0,4.070196373650649,0.0,2.0,High,7.0
353,Low,right,60.0,-1.8169572555551508,1.0,3.0,High,7.0
354,Low,right,60.0,1.9811718595124113,1.0,4.0,High,7.0
355,Low,right,60.0,1.6082564593690942,1.0,5.0,High,7.0
356,Low,left,60.0,3.1656812196706436,1.0,6.0,High,7.0
357,Low,right,60.0,5.542279668303416,0.0,7.0,High,7.0
358,Low,left,60.0,3.4653073586918004,1.0,8.0,High,7.0
359,Low,right,60.0,2.8406548428947076,0.0,9.0,High,7.0
360,Low,right,60.0,0.34993018545687016,0.0,10.0,High,7.0
361,Low,left,60.0,5.510008460071964,0.0,11.0,High,7.0
362,Low,left,60.0,3.636517481140131,0.0,12.0,High,7.0
363,Low,right,60.0,-0.19239340510538638,1.0,13.0,High,7.0
364,Low,left,60.0,-0.8358190505800671,1.0,14.0,High,7.0
365,Low,right,60.0,2.5707805353382724,0.0,15.0,High,7.0
366,Low,left,60.0,-2.6609048010335066,1.0,16.0,High,7.0
367,Low,right,60.0,0.10410009924972918,0.0,17.0,High,7.0
368,Low,right,60.0,0.8971944046679021,0.0,18.0,High,7.0
369,Low,right,60.0,-0.2783209715442234,1.0,19.0,High,7.0
370,Low,left,60.0,3.0407310020497054,1.0,20.0,High,7.0
371,Low,right,60.0,2.725568359426033,1.0,21.0,High,7.0
372,Low,right,60.0,7.316279681487932,0.0,22.0,High,7.0
373,Low,left,60.0,0.9799035558483529,0.0,23.0,High,7.0
374,Low,right,60.0,0.43894170517985964,0.0,24.0,High,7.0
375,Low,left,60.0,1.3922973716485312,1.0,25.0,High,7.0
376,Low,right,60.0,-0.7276273937844153,1.0,26.0,High,7.0
377,Low,right,60.0,-1.092379247109228,0.0,27.0,High,7.0
378,Low,right,60.0,1.7389321188378486,0.0,28.0,High,7.0
379,Low,right,60.0,-1.6142055501046637,1.0,29.0,High,7.0
380,Low,right,60.0,3.4386418127185325,1.0,30.0,High,7.0
381,Low,left,60.0,0.5134255605132618,0.0,31.0,High,7.0
382,Low,left,60.0,0.04027639013819728,0.0,32.0,High,7.0
383,Low,right,60.0,3.0359132629903343,0.0,33.0,High,7.0
384,Low,right,60.0,1.0277333539827689,0.0,34.0,High,7.0
385,Low,left,60.0,3.5766653446995402,1.0,35.0,High,7.0
386,Low,right,60.0,1.5857938932509585,0.0,36.0,High,7.0
387,Low,left,60.0,3.579094860266328,1.0,37.0,High,7.0
388,Low,right,60.0,2.5611152636204273,1.0,38.0,High,7.0
389,Low,right,60.0,1.7968060406114748,0.0,39.0,High,7.0
390,Low,right,60.0,-0.7734636610609362,1.0,40.0,High,7.0
391,Low,right,60.0,1.1320326962173113,1.0,41.0,High,7.0
392,Low,right,60.0,1.3062789863572841,0.0,42.0,High,7.0
393,Low,left,60.0,3.380271429192198,1.0,43.0,High,7.0
394,Low,right,60.0,-0.6877396475263633,0.0,44.0,High,7.0
395,Low,right,60.0,0.04883243670862303,0.0,45.0,High,7.0
396,Low,right,60.0,-2.658676952507253,0.0,46.0,High,7.0
397,Low,right,60.0,7.479484873702953,0.0,47.0,High,7.0
398,Low,left,60.0,0.36531873919033053,1.0,48.0,High,7.0
399,Low,right,60.0,-1.6407892228905423,0.0,49.0,High,7.0
400,High,right,60.0,0.18475951480091313,0.0,0.0,Low,8.0
401,High,right,60.0,3.190279400348352,0.0,1.0,Low,8.0
402,High,left,60.0,1.897300043245314,0.0,2.0,Low,8.0
403,High,right,60.0,1.0459973758732066,1.0,3.0,Low,8.0
404,High,right,60.0,5.012613743296725,1.0,4.0,Low,8.0
405,High,right,60.0,3.9622645833628822,1.0,5.0,Low,8.0
406,High,left,60.0,0.6763200065518546,0.0,6.0,Low,8.0
407,High,left,60.0,3.0616177527671837,1.0,7.0,Low,8.0
408,High,right,60.0,1.3489384464846903,0.0,8.0,Low,8.0
409,High,left,60.0,4.232732436937077,1.0,9.0,Low,8.0
410,High,left,60.0,0.9924532517079007,0.0,10.0,Low,8.0
411,High,right,60.0,5.050839242618228,1.0,11.0,Low,8.0
412,High,right,60.0,1.3035764044284477,1.0,12.0,Low,8.0
413,High,left,60.0,-1.2258157656309596,1.0,13.0,Low,8.0
414,High,right,60.0,2.388459764610588,1.0,14.0,Low,8.0
415,High,right,60.0,1.1453871394924722,0.0,15.0,Low,8.0
416,High,right,60.0,2.9168504783323104,1.0,16.0,Low,8.0
417,High,right,60.0,0.22418687025972694,0.0,17.0,Low,8.0
418,High,left,60.0,-0.4903390595079824,0.0,18.0,Low,8.0
419,High,left,60.0,2.1670956212013803,1.0,19.0,Low,8.0
420,High,right,60.0,0.9515886872858696,1.0,20.0,Low,8.0
421,High,left,60.0,7.35588341027815,1.0,21.0,Low,8.0
422,High,left,60.0,1.7870067847940716,1.0,22.0,Low,8.0
423,High,right,60.0,2.836576938766818,1.0,23.0,Low,8.0
424,High,left,60.0,1.062156627891587,0.0,24.0,Low,8.0
425,High,right,60.0,-2.3692954654066787,0.0,25.0,Low,8.0
426,High,left,60.0,0.24734584965884032,1.0,26.0,Low,8.0
427,High,right,60.0,3.92284490712026,0.0,27.0,Low,8.0
428,High,right,60.0,-1.2128996606030724,1.0,28.0,Low,8.0
429,High,left,60.0,0.03142127842711706,0.0,29.0,Low,8.0
430,High,right,60.0,1.133198776142091,1.0,30.0,Low,8.0
431,High,left,60.0,1.6697469432928234,1.0,31.0,Low,8.0
432,High,right,60.0,2.6218196899139383,1.0,32.0,Low,8.0
433,High,left,60.0,1.5752423555913806,0.0,33.0,Low,8.0
434,High,left,60.0,-1.0971174751736528,1.0,34.0,Low,8.0
435,High,right,60.0,-3.282129929007147,1.0,35.0,Low,8.0
436,High,right,60.0,3.7183297554199806,1.0,36.0,Low,8.0
437,High,right,60.0,7.7716913128839895,0.0,37.0,Low,8.0
438,High,left,60.0,1.4671814086652062,1.0,38.0,Low,8.0
439,High,right,60.0,3.4493750091321016,1.0,39.0,Low,8.0
440,High,left,60.0,-0.5535768474090066,0.0,40.0,Low,8.0
441,High,right,60.0,1.7295492151907927,0.0,41.0,Low,8.0
442,High,right,60.0,2.894464796995586,0.0,42.0,Low,8.0
443,High,left,60.0,1.3153197594993553,1.0,43.0,Low,8.0
444,High,right,60.0,3.8670028233867355,0.0,44.0,Low,8.0
445,High,left,60.0,1.4992025548970191,0.0,45.0,Low,8.0
446,High,left,60.0,1.1717519766644928,1.0,46.0,Low,8.0
447,High,left,60.0,1.6094466320184067,0.0,47.0,Low,8.0
448,High,right,60.0,2.7116441277497603,1.0,48.0,Low,8.0
449,High,right,60.0,2.0209355997668097,0.0,49.0,Low,8.0
450,Low,left,90.0,3.0327483709807668,0.0,0.0,High,9.0
451,Low,right,90.0,1.1963284099573606,0.0,1.0,High,9.0
452,Low,left,90.0,6.855555929493751,1.0,2.0,High,9.0
453,Low,right,90.0,-0.7324248072666109,0.0,3.0,High,9.0
454,Low,right,90.0,-0.6889539488889165,0.0,4.0,High,9.0
455,Low,left,90.0,0.7709593156145664,0.0,5.0,High,9.0
456,Low,left,90.0,-1.2087167200781783,1.0,6.0,High,9.0
457,Low,left,90.0,2.41004332433975,0.0,7.0,High,9.0
458,Low,left,90.0,5.149138248653557,0.0,8.0,High,9.0
459,Low,right,90.0,1.3443295357671414,0.0,9.0,High,9.0
460,Low,right,90.0,1.1687188266907842,1.0,10.0,High,9.0
461,Low,left,90.0,0.3269502828747086,1.0,11.0,High,9.0
462,Low,left,90.0,0.7417176345980216,0.0,12.0,High,9.0
463,Low,left,90.0,2.0445478180309085,1.0,13.0,High,9.0
464,Low,left,90.0,-1.1569139106973116,1.0,14.0,High,9.0
465,Low,right,90.0,2.4343835972228405,1.0,15.0,High,9.0
466,Low,left,90.0,0.05900307476661215,0.0,16.0,High,9.0
467,Low,left,90.0,3.1345243176596362,1.0,17.0,High,9.0
468,Low,right,90.0,4.144579852844746,1.0,18.0,High,9.0
469,Low,left,90.0,-1.3682880235714912,0.0,19.0,High,9.0
470,Low,right,90.0,3.332517100411323,0.0,20.0,High,9.0
471,Low,left,90.0,6.852160558653195,1.0,21.0,High,9.0
472,Low,left,90.0,-0.39291903441602316,0.0,22.0,High,9.0
473,Low,left,90.0,2.010084369966637,0.0,23.0,High,9.0
474,Low,left,90.0,0.6297524942423784,0.0,24.0,High,9.0
475,Low,left,90.0,1.2059166172448452,0.0,25.0,High,9.0
476,Low,left,90.0,3.3296334244043733,0.0,26.0,High,9.0
477,Low,right,90.0,1.2542847141735625,1.0,27.0,High,9.0
478,Low,left,90.0,3.7365385139163587,1.0,28.0,High,9.0
479,Low,right,90.0,0.02407846390740609,0.0,29.0,High,9.0
480,Low,left,90.0,2.0061648941331973,1.0,30.0,High,9.0
481,Low,right,90.0,2.4683245584184275,0.0,31.0,High,9.0
482,Low,right,90.0,4.19579232341764,0.0,32.0,High,9.0
483,Low,right,90.0,-0.049313427910367746,1.0,33.0,High,9.0
484,Low,right,90.0,3.2115152097248263,1.0,34.0,High,9.0
485,Low,right,90.0,5.472757650556699,0.0,35.0,High,9.0
486,Low,right,90.0,0.5486040643920534,1.0,36.0,High,9.0
487,Low,left,90.0,-0.08491801049306158,0.0,37.0,High,9.0
488,Low,left,90.0,2.0612579025734608,1.0,38.0,High,9.0
489,Low,left,90.0,4.168143928310432,1.0,39.0,High,9.0
490,Low,left,90.0,0.5387546883459784,1.0,40.0,High,9.0
491,Low,right,90.0,0.8614324268890321,1.0,41.0,High,9.0
492,Low,right,90.0,0.013058248039933718,0.0,42.0,High,9.0
493,Low,left,90.0,5.842164402796504,1.0,43.0,High,9.0
494,Low,right,90.0,1.9598733733297622,1.0,44.0,High,9.0
495,Low,right,90.0,3.052422436999825,0.0,45.0,High,9.0
496,Low,left,90.0,1.2160710627354994,1.0,46.0,High,9.0
497,Low,left,90.0,-0.044567550614169615,1.0,47.0,High,9.0
498,Low,right,90.0,5.066658026266155,0.0,48.0,High,9.0
499,Low,right,90.0,-0.3633013735679993,1.0,49.0,High,9.0
500,High,left,90.0,2.0045043748792626,1.0,0.0,Low,10.0
501,High,right,90.0,1.2953641475711473,1.0,1.0,Low,10.0
502,High,right,90.0,2.448078749617243,0.0,2.0,Low,10.0
503,High,left,90.0,2.5005762095902724,0.0,3.0,Low,10.0
504,High,right,90.0,5.147039252434565,1.0,4.0,Low,10.0
505,High,right,90.0,0.2851583336761849,1.0,5.0,Low,10.0
506,High,right,90.0,3.8357025334565957,0.0,6.0,Low,10.0
507,High,right,90.0,4.194404079073173,1.0,7.0,Low,10.0
508,High,right,90.0,3.6239291729926357,0.0,8.0,Low,10.0
509,High,left,90.0,0.8565450875779748,0.0,9.0,Low,10.0
510,High,right,90.0,1.7169849025864174,0.0,10.0,Low,10.0
511,High,left,90.0,7.695473292807443,1.0,11.0,Low,10.0
512,High,left,90.0,2.6401973342357103,0.0,12.0,Low,10.0
513,High,right,90.0,2.597341894771854,1.0,13.0,Low,10.0
514,High,left,90.0,1.6859995477844274,1.0,14.0,Low,10.0
515,High,right,90.0,4.620552035655226,0.0,15.0,Low,10.0
516,High,left,90.0,-0.5626140375357911,1.0,16.0,Low,10.0
517,High,right,90.0,-1.700804390146911,1.0,17.0,Low,10.0
518,High,left,90.0,1.989614463055447,1.0,18.0,Low,10.0
519,High,right,90.0,6.225122730022038,1.0,19.0,Low,10.0
520,High,right,90.0,2.3013322614872056,0.0,20.0,Low,10.0
521,High,right,90.0,1.9291321949147502,1.0,21.0,Low,10.0
522,High,left,90.0,3.8734516803276913,0.0,22.0,Low,10.0
523,High,right,90.0,1.325536484969508,1.0,23.0,Low,10.0
524,High,right,90.0,1.8858084987701949,0.0,24.0,Low,10.0
525,High,right,90.0,4.946017773877434,1.0,25.0,Low,10.0
526,High,left,90.0,1.8735324280626606,0.0,26.0,Low,10.0
527,High,right,90.0,1.1083644599559257,0.0,27.0,Low,10.0
528,High,left,90.0,-0.2079261084953501,0.0,28.0,Low,10.0
529,High,right,90.0,1.2777427345519075,1.0,29.0,Low,10.0
530,High,right,90.0,3.2001458447621998,1.0,30.0,Low,10.0
531,High,right,90.0,3.425952881313556,0.0,31.0,Low,10.0
532,High,right,90.0,3.261627690887094,0.0,32.0,Low,10.0
533,High,right,90.0,-1.3963741208190692,0.0,33.0,Low,10.0
534,High,right,90.0,0.4236562136009794,1.0,34.0,Low,10.0
535,High,right,90.0,1.2584829087047409,0.0,35.0,Low,10.0
536,High,right,90.0,2.1289014554754075,0.0,36.0,Low,10.0
537,High,left,90.0,3.63659330174188,1.0,37.0,Low,10.0
538,High,left,90.0,1.037030080454564,1.0,38.0,Low,10.0
539,High,right,90.0,1.2600580975213287,1.0,39.0,Low,10.0
540,High,left,90.0,-4.0127046448121035,0.0,40.0,Low,10.0
541,High,right,90.0,2.303468034671479,1.0,41.0,Low,10.0
542,High,right,90.0,1.3761652091339651,0.0,42.0,Low,10.0
543,High,right,90.0,3.5475814853682808,1.0,43.0,Low,10.0
544,High,left,90.0,4.455491449086546,0.0,44.0,Low,10.0
545,High,left,90.0,3.8911538517803606,0.0,45.0,Low,10.0
546,High,left,90.0,2.100954374184835,0.0,46.0,Low,10.0
547,High,left,90.0,1.044787458875965,1.0,47.0,Low,10.0
548,High,right,90.0,-1.407891031367381,0.0,48.0,Low,10.0
549,High,right,90.0,1.3219295139921103,0.0,49.0,Low,10.0
550,Low,left,90.0,3.976983796527678,1.0,0.0,Low,11.0
551,Low,right,90.0,0.6735600689745258,0.0,1.0,Low,11.0
552,Low,left,90.0,3.009709279694814,0.0,2.0,Low,11.0
553,Low,left,90.0,5.1218991116661545,1.0,3.0,Low,11.0
554,Low,left,90.0,-1.9657295660801277,1.0,4.0,Low,11.0
555,Low,left,90.0,1.2374085298222521,0.0,5.0,Low,11.0
556,Low,left,90.0,2.839986921224509,0.0,6.0,Low,11.0
557,Low,right,90.0,2.961446266639524,1.0,7.0,Low,11.0
558,Low,right,90.0,-0.4073211804391612,0.0,8.0,Low,11.0
559,Low,left,90.0,3.938242165069431,1.0,9.0,Low,11.0
560,Low,right,90.0,4.587811178998333,0.0,10.0,Low,11.0
561,Low,left,90.0,2.88599843012756,0.0,11.0,Low,11.0
562,Low,right,90.0,6.140025972404228,0.0,12.0,Low,11.0
563,Low,right,90.0,-1.0228605837964087,0.0,13.0,Low,11.0
564,Low,left,90.0,1.0154924524675601,1.0,14.0,Low,11.0
565,Low,left,90.0,0.7194658935942437,0.0,15.0,Low,11.0
566,Low,left,90.0,-1.3531723571289782,0.0,16.0,Low,11.0
567,Low,left,90.0,-0.5935103556119601,0.0,17.0,Low,11.0
568,Low,left,90.0,3.3114254264791976,1.0,18.0,Low,11.0
569,Low,left,90.0,0.17187364743825206,1.0,19.0,Low,11.0
570,Low,left,90.0,3.6786300928290094,0.0,20.0,Low,11.0
571,Low,right,90.0,1.6198830981320615,1.0,21.0,Low,11.0
572,Low,left,90.0,0.5983192702140694,0.0,22.0,Low,11.0
573,Low,right,90.0,1.2157835095317364,0.0,23.0,Low,11.0
574,Low,right,90.0,2.312473593099174,0.0,24.0,Low,11.0
575,Low,right,90.0,1.232330345377823,0.0,25.0,Low,11.0
576,Low,right,90.0,3.0915321015052273,1.0,26.0,Low,11.0
577,Low,right,90.0,2.5140318487641586,1.0,27.0,Low,11.0
578,Low,right,90.0,1.4175207657498625,1.0,28.0,Low,11.0
579,Low,right,90.0,-2.623933718861424,0.0,29.0,Low,11.0
580,Low,right,90.0,1.4184846363522627,1.0,30.0,Low,11.0
581,Low,left,90.0,1.2271334209706224,0.0,31.0,Low,11.0
582,Low,left,90.0,2.1123775187377474,1.0,32.0,Low,11.0
583,Low,right,90.0,3.5648860466986063,1.0,33.0,Low,11.0
584,Low,right,90.0,1.1048988358390854,1.0,34.0,Low,11.0
585,Low,right,90.0,2.391220590407119,0.0,35.0,Low,11.0
586,Low,right,90.0,6.53528027509374,1.0,36.0,Low,11.0
587,Low,left,90.0,-0.2064491315088013,1.0,37.0,Low,11.0
588,Low,left,90.0,3.939338936461935,0.0,38.0,Low,11.0
589,Low,right,90.0,0.6391976192800553,1.0,39.0,Low,11.0
590,Low,right,90.0,0.6775940439160331,1.0,40.0,Low,11.0
591,Low,left,90.0,4.665773018734213,1.0,41.0,Low,11.0
592,Low,right,90.0,-0.014618761256225188,1.0,42.0,Low,11.0
593,Low,right,90.0,3.033185379672627,1.0,43.0,Low,11.0
594,Low,left,90.0,0.2539805459362663,0.0,44.0,Low,11.0
595,Low,right,90.0,3.36400541611666,0.0,45.0,Low,11.0
596,Low,right,90.0,3.634890385584815,0.0,46.0,Low,11.0
597,Low,left,90.0,2.575857613854041,0.0,47.0,Low,11.0
598,Low,right,90.0,2.538940177341907,0.0,48.0,Low,11.0
599,Low,left,90.0,3.190505893127077,0.0,49.0,Low,11.0
