,Arousal,KeyPressed,LearningTime,RT,Response,TrialNumber,Valence,nBlock
0,High,right,30.0,3.9459704725117097,1.0,0.0,High,0.0
1,High,right,30.0,1.9259231198775366,0.0,1.0,High,0.0
2,High,left,30.0,3.5932036350713763,0.0,2.0,High,0.0
3,High,left,30.0,-0.46190397597681043,0.0,3.0,High,0.0
4,High,left,30.0,1.4307464705740034,1.0,4.0,High,0.0
5,High,right,30.0,1.7743033479083432,1.0,5.0,High,0.0
6,High,right,30.0,1.1576817748953285,0.0,6.0,High,0.0
7,High,left,30.0,3.4096661625824685,1.0,7.0,High,0.0
8,High,right,30.0,-0.099206734033356,0.0,8.0,High,0.0
9,High,right,30.0,3.1250822760513364,0.0,9.0,High,0.0
10,High,right,30.0,0.3989996580722581,1.0,10.0,High,0.0
11,High,left,30.0,5.1347149690054446,1.0,11.0,High,0.0
12,High,left,30.0,1.1563416698714721,1.0,12.0,High,0.0
13,High,left,30.0,5.308520540880302,0.0,13.0,High,0.0
14,High,left,30.0,-1.5994442723201443,1.0,14.0,High,0.0
15,High,right,30.0,0.7217369146499544,0.0,15.0,High,0.0
16,High,left,30.0,-0.00784759360376619,1.0,16.0,High,0.0
17,High,left,30.0,4.621617691998187,1.0,17.0,High,0.0
18,High,right,30.0,4.646123221556586,0.0,18.0,High,0.0
19,High,right,30.0,-2.291601002126547,1.0,19.0,High,0.0
20,High,left,30.0,1.7462636017051905,1.0,20.0,High,0.0
21,High,right,30.0,-2.142551207880882,0.0,21.0,High,0.0
22,High,right,30.0,3.385680348923578,1.0,22.0,High,0.0
23,High,right,30.0,0.857673948985735,1.0,23.0,High,0.0
24,High,left,30.0,1.2777297867217687,0.0,24.0,High,0.0
25,High,left,30.0,1.1668291613680621,0.0,25.0,High,0.0
26,High,left,30.0,3.6022458823762227,1.0,26.0,High,0.0
27,High,right,30.0,2.4394431223092647,1.0,27.0,High,0.0
28,High,left,30.0,3.677262761289179,1.0,28.0,High,0.0
29,High,left,30.0,-0.4361781404876832,1.0,29.0,High,0.0
30,High,right,30.0,0.5299073799986764,1.0,30.0,High,0.0
31,High,right,30.0,3.2455141561782543,1.0,31.0,High,0.0
32,High,right,30.0,3.5246700149559915,1.0,32.0,High,0.0
33,High,right,30.0,0.36390999575489524,0.0,33.0,High,0.0
34,High,right,30.0,2.5930047705972,1.0,34.0,High,0.0
35,High,left,30.0,3.9636935081996647,0.0,35.0,High,0.0
36,High,left,30.0,4.907015347424411,0.0,36.0,High,0.0
37,High,right,30.0,2.8528608161930316,0.0,37.0,High,0.0
38,High,right,30.0,2.7108787508800294,0.0,38.0,High,0.0
39,High,right,30.0,3.4521009646427157,0.0,39.0,High,0.0
40,High,right,30.0,5.376003005380112,0.0,40.0,High,0.0
41,High,right,30.0,0.6996505300502389,0.0,41.0,High,0.0
42,High,right,30.0,4.775564636382073,1.0,42.0,High,0.0
43,High,right,30.0,2.092214660501063,0.0,43.0,High,0.0
44,High,right,30.0,2.270608395982357,1.0,44.0,High,0.0
45,High,left,30.0,6.106976373074689,0.0,45.0,High,0.0
46,High,right,30.0,4.387252270146301,1.0,46.0,High,0.0
47,High,left,30.0,3.809026310528684,1.0,47.0,High,0.0
48,High,left,30.0,3.704724397264854,0.0,48.0,High,0.0
49,High,left,30.0,1.270698528737391,0.0,49.0,High,0.0
50,Low,right,30.0,-0.8167980183274821,1.0,0.0,Low,1.0
51,Low,left,30.0,4.120331402031235,0.0,1.0,Low,1.0
52,Low,right,30.0,1.189341968295809,1.0,2.0,Low,1.0
53,Low,right,30.0,-1.657368574485758,1.0,3.0,Low,1.0
54,Low,left,30.0,-0.35355407035047426,1.0,4.0,Low,1.0
55,Low,right,30.0,3.99241820461652,1.0,5.0,Low,1.0
56,Low,right,30.0,-2.9724456895112454,0.0,6.0,Low,1.0
57,Low,left,30.0,0.3454929686439534,1.0,7.0,Low,1.0
58,Low,right,30.0,5.015829183886282,1.0,8.0,Low,1.0
59,Low,right,30.0,3.093757944163409,1.0,9.0,Low,1.0
60,Low,left,30.0,2.3691502158223194,1.0,10.0,Low,1.0
61,Low,right,30.0,-0.2963651742493445,0.0,11.0,Low,1.0
62,Low,left,30.0,-0.602424022728925,1.0,12.0,Low,1.0
63,Low,left,30.0,3.9260716768543533,0.0,13.0,Low,1.0
64,Low,left,30.0,-1.1731680526100257,0.0,14.0,Low,1.0
65,Low,left,30.0,1.3741457245230078,0.0,15.0,Low,1.0
66,Low,left,30.0,-0.1443937917864082,1.0,16.0,Low,1.0
67,Low,right,30.0,1.5330893675943829,0.0,17.0,Low,1.0
68,Low,left,30.0,-3.5376678892815026,0.0,18.0,Low,1.0
69,Low,left,30.0,2.461609377475285,0.0,19.0,Low,1.0
70,Low,left,30.0,2.9921827356935724,0.0,20.0,Low,1.0
71,Low,left,30.0,0.17881094938177422,1.0,21.0,Low,1.0
72,Low,right,30.0,2.3789739786482293,1.0,22.0,Low,1.0
73,Low,right,30.0,2.873987385119115,1.0,23.0,Low,1.0
74,Low,left,30.0,0.6234578034808944,1.0,24.0,Low,1.0
75,Low,left,30.0,-0.6250543652895559,1.0,25.0,Low,1.0
76,Low,right,30.0,0.9437311493109362,1.0,26.0,Low,1.0
77,Low,left,30.0,1.1692526791355626,1.0,27.0,Low,1.0
78,Low,right,30.0,-0.5452692603583855,1.0,28.0,Low,1.0
79,Low,right,30.0,2.6576288780099584,0.0,29.0,Low,1.0
80,Low,right,30.0,3.6594801532954,1.0,30.0,Low,1.0
81,Low,left,30.0,1.0281260528524991,1.0,31.0,Low,1.0
82,Low,left,30.0,2.3646492442378446,0.0,32.0,Low,1.0
83,Low,right,30.0,2.396979530187269,0.0,33.0,Low,1.0
84,Low,right,30.0,3.306478845839086,1.0,34.0,Low,1.0
85,Low,left,30.0,4.2565039992768785,1.0,35.0,Low,1.0
86,Low,right,30.0,3.3143210486327748,0.0,36.0,Low,1.0
87,Low,right,30.0,2.0309530698771305,0.0,37.0,Low,1.0
88,Low,right,30.0,0.023430235222697826,1.0,38.0,Low,1.0
89,Low,right,30.0,4.88688095666522,0.0,39.0,Low,1.0
90,Low,right,30.0,2.145683700712803,1.0,40.0,Low,1.0
91,Low,right,30.0,2.3470802416901457,1.0,41.0,Low,1.0
92,Low,left,30.0,1.5796351405168183,1.0,42.0,Low,1.0
93,Low,right,30.0,-2.850256947731126,0.0,43.0,Low,1.0
94,Low,left,30.0,1.4143278026579407,1.0,44.0,Low,1.0
95,Low,left,30.0,4.820259643520517,0.0,45.0,Low,1.0
96,Low,left,30.0,3.334971268491762,0.0,46.0,Low,1.0
97,Low,left,30.0,4.034402714285515,0.0,47.0,Low,1.0
98,Low,right,30.0,2.100594960121623,1.0,48.0,Low,1.0
99,Low,left,30.0,1.8466926440422022,1.0,49.0,Low,1.0
100,High,right,60.0,1.1516881325770063,0.0,0.0,High,2.0
101,High,left,60.0,0.07235997795256521,0.0,1.0,High,2.0
102,High,right,60.0,-1.038028193142384,1.0,2.0,High,2.0
103,High,right,60.0,1.3402017566904865,1.0,3.0,High,2.0
104,High,right,60.0,3.980204146841804,0.0,4.0,High,2.0
105,High,left,60.0,1.8178177713223411,0.0,5.0,High,2.0
106,High,left,60.0,1.88153171721513,1.0,6.0,High,2.0
107,High,right,60.0,0.25512461833758904,0.0,7.0,High,2.0
108,High,right,60.0,0.8328990053619147,0.0,8.0,High,2.0
109,High,right,60.0,3.2062498008841787,0.0,9.0,High,2.0
110,High,left,60.0,1.3358966171289504,1.0,10.0,High,2.0
111,High,left,60.0,2.2205431073598922,0.0,11.0,High,2.0
112,High,right,60.0,0.0049981355781576475,0.0,12.0,High,2.0
113,High,right,60.0,0.7190474209517452,1.0,13.0,High,2.0
114,High,right,60.0,3.3102483355282635,0.0,14.0,High,2.0
115,High,right,60.0,2.9388778644233664,1.0,15.0,High,2.0
116,High,left,60.0,1.056468049097493,1.0,16.0,High,2.0
117,High,right,60.0,1.7833055253941499,0.0,17.0,High,2.0
118,High,left,60.0,-0.15341224481575577,0.0,18.0,High,2.0
119,High,right,60.0,2.0814221631529235,1.0,19.0,High,2.0
120,High,right,60.0,4.425065992560941,0.0,20.0,High,2.0
121,High,left,60.0,5.370113387184118,1.0,21.0,High,2.0
122,High,left,60.0,-0.4388887363085048,0.0,22.0,High,2.0
123,High,right,60.0,0.1481276674862606,1.0,23.0,High,2.0
124,High,left,60.0,-1.5744828807787414,1.0,24.0,High,2.0
125,High,left,60.0,2.2357186764795065,1.0,25.0,High,2.0
126,High,left,60.0,3.9833169049029156,1.0,26.0,High,2.0
127,High,left,60.0,3.0157931121635433,0.0,27.0,High,2.0
128,High,left,60.0,2.856684660397544,0.0,28.0,High,2.0
129,High,left,60.0,1.6085490707377632,1.0,29.0,High,2.0
130,High,right,60.0,3.2653049334927386,0.0,30.0,High,2.0
131,High,left,60.0,1.6215197838689859,0.0,31.0,High,2.0
132,High,left,60.0,0.49807713975329837,1.0,32.0,High,2.0
133,High,right,60.0,-2.125106698132664,1.0,33.0,High,2.0
134,High,left,60.0,5.162126269199638,1.0,34.0,High,2.0
135,High,right,60.0,4.032482597378082,1.0,35.0,High,2.0
136,High,left,60.0,4.648958817692302,1.0,36.0,High,2.0
137,High,left,60.0,7.725774809205697,0.0,37.0,High,2.0
138,High,left,60.0,1.7072442984455893,1.0,38.0,High,2.0
139,High,left,60.0,3.8369402592760444,1.0,39.0,High,2.0
140,High,right,60.0,2.8981498446813205,0.0,40.0,High,2.0
141,High,right,60.0,-0.4328891633942722,0.0,41.0,High,2.0
142,High,left,60.0,0.8793231009458871,1.0,42.0,High,2.0
143,High,right,60.0,0.3359280420513373,1.0,43.0,High,2.0
144,High,right,60.0,1.9150028801119874,1.0,44.0,High,2.0
145,High,left,60.0,-0.7431732821237986,0.0,45.0,High,2.0
146,High,right,60.0,4.11099602419667,1.0,46.0,High,2.0
147,High,left,60.0,-1.2656286398716596,0.0,47.0,High,2.0
148,High,left,60.0,1.9087315923020096,0.0,48.0,High,2.0
149,High,right,60.0,2.1442179352620836,1.0,49.0,High,2.0
150,Low,left,30.0,4.284941733895772,0.0,0.0,High,3.0
151,Low,right,30.0,6.265338380369268,1.0,1.0,High,3.0
152,Low,right,30.0,1.6723563320592647,1.0,2.0,High,3.0
153,Low,left,30.0,2.660171754721334,1.0,3.0,High,3.0
154,Low,left,30.0,1.954000579540453,1.0,4.0,High,3.0
155,Low,right,30.0,2.5745494201209485,0.0,5.0,High,3.0
156,Low,left,30.0,1.3643157385620048,0.0,6.0,High,3.0
157,Low,right,30.0,0.6832603949016385,0.0,7.0,High,3.0
158,Low,left,30.0,3.03744299870782,1.0,8.0,High,3.0
159,Low,left,30.0,1.2153294224847957,0.0,9.0,High,3.0
160,Low,right,30.0,0.5823121347138913,1.0,10.0,High,3.0
161,Low,left,30.0,4.524594468000242,0.0,11.0,High,3.0
162,Low,right,30.0,3.082192648051728,1.0,12.0,High,3.0
163,Low,right,30.0,1.6962444708302222,0.0,13.0,High,3.0
164,Low,left,30.0,-0.30165867037531546,1.0,14.0,High,3.0
165,Low,right,30.0,1.3651898772906714,1.0,15.0,High,3.0
166,Low,right,30.0,0.08037136037122095,1.0,16.0,High,3.0
167,Low,left,30.0,5.30011424009746,0.0,17.0,High,3.0
168,Low,left,30.0,0.966270745731449,1.0,18.0,High,3.0
169,Low,left,30.0,-0.2991859678894131,0.0,19.0,High,3.0
170,Low,left,30.0,2.6143778913775826,1.0,20.0,High,3.0
171,Low,right,30.0,0.0074704462439036945,0.0,21.0,High,3.0
172,Low,right,30.0,2.887807728547893,0.0,22.0,High,3.0
173,Low,left,30.0,4.242908743813301,1.0,23.0,High,3.0
174,Low,right,30.0,4.440013010333717,1.0,24.0,High,3.0
175,Low,left,30.0,2.322779955635891,0.0,25.0,High,3.0
176,Low,right,30.0,1.5301196365572882,1.0,26.0,High,3.0
177,Low,right,30.0,0.9212842892530935,0.0,27.0,High,3.0
178,Low,right,30.0,2.6844331587973973,0.0,28.0,High,3.0
179,Low,left,30.0,2.22778205335875,1.0,29.0,High,3.0
180,Low,left,30.0,2.3213100868396253,0.0,30.0,High,3.0
181,Low,right,30.0,4.728132906050019,1.0,31.0,High,3.0
182,Low,right,30.0,1.643696371915339,1.0,32.0,High,3.0
183,Low,right,30.0,6.46879884132136,0.0,33.0,High,3.0
184,Low,left,30.0,2.681331336323917,0.0,34.0,High,3.0
185,Low,right,30.0,3.2934836577113775,1.0,35.0,High,3.0
186,Low,left,30.0,1.8550381496782358,0.0,36.0,High,3.0
187,Low,left,30.0,6.061570631170965,0.0,37.0,High,3.0
188,Low,right,30.0,5.595614889075666,0.0,38.0,High,3.0
189,Low,right,30.0,0.5558044479062628,1.0,39.0,High,3.0
190,Low,left,30.0,5.7149997888155015,0.0,40.0,High,3.0
191,Low,left,30.0,0.770478025825263,1.0,41.0,High,3.0
192,Low,left,30.0,3.051014824408704,0.0,42.0,High,3.0
193,Low,left,30.0,3.199128720117418,1.0,43.0,High,3.0
194,Low,left,30.0,1.3741372682229396,0.0,44.0,High,3.0
195,Low,right,30.0,0.056399315990196985,0.0,45.0,High,3.0
196,Low,left,30.0,-1.0817320006582958,1.0,46.0,High,3.0
197,Low,right,30.0,3.74979402671781,0.0,47.0,High,3.0
198,Low,right,30.0,-0.6073420514124006,0.0,48.0,High,3.0
199,Low,right,30.0,5.217392484597834,0.0,49.0,High,3.0
200,High,right,30.0,-3.8702690376325224,0.0,0.0,Low,4.0
201,High,right,30.0,3.149758339839405,1.0,1.0,Low,4.0
202,High,right,30.0,-0.121341636432299,0.0,2.0,Low,4.0
203,High,left,30.0,3.7096689529520237,1.0,3.0,Low,4.0
204,High,left,30.0,3.67405729371805,0.0,4.0,Low,4.0
205,High,left,30.0,3.5775284215752916,1.0,5.0,Low,4.0
206,High,right,30.0,4.224316495859243,1.0,6.0,Low,4.0
207,High,right,30.0,1.1497807753599223,0.0,7.0,Low,4.0
208,High,right,30.0,2.6821493440034665,0.0,8.0,Low,4.0
209,High,left,30.0,-0.4027686710574394,1.0,9.0,Low,4.0
210,High,left,30.0,2.2058489896463014,1.0,10.0,Low,4.0
211,High,right,30.0,4.577299683436714,1.0,11.0,Low,4.0
212,High,left,30.0,0.22418612794893544,0.0,12.0,Low,4.0
213,High,left,30.0,1.475226594769816,0.0,13.0,Low,4.0
214,High,left,30.0,3.6389392128784452,0.0,14.0,Low,4.0
215,High,right,30.0,0.686401007778561,0.0,15.0,Low,4.0
216,High,right,30.0,1.8911571553673294,1.0,16.0,Low,4.0
217,High,left,30.0,-1.6689280638914847,1.0,17.0,Low,4.0
218,High,right,30.0,3.1947798872465807,1.0,18.0,Low,4.0
219,High,right,30.0,1.5122510186539602,0.0,19.0,Low,4.0
220,High,left,30.0,3.665598888103088,1.0,20.0,Low,4.0
221,High,right,30.0,1.3560410986729778,1.0,21.0,Low,4.0
222,High,right,30.0,1.050709255342313,0.0,22.0,Low,4.0
223,High,left,30.0,1.2431503107466808,0.0,23.0,Low,4.0
224,High,right,30.0,-0.21629822643568497,1.0,24.0,Low,4.0
225,High,right,30.0,1.4534966016071889,1.0,25.0,Low,4.0
226,High,right,30.0,1.8214080376041164,1.0,26.0,Low,4.0
227,High,right,30.0,3.850014379488722,1.0,27.0,Low,4.0
228,High,right,30.0,5.2098801005424615,0.0,28.0,Low,4.0
229,High,right,30.0,1.4047095657358666,1.0,29.0,Low,4.0
230,High,right,30.0,6.625853392221076,0.0,30.0,Low,4.0
231,High,right,30.0,4.106495160275425,0.0,31.0,Low,4.0
232,High,left,30.0,-0.6024438532426635,0.0,32.0,Low,4.0
233,High,left,30.0,-2.782884078555115,1.0,33.0,Low,4.0
234,High,right,30.0,2.352768996224012,1.0,34.0,Low,4.0
235,High,right,30.0,0.11802422954878455,0.0,35.0,Low,4.0
236,High,left,30.0,1.1131914900715318,0.0,36.0,Low,4.0
237,High,right,30.0,-0.05469695934469021,1.0,37.0,Low,4.0
238,High,right,30.0,0.21587956518765017,0.0,38.0,Low,4.0
239,High,right,30.0,4.278133585412709,0.0,39.0,Low,4.0
240,High,right,30.0,4.712149975906651,1.0,40.0,Low,4.0
241,High,left,30.0,1.4486325607835973,0.0,41.0,Low,4.0
242,High,left,30.0,1.5005127847630544,0.0,42.0,Low,4.0
243,High,left,30.0,0.8437913865876205,1.0,43.0,Low,4.0
244,High,right,30.0,2.7838941640707486,0.0,44.0,Low,4.0
245,High,left,30.0,5.423625659994281,0.0,45.0,Low,4.0
246,High,left,30.0,-0.027556884751087862,0.0,46.0,Low,4.0
247,High,left,30.0,1.5800363663867896,1.0,47.0,Low,4.0
248,High,left,30.0,2.680961149536989,1.0,48.0,Low,4.0
249,High,right,30.0,1.4628154797736266,1.0,49.0,Low,4.0
250,Low,right,60.0,3.4385379746545475,1.0,0.0,Low,5.0
251,Low,left,60.0,-1.1275980448627085,1.0,1.0,Low,5.0
252,Low,left,60.0,-2.904305986695344,1.0,2.0,Low,5.0
253,Low,left,60.0,2.1638512246881936,0.0,3.0,Low,5.0
254,Low,right,60.0,2.5752285733256377,0.0,4.0,Low,5.0
255,Low,right,60.0,1.7110198907996508,1.0,5.0,Low,5.0
256,Low,left,60.0,2.498719162246666,1.0,6.0,Low,5.0
257,Low,left,60.0,2.2137173541397366,1.0,7.0,Low,5.0
258,Low,right,60.0,1.9141507404933134,1.0,8.0,Low,5.0
259,Low,right,60.0,-0.4165487243153305,1.0,9.0,Low,5.0
260,Low,right,60.0,-0.5308991975631319,1.0,10.0,Low,5.0
261,Low,right,60.0,1.399319507599795,1.0,11.0,Low,5.0
262,Low,right,60.0,2.055801167858062,1.0,12.0,Low,5.0
263,Low,left,60.0,3.7833118289648526,0.0,13.0,Low,5.0
264,Low,left,60.0,5.669204185242629,0.0,14.0,Low,5.0
265,Low,left,60.0,5.130287900884361,1.0,15.0,Low,5.0
266,Low,left,60.0,2.328306386579188,0.0,16.0,Low,5.0
267,Low,right,60.0,4.490301225346373,1.0,17.0,Low,5.0
268,Low,left,60.0,4.254578139318345,1.0,18.0,Low,5.0
269,Low,right,60.0,4.217409862053154,1.0,19.0,Low,5.0
270,Low,right,60.0,0.2636950821966104,0.0,20.0,Low,5.0
271,Low,left,60.0,1.8028911176282372,0.0,21.0,Low,5.0
272,Low,right,60.0,2.514001096361227,1.0,22.0,Low,5.0
273,Low,right,60.0,-2.848323157255525,1.0,23.0,Low,5.0
274,Low,left,60.0,2.311503062374471,1.0,24.0,Low,5.0
275,Low,left,60.0,3.137396845638359,1.0,25.0,Low,5.0
276,Low,right,60.0,1.152706436746482,1.0,26.0,Low,5.0
277,Low,right,60.0,-0.4997403149509716,0.0,27.0,Low,5.0
278,Low,right,60.0,0.8170362413018653,0.0,28.0,Low,5.0
279,Low,right,60.0,0.945030834487607,1.0,29.0,Low,5.0
280,Low,right,60.0,3.0013189941301865,0.0,30.0,Low,5.0
281,Low,right,60.0,3.1967503786450973,1.0,31.0,Low,5.0
282,Low,right,60.0,2.1246222568630557,1.0,32.0,Low,5.0
283,Low,right,60.0,2.659139061161073,1.0,33.0,Low,5.0
284,Low,right,60.0,2.968297992125936,1.0,34.0,Low,5.0
285,Low,left,60.0,0.7839702309928274,1.0,35.0,Low,5.0
286,Low,left,60.0,1.1813679147969152,0.0,36.0,Low,5.0
287,Low,left,60.0,3.2145650545552136,1.0,37.0,Low,5.0
288,Low,right,60.0,7.135710671625379,1.0,38.0,Low,5.0
289,Low,left,60.0,0.5200117876227149,1.0,39.0,Low,5.0
290,Low,left,60.0,4.752896300091411,1.0,40.0,Low,5.0
291,Low,left,60.0,1.919244368060901,1.0,41.0,Low,5.0
292,Low,right,60.0,2.502560457750227,1.0,42.0,Low,5.0
293,Low,left,60.0,0.15584418487815355,0.0,43.0,Low,5.0
294,Low,right,60.0,-0.595880790153722,1.0,44.0,Low,5.0
295,Low,right,60.0,2.1588545463423863,1.0,45.0,Low,5.0
296,Low,right,60.0,1.8669098355636224,0.0,46.0,Low,5.0
297,Low,left,60.0,2.7238626991873556,1.0,47.0,Low,5.0
298,Low,left,60.0,3.6887059899285806,0.0,48.0,Low,5.0
299,Low,left,60.0,4.073412666793654,0.0,49.0,Low,5.0
300,High,right,60.0,4.672695041927666,0.0,0.0,Low,6.0
301,High,right,60.0,2.747648551230516,1.0,1.0,Low,6.0
302,High,right,60.0,2.1139834249188403,0.0,2.0,Low,6.0
303,High,left,60.0,2.1152020659267956,0.0,3.0,Low,6.0
304,High,right,60.0,5.005400101399938,1.0,4.0,Low,6.0
305,High,right,60.0,2.760722809059294,0.0,5.0,Low,6.0
306,High,left,60.0,0.9757343777031886,0.0,6.0,Low,6.0
307,High,right,60.0,2.7701343073234646,1.0,7.0,Low,6.0
308,High,right,60.0,0.6448734355818673,0.0,8.0,Low,6.0
309,High,left,60.0,3.4511237030578226,0.0,9.0,Low,6.0
310,High,left,60.0,1.9341617610351018,0.0,10.0,Low,6.0
311,High,left,60.0,2.705156558190663,1.0,11.0,Low,6.0
312,High,right,60.0,2.830049993239312,0.0,12.0,Low,6.0
313,High,left,60.0,2.8273435939783065,0.0,13.0,Low,6.0
314,High,right,60.0,0.6624765692843553,1.0,14.0,Low,6.0
315,High,right,60.0,1.60114648891294,0.0,15.0,Low,6.0
316,High,right,60.0,1.7159894366971533,1.0,16.0,Low,6.0
317,High,right,60.0,3.3681005456246544,0.0,17.0,Low,6.0
318,High,left,60.0,2.6703315221667197,1.0,18.0,Low,6.0
319,High,left,60.0,0.1907287481922033,0.0,19.0,Low,6.0
320,High,right,60.0,2.23704015904465,1.0,20.0,Low,6.0
321,High,right,60.0,1.3852541780859031,0.0,21.0,Low,6.0
322,High,left,60.0,3.0914480335457886,0.0,22.0,Low,6.0
323,High,right,60.0,4.5241535365676615,0.0,23.0,Low,6.0
324,High,left,60.0,1.480911079180928,0.0,24.0,Low,6.0
325,High,left,60.0,3.773120149281239,0.0,25.0,Low,6.0
326,High,right,60.0,3.0271115286361283,1.0,26.0,Low,6.0
327,High,left,60.0,1.5107887078874331,1.0,27.0,Low,6.0
328,High,right,60.0,0.9564649734689418,1.0,28.0,Low,6.0
329,High,left,60.0,6.632211332291458,1.0,29.0,Low,6.0
330,High,left,60.0,2.8246886004225975,1.0,30.0,Low,6.0
331,High,right,60.0,0.9788141409157682,0.0,31.0,Low,6.0
332,High,right,60.0,4.890964666789245,0.0,32.0,Low,6.0
333,High,left,60.0,2.1808649670034868,0.0,33.0,Low,6.0
334,High,left,60.0,1.5899427841506355,1.0,34.0,Low,6.0
335,High,left,60.0,5.048077816961502,1.0,35.0,Low,6.0
336,High,left,60.0,0.23958272092981914,0.0,36.0,Low,6.0
337,High,right,60.0,3.0511502602499876,1.0,37.0,Low,6.0
338,High,right,60.0,4.909588097544679,0.0,38.0,Low,6.0
339,High,left,60.0,1.5490070338335187,0.0,39.0,Low,6.0
340,High,right,60.0,4.857948626165074,1.0,40.0,Low,6.0
341,High,right,60.0,4.941058086944954,0.0,41.0,Low,6.0
342,High,right,60.0,2.064135017142026,0.0,42.0,Low,6.0
343,High,right,60.0,2.2304711334218403,1.0,43.0,Low,6.0
344,High,right,60.0,3.3244697121877316,0.0,44.0,Low,6.0
345,High,left,60.0,1.6784273524645064,0.0,45.0,Low,6.0
346,High,right,60.0,4.032133780821622,1.0,46.0,Low,6.0
347,High,left,60.0,-0.8809308409293946,0.0,47.0,Low,6.0
348,High,right,60.0,2.810215708324618,0.0,48.0,Low,6.0
349,High,left,60.0,-0.33589456188557376,0.0,49.0,Low,6.0
350,Low,left,60.0,3.2303739077034046,1.0,0.0,High,7.0
351,Low,left,60.0,-3.3507605201959745,1.0,1.0,High,7.0
352,Low,left,60.0,3.6659769121547834,1.0,2.0,High,7.0
353,Low,right,60.0,6.578538837909094,1.0,3.0,High,7.0
354,Low,left,60.0,3.8475647540638884,1.0,4.0,High,7.0
355,Low,right,60.0,6.733235065549184,0.0,5.0,High,7.0
356,Low,left,60.0,-0.558658972959551,0.0,6.0,High,7.0
357,Low,right,60.0,0.9749411704175543,1.0,7.0,High,7.0
358,Low,left,60.0,-0.3764528521501176,1.0,8.0,High,7.0
359,Low,right,60.0,-2.964327405409321,0.0,9.0,High,7.0
360,Low,right,60.0,6.675045593129703,0.0,10.0,High,7.0
361,Low,left,60.0,1.1934668158787898,0.0,11.0,High,7.0
362,Low,left,60.0,1.3416236264777979,0.0,12.0,High,7.0
363,Low,left,60.0,2.98896021143208,0.0,13.0,High,7.0
364,Low,right,60.0,2.057680131117994,0.0,14.0,High,7.0
365,Low,right,60.0,1.6654488942321946,1.0,15.0,High,7.0
366,Low,left,60.0,6.557082520042536,1.0,16.0,High,7.0
367,Low,left,60.0,3.703793973139887,0.0,17.0,High,7.0
368,Low,right,60.0,0.7570039860823796,1.0,18.0,High,7.0
369,Low,left,60.0,0.39936976891599985,0.0,19.0,High,7.0
370,Low,right,60.0,-0.016436968621887482,0.0,20.0,High,7.0
371,Low,right,60.0,0.5912687095637335,0.0,21.0,High,7.0
372,Low,right,60.0,2.5856281536455104,0.0,22.0,High,7.0
373,Low,right,60.0,4.85609844442445,0.0,23.0,High,7.0
374,Low,left,60.0,3.114226824079216,1.0,24.0,High,7.0
375,Low,left,60.0,1.49695897537474,0.0,25.0,High,7.0
376,Low,left,60.0,4.404578070137271,0.0,26.0,High,7.0
377,Low,left,60.0,2.10807859034695,1.0,27.0,High,7.0
378,Low,left,60.0,5.271674337530198,0.0,28.0,High,7.0
379,Low,left,60.0,-0.12977828059944163,1.0,29.0,High,7.0
380,Low,right,60.0,0.7688130762720873,0.0,30.0,High,7.0
381,Low,left,60.0,2.840878149902969,0.0,31.0,High,7.0
382,Low,right,60.0,2.617835942603674,0.0,32.0,High,7.0
383,Low,left,60.0,-0.772926230223455,1.0,33.0,High,7.0
384,Low,left,60.0,2.060184378456971,0.0,34.0,High,7.0
385,Low,right,60.0,6.69475813876744,1.0,35.0,High,7.0
386,Low,right,60.0,6.3675548991755875,0.0,36.0,High,7.0
387,Low,right,60.0,3.752055786035303,0.0,37.0,High,7.0
388,Low,right,60.0,3.6338233409296596,1.0,38.0,High,7.0
389,Low,right,60.0,3.3114978443663508,0.0,39.0,High,7.0
390,Low,right,60.0,-2.48760901102816,0.0,40.0,High,7.0
391,Low,left,60.0,1.8048580543143258,1.0,41.0,High,7.0
392,Low,right,60.0,1.6853011003559841,0.0,42.0,High,7.0
393,Low,left,60.0,0.9944274538758656,1.0,43.0,High,7.0
394,Low,right,60.0,2.2057715150299266,1.0,44.0,High,7.0
395,Low,right,60.0,3.732354599289973,1.0,45.0,High,7.0
396,Low,left,60.0,3.7246252767921373,1.0,46.0,High,7.0
397,Low,right,60.0,-2.2803825557526007,0.0,47.0,High,7.0
398,Low,left,60.0,5.184484188013796,0.0,48.0,High,7.0
399,Low,left,60.0,3.8368295667501275,1.0,49.0,High,7.0
400,High,right,90.0,0.013455880302255085,1.0,0.0,Low,8.0
401,High,left,90.0,3.129861604851137,0.0,1.0,Low,8.0
402,High,left,90.0,2.7423633558538456,1.0,2.0,Low,8.0
403,High,left,90.0,0.34219722238893824,0.0,3.0,Low,8.0
404,High,right,90.0,0.24575613531620988,0.0,4.0,Low,8.0
405,High,right,90.0,7.083769968232258,0.0,5.0,Low,8.0
406,High,left,90.0,-0.27921498225892627,0.0,6.0,Low,8.0
407,High,right,90.0,3.758712467159363,0.0,7.0,Low,8.0
408,High,right,90.0,3.1396257131574994,1.0,8.0,Low,8.0
409,High,right,90.0,-4.1805127502626425,0.0,9.0,Low,8.0
410,High,right,90.0,6.394917384640217,1.0,10.0,Low,8.0
411,High,left,90.0,7.336159381203678,1.0,11.0,Low,8.0
412,High,right,90.0,2.289835283612445,0.0,12.0,Low,8.0
413,High,right,90.0,0.6058006206360997,1.0,13.0,Low,8.0
414,High,right,90.0,1.5905625675571478,1.0,14.0,Low,8.0
415,High,left,90.0,1.875044136674488,0.0,15.0,Low,8.0
416,High,right,90.0,-0.33747958655731836,0.0,16.0,Low,8.0
417,High,left,90.0,2.045935418882928,1.0,17.0,Low,8.0
418,High,left,90.0,3.6781251903513343,1.0,18.0,Low,8.0
419,High,left,90.0,0.21815035598589283,0.0,19.0,Low,8.0
420,High,right,90.0,4.243787278278375,1.0,20.0,Low,8.0
421,High,right,90.0,-0.40582211629722087,1.0,21.0,Low,8.0
422,High,left,90.0,-0.15695485335602077,0.0,22.0,Low,8.0
423,High,right,90.0,-0.024201517266938533,0.0,23.0,Low,8.0
424,High,right,90.0,0.9522061182893006,1.0,24.0,Low,8.0
425,High,right,90.0,0.4248638489299914,1.0,25.0,Low,8.0
426,High,left,90.0,1.5620188890076618,0.0,26.0,Low,8.0
427,High,right,90.0,5.647133886734833,0.0,27.0,Low,8.0
428,High,left,90.0,0.40524792600476844,0.0,28.0,Low,8.0
429,High,right,90.0,2.4908343956801917,0.0,29.0,Low,8.0
430,High,right,90.0,2.0775586371649544,0.0,30.0,Low,8.0
431,High,right,90.0,-2.3484414667444247,0.0,31.0,Low,8.0
432,High,right,90.0,5.07589799050441,1.0,32.0,Low,8.0
433,High,left,90.0,2.822498049759733,1.0,33.0,Low,8.0
434,High,left,90.0,2.1547237221478586,1.0,34.0,Low,8.0
435,High,right,90.0,0.11426354226547009,1.0,35.0,Low,8.0
436,High,left,90.0,3.717691457669507,1.0,36.0,Low,8.0
437,High,right,90.0,1.5563919829510389,0.0,37.0,Low,8.0
438,High,right,90.0,1.0165097268416945,0.0,38.0,Low,8.0
439,High,right,90.0,4.3079555885371885,1.0,39.0,Low,8.0
440,High,left,90.0,3.5795982425926427,0.0,40.0,Low,8.0
441,High,left,90.0,0.7018876402576515,1.0,41.0,Low,8.0
442,High,left,90.0,2.6699134703873555,1.0,42.0,Low,8.0
443,High,left,90.0,0.1972340045107528,1.0,43.0,Low,8.0
444,High,left,90.0,1.2793652142184109,0.0,44.0,Low,8.0
445,High,right,90.0,2.899940373764032,0.0,45.0,Low,8.0
446,High,left,90.0,3.1634137076608706,0.0,46.0,Low,8.0
447,High,left,90.0,3.2796117657209765,0.0,47.0,Low,8.0
448,High,right,90.0,2.921562476742128,0.0,48.0,Low,8.0
449,High,left,90.0,3.767058896132668,0.0,49.0,Low,8.0
450,Low,left,90.0,1.8153689706141956,0.0,0.0,High,9.0
451,Low,left,90.0,-1.182567365994902,1.0,1.0,High,9.0
452,Low,left,90.0,3.0748172412274246,1.0,2.0,High,9.0
453,Low,left,90.0,3.073526720879354,1.0,3.0,High,9.0
454,Low,right,90.0,0.26258083595335635,1.0,4.0,High,9.0
455,Low,right,90.0,-0.3784566376573766,0.0,5.0,High,9.0
456,Low,right,90.0,-0.09359717517989163,1.0,6.0,High,9.0
457,Low,right,90.0,1.8801778455321276,1.0,7.0,High,9.0
458,Low,left,90.0,1.4253370025937564,0.0,8.0,High,9.0
459,Low,left,90.0,1.8715209931686105,1.0,9.0,High,9.0
460,Low,left,90.0,3.375306642124029,0.0,10.0,High,9.0
461,Low,right,90.0,0.623952032657966,0.0,11.0,High,9.0
462,Low,left,90.0,2.2707976353501915,1.0,12.0,High,9.0
463,Low,right,90.0,-0.5931829252982619,0.0,13.0,High,9.0
464,Low,left,90.0,1.8948975339345422,0.0,14.0,High,9.0
465,Low,right,90.0,0.8171149355911671,0.0,15.0,High,9.0
466,Low,right,90.0,2.0801858457127738,1.0,16.0,High,9.0
467,Low,left,90.0,1.9960295457261745,0.0,17.0,High,9.0
468,Low,right,90.0,-0.6271756991878767,1.0,18.0,High,9.0
469,Low,right,90.0,4.589610257168124,1.0,19.0,High,9.0
470,Low,right,90.0,2.1428150569505258,1.0,20.0,High,9.0
471,Low,right,90.0,-0.1684291734862582,1.0,21.0,High,9.0
472,Low,right,90.0,0.353494952431642,0.0,22.0,High,9.0
473,Low,left,90.0,1.3604272260989458,1.0,23.0,High,9.0
474,Low,left,90.0,0.7071294712284459,1.0,24.0,High,9.0
475,Low,left,90.0,-0.7592036898967649,1.0,25.0,High,9.0
476,Low,right,90.0,4.075902757357352,0.0,26.0,High,9.0
477,Low,right,90.0,4.089008318781493,1.0,27.0,High,9.0
478,Low,right,90.0,-2.9836837395004308,0.0,28.0,High,9.0
479,Low,right,90.0,-1.693636988297171,0.0,29.0,High,9.0
480,Low,left,90.0,-0.05798903361120722,0.0,30.0,High,9.0
481,Low,left,90.0,2.571646412913087,0.0,31.0,High,9.0
482,Low,right,90.0,0.28379991256766335,0.0,32.0,High,9.0
483,Low,right,90.0,1.242310696896706,0.0,33.0,High,9.0
484,Low,left,90.0,0.5962477700283797,1.0,34.0,High,9.0
485,Low,right,90.0,3.546540897129904,1.0,35.0,High,9.0
486,Low,right,90.0,-1.0839710932611855,1.0,36.0,High,9.0
487,Low,right,90.0,1.9453552524541664,0.0,37.0,High,9.0
488,Low,right,90.0,3.9962171480994297,0.0,38.0,High,9.0
489,Low,left,90.0,1.4605211109621874,1.0,39.0,High,9.0
490,Low,left,90.0,1.3569490675170706,1.0,40.0,High,9.0
491,Low,left,90.0,2.3150503275088905,1.0,41.0,High,9.0
492,Low,left,90.0,1.5825030475529158,1.0,42.0,High,9.0
493,Low,right,90.0,-2.3930304756866048,1.0,43.0,High,9.0
494,Low,right,90.0,4.953714312814375,1.0,44.0,High,9.0
495,Low,right,90.0,4.289434024670309,0.0,45.0,High,9.0
496,Low,left,90.0,2.8843661806107117,1.0,46.0,High,9.0
497,Low,right,90.0,-3.422770448887585,1.0,47.0,High,9.0
498,Low,left,90.0,5.502691892569553,1.0,48.0,High,9.0
499,Low,left,90.0,3.9322943192314277,0.0,49.0,High,9.0
500,High,left,90.0,2.264392229255865,0.0,0.0,High,10.0
501,High,right,90.0,0.9651198436351263,0.0,1.0,High,10.0
502,High,left,90.0,0.12401284373892052,0.0,2.0,High,10.0
503,High,left,90.0,0.7777416344814845,1.0,3.0,High,10.0
504,High,left,90.0,5.608993491673409,0.0,4.0,High,10.0
505,High,right,90.0,1.8040777517110036,1.0,5.0,High,10.0
506,High,right,90.0,3.100341019257103,1.0,6.0,High,10.0
507,High,left,90.0,1.2296510752819094,1.0,7.0,High,10.0
508,High,right,90.0,0.16365200129466984,1.0,8.0,High,10.0
509,High,right,90.0,-2.281106074984595,1.0,9.0,High,10.0
510,High,left,90.0,1.9621632317422544,1.0,10.0,High,10.0
511,High,right,90.0,4.140382294289137,1.0,11.0,High,10.0
512,High,left,90.0,0.5976132450304104,1.0,12.0,High,10.0
513,High,right,90.0,4.226300144874612,1.0,13.0,High,10.0
514,High,left,90.0,1.4382832033344382,0.0,14.0,High,10.0
515,High,left,90.0,-0.1124624019514191,1.0,15.0,High,10.0
516,High,right,90.0,1.870829035254326,1.0,16.0,High,10.0
517,High,left,90.0,1.398543686939493,1.0,17.0,High,10.0
518,High,left,90.0,4.0590221775382815,1.0,18.0,High,10.0
519,High,right,90.0,3.5873808511186223,0.0,19.0,High,10.0
520,High,right,90.0,5.123910462253432,0.0,20.0,High,10.0
521,High,right,90.0,1.2592076282156084,1.0,21.0,High,10.0
522,High,left,90.0,7.125348366447095,1.0,22.0,High,10.0
523,High,left,90.0,4.154553738407943,1.0,23.0,High,10.0
524,High,left,90.0,1.775135785565494,0.0,24.0,High,10.0
525,High,right,90.0,1.8413913220074407,0.0,25.0,High,10.0
526,High,right,90.0,3.6167605581070648,1.0,26.0,High,10.0
527,High,right,90.0,3.718102053647935,1.0,27.0,High,10.0
528,High,left,90.0,2.3350313860302094,0.0,28.0,High,10.0
529,High,left,90.0,-3.122458916254563,0.0,29.0,High,10.0
530,High,right,90.0,2.43728936506076,1.0,30.0,High,10.0
531,High,right,90.0,1.2508050395614039,0.0,31.0,High,10.0
532,High,left,90.0,3.5421464087306997,0.0,32.0,High,10.0
533,High,left,90.0,2.477635825124322,1.0,33.0,High,10.0
534,High,right,90.0,-0.9616143113270659,0.0,34.0,High,10.0
535,High,right,90.0,0.11576800842577972,1.0,35.0,High,10.0
536,High,right,90.0,0.7488564231727137,0.0,36.0,High,10.0
537,High,right,90.0,1.2458483553489972,0.0,37.0,High,10.0
538,High,left,90.0,1.1646297842045295,1.0,38.0,High,10.0
539,High,right,90.0,1.7141933647059011,1.0,39.0,High,10.0
540,High,left,90.0,2.6468889252832266,0.0,40.0,High,10.0
541,High,left,90.0,0.9156926278332169,0.0,41.0,High,10.0
542,High,left,90.0,1.7969158494726654,0.0,42.0,High,10.0
543,High,left,90.0,0.5823511650558628,0.0,43.0,High,10.0
544,High,left,90.0,5.908772741130715,1.0,44.0,High,10.0
545,High,left,90.0,3.1213551971981843,1.0,45.0,High,10.0
546,High,right,90.0,1.7072009068220488,0.0,46.0,High,10.0
547,High,right,90.0,0.9059557328413688,1.0,47.0,High,10.0
548,High,left,90.0,1.157289664280728,0.0,48.0,High,10.0
549,High,left,90.0,3.2731350019327348,1.0,49.0,High,10.0
550,Low,left,90.0,3.260310200143529,0.0,0.0,Low,11.0
551,Low,left,90.0,2.980944335856858,1.0,1.0,Low,11.0
552,Low,left,90.0,1.8861470327158698,0.0,2.0,Low,11.0
553,Low,right,90.0,-0.8276271185686783,1.0,3.0,Low,11.0
554,Low,left,90.0,4.143379200665191,0.0,4.0,Low,11.0
555,Low,right,90.0,2.4185529339265197,1.0,5.0,Low,11.0
556,Low,left,90.0,1.5441294070558023,1.0,6.0,Low,11.0
557,Low,left,90.0,2.601878018390946,0.0,7.0,Low,11.0
558,Low,left,90.0,2.3149065086130918,1.0,8.0,Low,11.0
559,Low,left,90.0,3.1763731888915636,0.0,9.0,Low,11.0
560,Low,right,90.0,0.09781935306642531,0.0,10.0,Low,11.0
561,Low,right,90.0,6.632986683797087,0.0,11.0,Low,11.0
562,Low,left,90.0,1.9274464284133033,1.0,12.0,Low,11.0
563,Low,left,90.0,1.4187432947648253,1.0,13.0,Low,11.0
564,Low,right,90.0,0.8288630378507765,1.0,14.0,Low,11.0
565,Low,right,90.0,1.0929365560310265,0.0,15.0,Low,11.0
566,Low,left,90.0,5.208304158843935,1.0,16.0,Low,11.0
567,Low,left,90.0,0.2682266087513563,0.0,17.0,Low,11.0
568,Low,left,90.0,2.1575060387451495,0.0,18.0,Low,11.0
569,Low,left,90.0,3.6899913880130226,1.0,19.0,Low,11.0
570,Low,left,90.0,3.2057132010529252,0.0,20.0,Low,11.0
571,Low,right,90.0,4.487503347053403,0.0,21.0,Low,11.0
572,Low,right,90.0,0.02795093830532358,1.0,22.0,Low,11.0
573,Low,right,90.0,2.0122830869098984,1.0,23.0,Low,11.0
574,Low,left,90.0,5.223035151117486,1.0,24.0,Low,11.0
575,Low,left,90.0,1.798206086703578,1.0,25.0,Low,11.0
576,Low,left,90.0,0.13835815973137056,1.0,26.0,Low,11.0
577,Low,left,90.0,1.8894380954021224,0.0,27.0,Low,11.0
578,Low,left,90.0,3.9626950425025322,0.0,28.0,Low,11.0
579,Low,left,90.0,-0.07835266292849674,1.0,29.0,Low,11.0
580,Low,left,90.0,-0.14250061665058666,0.0,30.0,Low,11.0
581,Low,right,90.0,2.586198479260776,1.0,31.0,Low,11.0
582,Low,left,90.0,5.588492430471244,1.0,32.0,Low,11.0
583,Low,right,90.0,0.4348252466041014,1.0,33.0,Low,11.0
584,Low,right,90.0,2.436201914870057,0.0,34.0,Low,11.0
585,Low,left,90.0,2.241173849992779,0.0,35.0,Low,11.0
586,Low,right,90.0,0.12708895824358235,0.0,36.0,Low,11.0
587,Low,right,90.0,5.040180396585416,1.0,37.0,Low,11.0
588,Low,right,90.0,2.216857042568516,1.0,38.0,Low,11.0
589,Low,right,90.0,0.9467555273354737,1.0,39.0,Low,11.0
590,Low,left,90.0,6.179946566597758,0.0,40.0,Low,11.0
591,Low,left,90.0,0.05453455505939209,1.0,41.0,Low,11.0
592,Low,right,90.0,1.557113385293024,0.0,42.0,Low,11.0
593,Low,left,90.0,0.4045256793951819,1.0,43.0,Low,11.0
594,Low,left,90.0,0.8802392814997406,1.0,44.0,Low,11.0
595,Low,right,90.0,-0.6561313996144302,1.0,45.0,Low,11.0
596,Low,left,90.0,2.6972405049900607,1.0,46.0,Low,11.0
597,Low,right,90.0,3.7336089833135087,1.0,47.0,Low,11.0
598,Low,left,90.0,0.3437087990825911,1.0,48.0,Low,11.0
599,Low,right,90.0,5.381162160995718,0.0,49.0,Low,11.0
