,Arousal,KeyPressed,LearningTime,RT,Response,TrialNumber,Valence,nBlock
0,High,left,30.0,3.429435202400432,1.0,0.0,Low,0.0
1,High,left,30.0,6.47625748286217,0.0,1.0,Low,0.0
2,High,right,30.0,-1.0612462835778778,1.0,2.0,Low,0.0
3,High,right,30.0,-0.39784334135846455,1.0,3.0,Low,0.0
4,High,right,30.0,0.5059232138060401,0.0,4.0,Low,0.0
5,High,right,30.0,5.227619925906702,0.0,5.0,Low,0.0
6,High,left,30.0,3.8423876274682955,0.0,6.0,Low,0.0
7,High,left,30.0,1.2213184545162612,1.0,7.0,Low,0.0
8,High,left,30.0,3.0537883876264402,1.0,8.0,Low,0.0
9,High,right,30.0,3.2559211450188164,1.0,9.0,Low,0.0
10,High,right,30.0,1.4903030164911635,0.0,10.0,Low,0.0
11,High,left,30.0,-0.2469399428592336,1.0,11.0,Low,0.0
12,High,left,30.0,4.876648909879761,1.0,12.0,Low,0.0
13,High,right,30.0,2.01159682437461,1.0,13.0,Low,0.0
14,High,left,30.0,2.3160316826276097,0.0,14.0,Low,0.0
15,High,left,30.0,0.8986399559958473,1.0,15.0,Low,0.0
16,High,right,30.0,0.46697505137147255,0.0,16.0,Low,0.0
17,High,right,30.0,0.13540512215445188,0.0,17.0,Low,0.0
18,High,left,30.0,-0.8723184976326803,1.0,18.0,Low,0.0
19,High,right,30.0,2.714376769666463,0.0,19.0,Low,0.0
20,High,right,30.0,1.961569190913663,0.0,20.0,Low,0.0
21,High,right,30.0,3.3349167908393746,1.0,21.0,Low,0.0
22,High,right,30.0,3.5930842356673063,1.0,22.0,Low,0.0
23,High,left,30.0,-0.5795102818342142,0.0,23.0,Low,0.0
24,High,left,30.0,0.8291292677976652,0.0,24.0,Low,0.0
25,High,left,30.0,1.4264584748327365,1.0,25.0,Low,0.0
26,High,right,30.0,-0.4689312432537873,0.0,26.0,Low,0.0
27,High,left,30.0,1.2635451945073484,0.0,27.0,Low,0.0
28,High,left,30.0,-0.593112002432854,1.0,28.0,Low,0.0
29,High,right,30.0,3.720927826545689,1.0,29.0,Low,0.0
30,High,left,30.0,5.200324058030292,1.0,30.0,Low,0.0
31,High,left,30.0,1.4267952516946123,0.0,31.0,Low,0.0
32,High,right,30.0,3.383568891635412,0.0,32.0,Low,0.0
33,High,left,30.0,2.2546493750096803,1.0,33.0,Low,0.0
34,High,left,30.0,2.6863532337367597,1.0,34.0,Low,0.0
35,High,right,30.0,7.89769071698122,1.0,35.0,Low,0.0
36,High,right,30.0,4.153060708403342,0.0,36.0,Low,0.0
37,High,left,30.0,1.5158756155847928,0.0,37.0,Low,0.0
38,High,left,30.0,-0.23695158391072058,0.0,38.0,Low,0.0
39,High,right,30.0,0.04661029238069658,0.0,39.0,Low,0.0
40,High,left,30.0,2.594993478316111,1.0,40.0,Low,0.0
41,High,right,30.0,2.5630870815863096,0.0,41.0,Low,0.0
42,High,right,30.0,0.985945079708519,0.0,42.0,Low,0.0
43,High,right,30.0,1.3607512405994229,0.0,43.0,Low,0.0
44,High,right,30.0,0.8948262099929992,0.0,44.0,Low,0.0
45,High,right,30.0,0.22827980823288785,1.0,45.0,Low,0.0
46,High,left,30.0,0.8771757525401694,1.0,46.0,Low,0.0
47,High,right,30.0,-2.0260727233603673,0.0,47.0,Low,0.0
48,High,left,30.0,3.4548787635842144,1.0,48.0,Low,0.0
49,High,left,30.0,0.2949468640248538,0.0,49.0,Low,0.0
50,Low,right,30.0,2.4865349164254544,0.0,0.0,Low,1.0
51,Low,right,30.0,2.7023434762804133,0.0,1.0,Low,1.0
52,Low,right,30.0,1.7252941439597091,1.0,2.0,Low,1.0
53,Low,right,30.0,0.6806620855153205,0.0,3.0,Low,1.0
54,Low,left,30.0,1.5904036179770542,1.0,4.0,Low,1.0
55,Low,right,30.0,-0.8527262002140281,1.0,5.0,Low,1.0
56,Low,right,30.0,3.5939319469392745,1.0,6.0,Low,1.0
57,Low,right,30.0,0.30507178292648274,1.0,7.0,Low,1.0
58,Low,left,30.0,2.3635276694488083,0.0,8.0,Low,1.0
59,Low,right,30.0,-0.3462370629892879,1.0,9.0,Low,1.0
60,Low,right,30.0,0.9908748131475327,1.0,10.0,Low,1.0
61,Low,right,30.0,2.1217069423225077,0.0,11.0,Low,1.0
62,Low,left,30.0,4.155815898818638,1.0,12.0,Low,1.0
63,Low,right,30.0,4.232980510692103,0.0,13.0,Low,1.0
64,Low,left,30.0,2.918656896530226,1.0,14.0,Low,1.0
65,Low,left,30.0,4.789675899652577,1.0,15.0,Low,1.0
66,Low,right,30.0,1.1682842618365226,0.0,16.0,Low,1.0
67,Low,right,30.0,2.392105477738405,0.0,17.0,Low,1.0
68,Low,right,30.0,-0.47750926038758434,1.0,18.0,Low,1.0
69,Low,left,30.0,-0.8498309897046596,1.0,19.0,Low,1.0
70,Low,left,30.0,2.0163478764468,0.0,20.0,Low,1.0
71,Low,left,30.0,4.558935202669069,1.0,21.0,Low,1.0
72,Low,right,30.0,2.9773653355175154,1.0,22.0,Low,1.0
73,Low,right,30.0,2.4296571343461,1.0,23.0,Low,1.0
74,Low,left,30.0,2.9876413582148578,1.0,24.0,Low,1.0
75,Low,left,30.0,-0.8932851741082968,1.0,25.0,Low,1.0
76,Low,left,30.0,5.020857752708929,1.0,26.0,Low,1.0
77,Low,right,30.0,1.3254586214596573,1.0,27.0,Low,1.0
78,Low,left,30.0,-1.0997166277575388,0.0,28.0,Low,1.0
79,Low,right,30.0,2.3377084148496805,0.0,29.0,Low,1.0
80,Low,left,30.0,0.7839917724892298,1.0,30.0,Low,1.0
81,Low,right,30.0,1.0302398264887842,1.0,31.0,Low,1.0
82,Low,left,30.0,1.2689404632776773,1.0,32.0,Low,1.0
83,Low,left,30.0,3.4835119818519953,0.0,33.0,Low,1.0
84,Low,left,30.0,-3.2477151142820873,0.0,34.0,Low,1.0
85,Low,left,30.0,-0.15974455756577743,1.0,35.0,Low,1.0
86,Low,right,30.0,2.338391333063356,1.0,36.0,Low,1.0
87,Low,right,30.0,1.008033200265018,1.0,37.0,Low,1.0
88,Low,right,30.0,1.964325324341622,1.0,38.0,Low,1.0
89,Low,right,30.0,5.327202429660225,1.0,39.0,Low,1.0
90,Low,left,30.0,-3.4943032043071707,1.0,40.0,Low,1.0
91,Low,left,30.0,-1.0352446647207916,1.0,41.0,Low,1.0
92,Low,left,30.0,-4.151712472182711,1.0,42.0,Low,1.0
93,Low,right,30.0,1.4204280671471037,1.0,43.0,Low,1.0
94,Low,right,30.0,4.445059685265205,0.0,44.0,Low,1.0
95,Low,right,30.0,6.710213431299283,1.0,45.0,Low,1.0
96,Low,left,30.0,2.2855828210943576,1.0,46.0,Low,1.0
97,Low,right,30.0,-0.6080811281386054,0.0,47.0,Low,1.0
98,Low,left,30.0,-0.03661602406219844,1.0,48.0,Low,1.0
99,Low,left,30.0,1.7507366109479228,1.0,49.0,Low,1.0
100,High,left,30.0,3.821783961898168,1.0,0.0,High,2.0
101,High,right,30.0,3.74611570428882,1.0,1.0,High,2.0
102,High,right,30.0,2.179232651178915,1.0,2.0,High,2.0
103,High,right,30.0,0.3338927326499789,1.0,3.0,High,2.0
104,High,right,30.0,3.7707819596728402,0.0,4.0,High,2.0
105,High,left,30.0,1.1371188587262713,1.0,5.0,High,2.0
106,High,left,30.0,3.4028467732792453,0.0,6.0,High,2.0
107,High,right,30.0,0.39129535203137644,0.0,7.0,High,2.0
108,High,right,30.0,4.028301650554559,0.0,8.0,High,2.0
109,High,left,30.0,4.776270513096899,1.0,9.0,High,2.0
110,High,right,30.0,1.6139983488899157,1.0,10.0,High,2.0
111,High,left,30.0,-0.9349436891969218,1.0,11.0,High,2.0
112,High,right,30.0,1.5667741971921725,0.0,12.0,High,2.0
113,High,left,30.0,-0.4565091652540507,1.0,13.0,High,2.0
114,High,left,30.0,2.0570464734432257,1.0,14.0,High,2.0
115,High,right,30.0,1.8321173891431268,0.0,15.0,High,2.0
116,High,left,30.0,1.9077630152979352,1.0,16.0,High,2.0
117,High,left,30.0,0.3181650083685513,1.0,17.0,High,2.0
118,High,left,30.0,1.5920308268297503,0.0,18.0,High,2.0
119,High,right,30.0,4.391169516753635,1.0,19.0,High,2.0
120,High,right,30.0,3.006810382339184,0.0,20.0,High,2.0
121,High,right,30.0,2.6095159308454967,0.0,21.0,High,2.0
122,High,right,30.0,2.769283189388423,1.0,22.0,High,2.0
123,High,left,30.0,-1.8054041560435907,0.0,23.0,High,2.0
124,High,left,30.0,4.969697065920505,0.0,24.0,High,2.0
125,High,left,30.0,-1.1424266431440913,1.0,25.0,High,2.0
126,High,left,30.0,2.326906878537126,1.0,26.0,High,2.0
127,High,left,30.0,3.891604448509777,1.0,27.0,High,2.0
128,High,left,30.0,2.5568341041652554,0.0,28.0,High,2.0
129,High,right,30.0,1.1998318098862062,1.0,29.0,High,2.0
130,High,left,30.0,1.9335891076597218,0.0,30.0,High,2.0
131,High,right,30.0,1.5883393983611014,0.0,31.0,High,2.0
132,High,left,30.0,2.6458696126294354,0.0,32.0,High,2.0
133,High,right,30.0,1.9490511556065768,1.0,33.0,High,2.0
134,High,right,30.0,1.2488543134454217,0.0,34.0,High,2.0
135,High,left,30.0,-0.035509691358704076,1.0,35.0,High,2.0
136,High,right,30.0,4.224624365380708,1.0,36.0,High,2.0
137,High,right,30.0,4.876881413216594,1.0,37.0,High,2.0
138,High,right,30.0,4.506091408942705,0.0,38.0,High,2.0
139,High,right,30.0,3.062607847425773,1.0,39.0,High,2.0
140,High,right,30.0,2.364930829564994,0.0,40.0,High,2.0
141,High,right,30.0,2.508647827428747,0.0,41.0,High,2.0
142,High,right,30.0,4.118991262245862,0.0,42.0,High,2.0
143,High,left,30.0,4.781392867506409,1.0,43.0,High,2.0
144,High,right,30.0,3.0340692015484545,0.0,44.0,High,2.0
145,High,right,30.0,4.445773455572636,0.0,45.0,High,2.0
146,High,right,30.0,0.40379005372432586,0.0,46.0,High,2.0
147,High,right,30.0,5.438088102571041,0.0,47.0,High,2.0
148,High,left,30.0,1.7197677431639122,0.0,48.0,High,2.0
149,High,right,30.0,3.008189135691836,1.0,49.0,High,2.0
150,Low,left,30.0,2.3179611755975613,1.0,0.0,High,3.0
151,Low,left,30.0,4.723869375047768,0.0,1.0,High,3.0
152,Low,left,30.0,5.0895398338021565,1.0,2.0,High,3.0
153,Low,right,30.0,3.593055073554277,1.0,3.0,High,3.0
154,Low,left,30.0,0.6731301206528577,0.0,4.0,High,3.0
155,Low,right,30.0,0.42501711919660967,1.0,5.0,High,3.0
156,Low,right,30.0,4.079249785304471,0.0,6.0,High,3.0
157,Low,right,30.0,-0.915409230175116,1.0,7.0,High,3.0
158,Low,right,30.0,3.857526042483331,1.0,8.0,High,3.0
159,Low,left,30.0,2.3982418067254994,1.0,9.0,High,3.0
160,Low,right,30.0,3.996348092858711,0.0,10.0,High,3.0
161,Low,right,30.0,1.8736048216784775,1.0,11.0,High,3.0
162,Low,right,30.0,5.250948826971812,1.0,12.0,High,3.0
163,Low,left,30.0,-1.0957377903813508,0.0,13.0,High,3.0
164,Low,left,30.0,0.9931967165072491,1.0,14.0,High,3.0
165,Low,right,30.0,3.478013993915485,1.0,15.0,High,3.0
166,Low,right,30.0,4.001491378300406,1.0,16.0,High,3.0
167,Low,right,30.0,3.1867084646910344,0.0,17.0,High,3.0
168,Low,right,30.0,2.237318496076794,0.0,18.0,High,3.0
169,Low,left,30.0,0.7819335061351043,1.0,19.0,High,3.0
170,Low,right,30.0,5.917587293682116,1.0,20.0,High,3.0
171,Low,right,30.0,-0.5335048700578149,1.0,21.0,High,3.0
172,Low,right,30.0,1.6446345548236387,0.0,22.0,High,3.0
173,Low,right,30.0,2.0512272872472535,1.0,23.0,High,3.0
174,Low,right,30.0,1.7700703688458443,0.0,24.0,High,3.0
175,Low,left,30.0,4.378871636748394,0.0,25.0,High,3.0
176,Low,left,30.0,2.0774474583043645,0.0,26.0,High,3.0
177,Low,right,30.0,2.7281888891299237,1.0,27.0,High,3.0
178,Low,right,30.0,4.74537767874339,0.0,28.0,High,3.0
179,Low,left,30.0,0.7546234329565977,0.0,29.0,High,3.0
180,Low,right,30.0,3.4549628234964844,1.0,30.0,High,3.0
181,Low,left,30.0,2.8281769069811187,1.0,31.0,High,3.0
182,Low,right,30.0,0.8755542095549145,1.0,32.0,High,3.0
183,Low,left,30.0,-1.8786892684649272,1.0,33.0,High,3.0
184,Low,left,30.0,1.0916191878761314,1.0,34.0,High,3.0
185,Low,right,30.0,2.4785288014091913,0.0,35.0,High,3.0
186,Low,left,30.0,-1.0388829689716323,1.0,36.0,High,3.0
187,Low,left,30.0,3.0287222407313497,1.0,37.0,High,3.0
188,Low,right,30.0,-0.54634526925713,0.0,38.0,High,3.0
189,Low,right,30.0,0.25412622074795954,1.0,39.0,High,3.0
190,Low,right,30.0,3.049926257994678,0.0,40.0,High,3.0
191,Low,left,30.0,3.1217906837770664,0.0,41.0,High,3.0
192,Low,left,30.0,-1.0663201511529454,1.0,42.0,High,3.0
193,Low,left,30.0,6.585758000939544,0.0,43.0,High,3.0
194,Low,right,30.0,3.120513397932565,1.0,44.0,High,3.0
195,Low,right,30.0,1.3708757567212297,1.0,45.0,High,3.0
196,Low,right,30.0,3.4840497525304226,1.0,46.0,High,3.0
197,Low,left,30.0,1.451797918711382,0.0,47.0,High,3.0
198,Low,right,30.0,0.23189290025411813,0.0,48.0,High,3.0
199,Low,right,30.0,2.8578570086439754,0.0,49.0,High,3.0
200,High,right,60.0,3.4126912123185997,0.0,0.0,High,4.0
201,High,left,60.0,3.215720622761164,1.0,1.0,High,4.0
202,High,right,60.0,3.363098704485349,0.0,2.0,High,4.0
203,High,left,60.0,1.592716629442402,0.0,3.0,High,4.0
204,High,left,60.0,5.080652460071761,0.0,4.0,High,4.0
205,High,right,60.0,0.09868995839216899,0.0,5.0,High,4.0
206,High,right,60.0,4.046065001468042,1.0,6.0,High,4.0
207,High,left,60.0,-3.3429955629112427,1.0,7.0,High,4.0
208,High,right,60.0,1.1438773837716718,0.0,8.0,High,4.0
209,High,left,60.0,2.060772645192207,1.0,9.0,High,4.0
210,High,left,60.0,-1.4074896122334248,1.0,10.0,High,4.0
211,High,right,60.0,3.427323289744429,1.0,11.0,High,4.0
212,High,left,60.0,-0.4915716579343815,0.0,12.0,High,4.0
213,High,left,60.0,4.148188099882398,1.0,13.0,High,4.0
214,High,right,60.0,3.0682712053661056,1.0,14.0,High,4.0
215,High,right,60.0,3.0656460038387485,0.0,15.0,High,4.0
216,High,left,60.0,2.8448963089665886,1.0,16.0,High,4.0
217,High,right,60.0,2.070458443969075,0.0,17.0,High,4.0
218,High,left,60.0,2.4591988707724317,1.0,18.0,High,4.0
219,High,left,60.0,0.5552382471489314,0.0,19.0,High,4.0
220,High,left,60.0,3.8323721205251564,1.0,20.0,High,4.0
221,High,left,60.0,4.9977175207094415,1.0,21.0,High,4.0
222,High,left,60.0,1.8248354099178767,0.0,22.0,High,4.0
223,High,left,60.0,2.455506329783156,1.0,23.0,High,4.0
224,High,left,60.0,3.297386728465437,0.0,24.0,High,4.0
225,High,right,60.0,2.7549347991993223,0.0,25.0,High,4.0
226,High,right,60.0,2.9894632448230922,0.0,26.0,High,4.0
227,High,right,60.0,5.222513097767292,0.0,27.0,High,4.0
228,High,right,60.0,1.6163175474574665,0.0,28.0,High,4.0
229,High,right,60.0,3.0876722708790014,0.0,29.0,High,4.0
230,High,left,60.0,-1.961812634297353,1.0,30.0,High,4.0
231,High,right,60.0,2.3547348749059767,0.0,31.0,High,4.0
232,High,left,60.0,-1.6731863172631933,1.0,32.0,High,4.0
233,High,left,60.0,0.761980866968281,0.0,33.0,High,4.0
234,High,left,60.0,4.292124427469535,0.0,34.0,High,4.0
235,High,right,60.0,4.128122140574919,0.0,35.0,High,4.0
236,High,left,60.0,0.06085798845235191,1.0,36.0,High,4.0
237,High,left,60.0,-0.5414442847063556,1.0,37.0,High,4.0
238,High,right,60.0,-0.2119211996070831,0.0,38.0,High,4.0
239,High,right,60.0,3.189871285266488,0.0,39.0,High,4.0
240,High,right,60.0,1.5896307819501176,1.0,40.0,High,4.0
241,High,left,60.0,-0.5164151289291032,0.0,41.0,High,4.0
242,High,left,60.0,2.2640752394333634,0.0,42.0,High,4.0
243,High,left,60.0,1.1604893757394503,0.0,43.0,High,4.0
244,High,left,60.0,1.6763521651591669,0.0,44.0,High,4.0
245,High,right,60.0,0.30868283080105363,1.0,45.0,High,4.0
246,High,right,60.0,2.7965992689617303,1.0,46.0,High,4.0
247,High,right,60.0,5.362001087679635,1.0,47.0,High,4.0
248,High,right,60.0,5.180394789397742,0.0,48.0,High,4.0
249,High,left,60.0,-0.35350147469797033,1.0,49.0,High,4.0
250,Low,left,60.0,1.355733403613811,1.0,0.0,High,5.0
251,Low,left,60.0,0.9936721395839144,0.0,1.0,High,5.0
252,Low,left,60.0,-0.2770075072031517,0.0,2.0,High,5.0
253,Low,right,60.0,1.301420549628843,1.0,3.0,High,5.0
254,Low,right,60.0,-0.06116029592372163,0.0,4.0,High,5.0
255,Low,right,60.0,-1.241836017448737,1.0,5.0,High,5.0
256,Low,left,60.0,3.8796317183871203,1.0,6.0,High,5.0
257,Low,right,60.0,7.1951552164361345,1.0,7.0,High,5.0
258,Low,left,60.0,-1.0561055084257367,1.0,8.0,High,5.0
259,Low,left,60.0,1.3963362162611803,0.0,9.0,High,5.0
260,Low,left,60.0,4.225381266633856,1.0,10.0,High,5.0
261,Low,left,60.0,-2.2650873606936957,1.0,11.0,High,5.0
262,Low,right,60.0,0.9429255789741551,1.0,12.0,High,5.0
263,Low,right,60.0,-0.22308649878861808,1.0,13.0,High,5.0
264,Low,left,60.0,2.6720984146457365,1.0,14.0,High,5.0
265,Low,left,60.0,2.0068801839134114,0.0,15.0,High,5.0
266,Low,left,60.0,2.238092176059249,0.0,16.0,High,5.0
267,Low,right,60.0,2.4335971167514368,0.0,17.0,High,5.0
268,Low,right,60.0,0.19510834760876916,1.0,18.0,High,5.0
269,Low,right,60.0,1.5228324526160553,0.0,19.0,High,5.0
270,Low,right,60.0,-0.13421446349123434,0.0,20.0,High,5.0
271,Low,left,60.0,-1.2295110415005654,0.0,21.0,High,5.0
272,Low,right,60.0,4.206345189450717,0.0,22.0,High,5.0
273,Low,left,60.0,2.3349854160486494,1.0,23.0,High,5.0
274,Low,right,60.0,3.2801646016023644,0.0,24.0,High,5.0
275,Low,left,60.0,-1.4661225843769476,0.0,25.0,High,5.0
276,Low,right,60.0,2.959421749586876,0.0,26.0,High,5.0
277,Low,right,60.0,2.237486087328046,1.0,27.0,High,5.0
278,Low,left,60.0,2.4503326686996663,0.0,28.0,High,5.0
279,Low,left,60.0,0.4971298758129603,1.0,29.0,High,5.0
280,Low,left,60.0,4.194671049178263,1.0,30.0,High,5.0
281,Low,right,60.0,1.0996465220912517,0.0,31.0,High,5.0
282,Low,left,60.0,0.7021332033405554,1.0,32.0,High,5.0
283,Low,left,60.0,3.324056102866436,1.0,33.0,High,5.0
284,Low,right,60.0,2.9682413047619955,1.0,34.0,High,5.0
285,Low,right,60.0,2.0308489530286358,0.0,35.0,High,5.0
286,Low,left,60.0,-0.44500894699360627,1.0,36.0,High,5.0
287,Low,left,60.0,-1.3024832872250218,1.0,37.0,High,5.0
288,Low,right,60.0,-0.6188018744614006,1.0,38.0,High,5.0
289,Low,right,60.0,-1.8822393180877919,1.0,39.0,High,5.0
290,Low,right,60.0,3.865426838811323,0.0,40.0,High,5.0
291,Low,left,60.0,1.9388509501531024,1.0,41.0,High,5.0
292,Low,right,60.0,4.335182682801047,1.0,42.0,High,5.0
293,Low,right,60.0,5.424210837810943,0.0,43.0,High,5.0
294,Low,right,60.0,2.642094544991301,0.0,44.0,High,5.0
295,Low,right,60.0,-0.49624553656313486,1.0,45.0,High,5.0
296,Low,left,60.0,1.2233966858674856,1.0,46.0,High,5.0
297,Low,left,60.0,2.5734000334198055,1.0,47.0,High,5.0
298,Low,left,60.0,1.1619469126217015,0.0,48.0,High,5.0
299,Low,right,60.0,3.5777808199633734,0.0,49.0,High,5.0
300,High,right,90.0,1.5070383143728892,1.0,0.0,High,6.0
301,High,left,90.0,1.1648997685005027,1.0,1.0,High,6.0
302,High,left,90.0,-1.9948434294558421,0.0,2.0,High,6.0
303,High,right,90.0,4.829777266989659,1.0,3.0,High,6.0
304,High,left,90.0,0.8319372694606458,1.0,4.0,High,6.0
305,High,left,90.0,2.352314254768536,1.0,5.0,High,6.0
306,High,left,90.0,3.775865998433793,0.0,6.0,High,6.0
307,High,right,90.0,3.5803939538410408,1.0,7.0,High,6.0
308,High,right,90.0,2.7922848445920114,0.0,8.0,High,6.0
309,High,left,90.0,1.5189914296368523,1.0,9.0,High,6.0
310,High,left,90.0,1.9730430122610019,0.0,10.0,High,6.0
311,High,left,90.0,6.6260389755614195,1.0,11.0,High,6.0
312,High,right,90.0,4.730963227391289,1.0,12.0,High,6.0
313,High,left,90.0,-1.1930471891458694,1.0,13.0,High,6.0
314,High,right,90.0,1.903307559838624,0.0,14.0,High,6.0
315,High,left,90.0,4.774311348585765,0.0,15.0,High,6.0
316,High,left,90.0,7.3204167588733515,0.0,16.0,High,6.0
317,High,right,90.0,2.231655165866969,1.0,17.0,High,6.0
318,High,right,90.0,-1.3116096009317686,0.0,18.0,High,6.0
319,High,right,90.0,4.287274269894008,1.0,19.0,High,6.0
320,High,left,90.0,-1.6447948422986975,0.0,20.0,High,6.0
321,High,right,90.0,2.356472376409277,1.0,21.0,High,6.0
322,High,right,90.0,1.9142569913497023,0.0,22.0,High,6.0
323,High,left,90.0,2.845256347812814,1.0,23.0,High,6.0
324,High,left,90.0,3.106237569802727,0.0,24.0,High,6.0
325,High,right,90.0,1.9229046213472814,0.0,25.0,High,6.0
326,High,right,90.0,0.7551312321072254,1.0,26.0,High,6.0
327,High,right,90.0,0.872880701278102,0.0,27.0,High,6.0
328,High,right,90.0,2.879081167588708,0.0,28.0,High,6.0
329,High,right,90.0,2.768143588004584,0.0,29.0,High,6.0
330,High,right,90.0,2.7106567936592807,0.0,30.0,High,6.0
331,High,right,90.0,3.6673751698370385,0.0,31.0,High,6.0
332,High,right,90.0,1.294874625799236,0.0,32.0,High,6.0
333,High,right,90.0,0.7532744157106324,0.0,33.0,High,6.0
334,High,left,90.0,1.44083370681104,0.0,34.0,High,6.0
335,High,left,90.0,2.3165525020826014,0.0,35.0,High,6.0
336,High,left,90.0,0.7990610128431355,0.0,36.0,High,6.0
337,High,right,90.0,1.942348348721079,1.0,37.0,High,6.0
338,High,left,90.0,3.7009685162442487,0.0,38.0,High,6.0
339,High,left,90.0,2.6126020837782855,1.0,39.0,High,6.0
340,High,right,90.0,1.616669727046465,0.0,40.0,High,6.0
341,High,left,90.0,4.17586792665152,0.0,41.0,High,6.0
342,High,left,90.0,3.5964792825836507,0.0,42.0,High,6.0
343,High,right,90.0,-0.028670153173037338,1.0,43.0,High,6.0
344,High,right,90.0,2.5796437529942176,1.0,44.0,High,6.0
345,High,left,90.0,4.7305654873383975,0.0,45.0,High,6.0
346,High,right,90.0,4.694545921868992,1.0,46.0,High,6.0
347,High,right,90.0,6.421448034200306,0.0,47.0,High,6.0
348,High,left,90.0,1.9900173270020347,0.0,48.0,High,6.0
349,High,left,90.0,4.44102294071541,0.0,49.0,High,6.0
350,Low,left,90.0,1.7473516165558485,1.0,0.0,High,7.0
351,Low,left,90.0,1.7878881330259617,0.0,1.0,High,7.0
352,Low,left,90.0,-2.283642675886125,1.0,2.0,High,7.0
353,Low,left,90.0,2.2400598514728323,0.0,3.0,High,7.0
354,Low,left,90.0,2.354135480363981,1.0,4.0,High,7.0
355,Low,left,90.0,-0.21081124217320135,0.0,5.0,High,7.0
356,Low,right,90.0,1.7707705349829594,1.0,6.0,High,7.0
357,Low,left,90.0,5.160890632417183,0.0,7.0,High,7.0
358,Low,right,90.0,-1.9157980834791095,0.0,8.0,High,7.0
359,Low,left,90.0,5.4426325620788125,1.0,9.0,High,7.0
360,Low,right,90.0,-3.2072711863570453,1.0,10.0,High,7.0
361,Low,right,90.0,3.923603805342382,0.0,11.0,High,7.0
362,Low,right,90.0,0.3570180736285966,0.0,12.0,High,7.0
363,Low,left,90.0,1.127034769718287,1.0,13.0,High,7.0
364,Low,right,90.0,0.8391718018243004,1.0,14.0,High,7.0
365,Low,left,90.0,2.737767216507339,0.0,15.0,High,7.0
366,Low,right,90.0,1.0561376681954733,0.0,16.0,High,7.0
367,Low,left,90.0,5.499714543830889,1.0,17.0,High,7.0
368,Low,right,90.0,-1.1337622572361168,1.0,18.0,High,7.0
369,Low,right,90.0,1.4765808278106807,0.0,19.0,High,7.0
370,Low,right,90.0,0.5840618457549421,0.0,20.0,High,7.0
371,Low,right,90.0,0.2640344798015444,0.0,21.0,High,7.0
372,Low,right,90.0,2.863565147452859,1.0,22.0,High,7.0
373,Low,left,90.0,4.100433708607744,0.0,23.0,High,7.0
374,Low,right,90.0,-0.4419056571116351,0.0,24.0,High,7.0
375,Low,left,90.0,2.902372776641558,0.0,25.0,High,7.0
376,Low,left,90.0,1.7196052545095761,1.0,26.0,High,7.0
377,Low,left,90.0,4.946337389727223,1.0,27.0,High,7.0
378,Low,left,90.0,1.8922564637582773,1.0,28.0,High,7.0
379,Low,right,90.0,6.874770977674287,0.0,29.0,High,7.0
380,Low,left,90.0,2.9273372030873714,1.0,30.0,High,7.0
381,Low,left,90.0,-0.6789269026740681,1.0,31.0,High,7.0
382,Low,right,90.0,2.8610285777118643,0.0,32.0,High,7.0
383,Low,left,90.0,1.1059266965142132,1.0,33.0,High,7.0
384,Low,right,90.0,0.468238599807123,1.0,34.0,High,7.0
385,Low,left,90.0,1.1304834589352535,1.0,35.0,High,7.0
386,Low,left,90.0,3.242826050700282,0.0,36.0,High,7.0
387,Low,right,90.0,1.7393289380456392,1.0,37.0,High,7.0
388,Low,right,90.0,4.828401449906112,1.0,38.0,High,7.0
389,Low,left,90.0,2.706918222969825,0.0,39.0,High,7.0
390,Low,right,90.0,1.3837520676173591,1.0,40.0,High,7.0
391,Low,right,90.0,2.7557804552393,0.0,41.0,High,7.0
392,Low,left,90.0,1.82917847900707,1.0,42.0,High,7.0
393,Low,left,90.0,4.040868149189333,1.0,43.0,High,7.0
394,Low,left,90.0,2.5010698898265478,1.0,44.0,High,7.0
395,Low,right,90.0,-1.3299161923060194,0.0,45.0,High,7.0
396,Low,right,90.0,2.2420824162045885,0.0,46.0,High,7.0
397,Low,right,90.0,2.783682163716706,0.0,47.0,High,7.0
398,Low,left,90.0,3.971957281194375,1.0,48.0,High,7.0
399,Low,left,90.0,3.6556331110372855,1.0,49.0,High,7.0
400,High,left,60.0,2.3000901523837265,1.0,0.0,Low,8.0
401,High,left,60.0,0.4366264450513999,1.0,1.0,Low,8.0
402,High,right,60.0,2.176529192850576,0.0,2.0,Low,8.0
403,High,right,60.0,1.959523635091522,0.0,3.0,Low,8.0
404,High,right,60.0,4.572354507652837,0.0,4.0,Low,8.0
405,High,right,60.0,0.2855279338205021,1.0,5.0,Low,8.0
406,High,right,60.0,-0.03113643599317739,0.0,6.0,Low,8.0
407,High,left,60.0,1.6412444009859342,0.0,7.0,Low,8.0
408,High,left,60.0,-1.3455089169709418,1.0,8.0,Low,8.0
409,High,right,60.0,4.682128568844668,0.0,9.0,Low,8.0
410,High,right,60.0,-2.840595105701043,1.0,10.0,Low,8.0
411,High,right,60.0,1.6040440282674204,0.0,11.0,Low,8.0
412,High,left,60.0,3.83708812303329,0.0,12.0,Low,8.0
413,High,right,60.0,-0.5797002901040302,0.0,13.0,Low,8.0
414,High,right,60.0,3.675192855211365,0.0,14.0,Low,8.0
415,High,right,60.0,-0.22496332966899768,0.0,15.0,Low,8.0
416,High,right,60.0,4.292027996211642,0.0,16.0,Low,8.0
417,High,left,60.0,-1.3347514031015668,0.0,17.0,Low,8.0
418,High,right,60.0,0.9333610351574329,0.0,18.0,Low,8.0
419,High,left,60.0,1.8994877459934263,0.0,19.0,Low,8.0
420,High,left,60.0,6.390039571417878,1.0,20.0,Low,8.0
421,High,left,60.0,2.913726303009053,1.0,21.0,Low,8.0
422,High,right,60.0,4.7649814110423385,1.0,22.0,Low,8.0
423,High,right,60.0,-1.1898366865068424,0.0,23.0,Low,8.0
424,High,right,60.0,4.694602485852227,0.0,24.0,Low,8.0
425,High,left,60.0,-1.8659088266520674,1.0,25.0,Low,8.0
426,High,left,60.0,3.897128558548503,1.0,26.0,Low,8.0
427,High,right,60.0,0.9917528115904626,1.0,27.0,Low,8.0
428,High,right,60.0,4.323132403255978,1.0,28.0,Low,8.0
429,High,right,60.0,-1.642136036015396,0.0,29.0,Low,8.0
430,High,right,60.0,-0.14246404374252686,0.0,30.0,Low,8.0
431,High,right,60.0,1.9118597067632839,0.0,31.0,Low,8.0
432,High,left,60.0,2.1026553617165917,1.0,32.0,Low,8.0
433,High,left,60.0,6.0007562749654415,0.0,33.0,Low,8.0
434,High,right,60.0,3.437608971008092,1.0,34.0,Low,8.0
435,High,right,60.0,-0.05459459739712469,1.0,35.0,Low,8.0
436,High,left,60.0,4.210045239218518,1.0,36.0,Low,8.0
437,High,left,60.0,-0.7483929027478946,0.0,37.0,Low,8.0
438,High,right,60.0,2.342498119610461,1.0,38.0,Low,8.0
439,High,left,60.0,2.0877921136905733,0.0,39.0,Low,8.0
440,High,left,60.0,1.824142749469757,1.0,40.0,Low,8.0
441,High,right,60.0,1.1108380783153473,1.0,41.0,Low,8.0
442,High,left,60.0,1.889825151342042,0.0,42.0,Low,8.0
443,High,left,60.0,-4.106188937627256,1.0,43.0,Low,8.0
444,High,right,60.0,2.7273905372512237,0.0,44.0,Low,8.0
445,High,right,60.0,4.007462053797134,1.0,45.0,Low,8.0
446,High,left,60.0,2.1275770066772486,0.0,46.0,Low,8.0
447,High,left,60.0,2.3799584979941453,1.0,47.0,Low,8.0
448,High,left,60.0,0.9347665927800373,0.0,48.0,Low,8.0
449,High,left,60.0,3.2370679164336362,1.0,49.0,Low,8.0
450,Low,left,60.0,3.9020724498878483,1.0,0.0,Low,9.0
451,Low,right,60.0,2.23421687806755,1.0,1.0,Low,9.0
452,Low,left,60.0,1.8668483971780632,0.0,2.0,Low,9.0
453,Low,right,60.0,0.9225647114691795,0.0,3.0,Low,9.0
454,Low,left,60.0,0.17151913666677787,1.0,4.0,Low,9.0
455,Low,right,60.0,-0.5924222674687769,1.0,5.0,Low,9.0
456,Low,right,60.0,0.5539783131368072,1.0,6.0,Low,9.0
457,Low,right,60.0,0.43978107912623765,1.0,7.0,Low,9.0
458,Low,right,60.0,-3.3176417663738196,0.0,8.0,Low,9.0
459,Low,left,60.0,2.194345749850406,0.0,9.0,Low,9.0
460,Low,left,60.0,3.4717726476029145,1.0,10.0,Low,9.0
461,Low,right,60.0,2.747749599644676,0.0,11.0,Low,9.0
462,Low,right,60.0,0.2792330893425432,1.0,12.0,Low,9.0
463,Low,right,60.0,1.766870521883941,1.0,13.0,Low,9.0
464,Low,left,60.0,2.0337600975609424,1.0,14.0,Low,9.0
465,Low,right,60.0,-1.172559496541985,0.0,15.0,Low,9.0
466,Low,left,60.0,-1.2737412809650759,0.0,16.0,Low,9.0
467,Low,left,60.0,1.770026121875564,1.0,17.0,Low,9.0
468,Low,left,60.0,-0.282411989105535,1.0,18.0,Low,9.0
469,Low,left,60.0,3.298193814685135,0.0,19.0,Low,9.0
470,Low,right,60.0,4.898298267243165,0.0,20.0,Low,9.0
471,Low,right,60.0,1.3432147680293145,0.0,21.0,Low,9.0
472,Low,right,60.0,2.6822124108597265,0.0,22.0,Low,9.0
473,Low,left,60.0,1.1034235378266388,0.0,23.0,Low,9.0
474,Low,right,60.0,3.4254155572874225,0.0,24.0,Low,9.0
475,Low,right,60.0,4.544257765158383,0.0,25.0,Low,9.0
476,Low,left,60.0,2.5228433194794686,1.0,26.0,Low,9.0
477,Low,left,60.0,1.9143238326073364,1.0,27.0,Low,9.0
478,Low,left,60.0,1.7409957315699223,1.0,28.0,Low,9.0
479,Low,left,60.0,0.5619988158074842,1.0,29.0,Low,9.0
480,Low,left,60.0,6.238352724601871,0.0,30.0,Low,9.0
481,Low,right,60.0,5.360361041838286,1.0,31.0,Low,9.0
482,Low,left,60.0,0.3112817430899264,1.0,32.0,Low,9.0
483,Low,left,60.0,3.1232749198941545,1.0,33.0,Low,9.0
484,Low,right,60.0,0.20667042442384265,0.0,34.0,Low,9.0
485,Low,right,60.0,0.1110932684243029,1.0,35.0,Low,9.0
486,Low,left,60.0,1.3206690980107743,1.0,36.0,Low,9.0
487,Low,right,60.0,-3.7905643980235553,0.0,37.0,Low,9.0
488,Low,right,60.0,3.3618131321179536,0.0,38.0,Low,9.0
489,Low,right,60.0,1.4207410744368898,0.0,39.0,Low,9.0
490,Low,right,60.0,1.3574154774144778,0.0,40.0,Low,9.0
491,Low,left,60.0,2.950925136379472,1.0,41.0,Low,9.0
492,Low,left,60.0,-1.286493820809453,0.0,42.0,Low,9.0
493,Low,right,60.0,-0.5587039774049636,1.0,43.0,Low,9.0
494,Low,right,60.0,1.627048727570511,0.0,44.0,Low,9.0
495,Low,right,60.0,3.4875477854541854,0.0,45.0,Low,9.0
496,Low,left,60.0,2.3771380504510318,1.0,46.0,Low,9.0
497,Low,left,60.0,-2.8362880929545167,1.0,47.0,Low,9.0
498,Low,left,60.0,0.6090615742371112,1.0,48.0,Low,9.0
499,Low,left,60.0,0.5765021678467307,0.0,49.0,Low,9.0
500,High,right,90.0,0.5114342296082659,1.0,0.0,Low,10.0
501,High,left,90.0,1.3025546958262924,1.0,1.0,Low,10.0
502,High,left,90.0,2.637930734549272,0.0,2.0,Low,10.0
503,High,right,90.0,1.5824576873518574,0.0,3.0,Low,10.0
504,High,right,90.0,-0.4524833037310674,0.0,4.0,Low,10.0
505,High,left,90.0,-0.9261747924373647,0.0,5.0,Low,10.0
506,High,left,90.0,3.8642274878911262,1.0,6.0,Low,10.0
507,High,right,90.0,3.235335643943473,0.0,7.0,Low,10.0
508,High,right,90.0,-0.7071789888671987,1.0,8.0,Low,10.0
509,High,left,90.0,3.8133620833968065,0.0,9.0,Low,10.0
510,High,right,90.0,6.523525946918987,0.0,10.0,Low,10.0
511,High,left,90.0,0.628942740521891,0.0,11.0,Low,10.0
512,High,left,90.0,6.398161590431572,0.0,12.0,Low,10.0
513,High,right,90.0,0.7903350581502049,1.0,13.0,Low,10.0
514,High,right,90.0,1.6186468070012117,1.0,14.0,Low,10.0
515,High,right,90.0,4.429436143357583,1.0,15.0,Low,10.0
516,High,left,90.0,1.2504071987439058,1.0,16.0,Low,10.0
517,High,left,90.0,-2.518180997653487,1.0,17.0,Low,10.0
518,High,right,90.0,1.6750198392920703,0.0,18.0,Low,10.0
519,High,right,90.0,2.999238297679625,1.0,19.0,Low,10.0
520,High,left,90.0,4.599883695498559,0.0,20.0,Low,10.0
521,High,right,90.0,1.4935079593149354,0.0,21.0,Low,10.0
522,High,left,90.0,7.013190701125342,0.0,22.0,Low,10.0
523,High,left,90.0,3.0336946698822542,1.0,23.0,Low,10.0
524,High,right,90.0,3.8754996177431154,0.0,24.0,Low,10.0
525,High,right,90.0,1.9217756561011727,1.0,25.0,Low,10.0
526,High,right,90.0,2.872804764767685,1.0,26.0,Low,10.0
527,High,left,90.0,4.048328847999805,1.0,27.0,Low,10.0
528,High,right,90.0,5.073551100492418,0.0,28.0,Low,10.0
529,High,left,90.0,2.679088835311921,1.0,29.0,Low,10.0
530,High,left,90.0,-3.4899341636965255,1.0,30.0,Low,10.0
531,High,left,90.0,0.5497132504328384,0.0,31.0,Low,10.0
532,High,left,90.0,6.113256658173533,1.0,32.0,Low,10.0
533,High,left,90.0,2.3481806848071796,1.0,33.0,Low,10.0
534,High,left,90.0,1.8492207655464707,1.0,34.0,Low,10.0
535,High,left,90.0,1.1958711375998634,0.0,35.0,Low,10.0
536,High,right,90.0,1.4786327003174555,0.0,36.0,Low,10.0
537,High,left,90.0,-0.553966819944506,1.0,37.0,Low,10.0
538,High,left,90.0,2.950558680696243,0.0,38.0,Low,10.0
539,High,right,90.0,-2.1855182787585847,0.0,39.0,Low,10.0
540,High,right,90.0,-0.4935947795461315,1.0,40.0,Low,10.0
541,High,right,90.0,-1.0723973041700474,1.0,41.0,Low,10.0
542,High,right,90.0,1.3656115935321802,0.0,42.0,Low,10.0
543,High,left,90.0,1.7976321583138648,1.0,43.0,Low,10.0
544,High,right,90.0,2.399074837413801,0.0,44.0,Low,10.0
545,High,left,90.0,5.112570347611098,1.0,45.0,Low,10.0
546,High,left,90.0,0.6791598911494154,0.0,46.0,Low,10.0
547,High,right,90.0,-1.7916689775937988,1.0,47.0,Low,10.0
548,High,left,90.0,4.719386016819484,0.0,48.0,Low,10.0
549,High,right,90.0,5.775753634587014,1.0,49.0,Low,10.0
550,Low,right,90.0,-0.7974721090396986,1.0,0.0,Low,11.0
551,Low,right,90.0,0.7029719115759214,0.0,1.0,Low,11.0
552,Low,right,90.0,3.9957534144724676,1.0,2.0,Low,11.0
553,Low,right,90.0,4.160158639537795,0.0,3.0,Low,11.0
554,Low,right,90.0,3.333569929952911,1.0,4.0,Low,11.0
555,Low,right,90.0,-0.04738952255127882,1.0,5.0,Low,11.0
556,Low,left,90.0,1.5813369263798165,1.0,6.0,Low,11.0
557,Low,right,90.0,2.569674959213593,0.0,7.0,Low,11.0
558,Low,right,90.0,-0.04371075407910441,1.0,8.0,Low,11.0
559,Low,right,90.0,-1.6685789733206535,0.0,9.0,Low,11.0
560,Low,left,90.0,3.1366672662270405,1.0,10.0,Low,11.0
561,Low,left,90.0,2.773364360006862,1.0,11.0,Low,11.0
562,Low,left,90.0,1.3826115301446102,0.0,12.0,Low,11.0
563,Low,left,90.0,1.783935976898764,0.0,13.0,Low,11.0
564,Low,left,90.0,0.5659574060342776,0.0,14.0,Low,11.0
565,Low,right,90.0,1.5539631348615894,1.0,15.0,Low,11.0
566,Low,left,90.0,-0.6911186060811618,0.0,16.0,Low,11.0
567,Low,left,90.0,-1.232724543914629,0.0,17.0,Low,11.0
568,Low,right,90.0,1.3733595101819873,0.0,18.0,Low,11.0
569,Low,right,90.0,2.6157661441595357,0.0,19.0,Low,11.0
570,Low,right,90.0,0.9567303646604245,1.0,20.0,Low,11.0
571,Low,right,90.0,-0.42908904546924886,1.0,21.0,Low,11.0
572,Low,left,90.0,0.805961282341864,1.0,22.0,Low,11.0
573,Low,left,90.0,3.957538946918175,0.0,23.0,Low,11.0
574,Low,left,90.0,3.728104987867916,0.0,24.0,Low,11.0
575,Low,left,90.0,2.6843755048138758,1.0,25.0,Low,11.0
576,Low,left,90.0,1.9416945121465534,0.0,26.0,Low,11.0
577,Low,left,90.0,3.683228687009518,0.0,27.0,Low,11.0
578,Low,left,90.0,1.863320523444734,1.0,28.0,Low,11.0
579,Low,left,90.0,1.0148819085518306,1.0,29.0,Low,11.0
580,Low,right,90.0,0.13907671043914038,1.0,30.0,Low,11.0
581,Low,right,90.0,2.5832158012825337,0.0,31.0,Low,11.0
582,Low,left,90.0,-0.5699902788623574,0.0,32.0,Low,11.0
583,Low,right,90.0,1.8890656005578668,1.0,33.0,Low,11.0
584,Low,left,90.0,-0.3624028088560096,0.0,34.0,Low,11.0
585,Low,right,90.0,4.437487476032818,0.0,35.0,Low,11.0
586,Low,left,90.0,2.495430196871996,0.0,36.0,Low,11.0
587,Low,right,90.0,1.1794469004589083,1.0,37.0,Low,11.0
588,Low,left,90.0,-3.908547791845276,1.0,38.0,Low,11.0
589,Low,left,90.0,0.4940656106628143,1.0,39.0,Low,11.0
590,Low,left,90.0,2.597273835972698,1.0,40.0,Low,11.0
591,Low,right,90.0,-0.9282312297914237,1.0,41.0,Low,11.0
592,Low,right,90.0,3.3928169254309015,0.0,42.0,Low,11.0
593,Low,right,90.0,4.041516199524101,0.0,43.0,Low,11.0
594,Low,left,90.0,0.8731034306202604,1.0,44.0,Low,11.0
595,Low,left,90.0,1.864915158803667,0.0,45.0,Low,11.0
596,Low,left,90.0,1.2288847679006907,1.0,46.0,Low,11.0
597,Low,right,90.0,1.6714252693009004,1.0,47.0,Low,11.0
598,Low,left,90.0,5.68078119936893,0.0,48.0,Low,11.0
599,Low,left,90.0,-1.262801918840324,0.0,49.0,Low,11.0
