,Arousal,KeyPressed,LearningTime,RT,Response,TrialNumber,Valence,nBlock
0,High,left,30.0,7.292604844933774,1.0,0.0,High,0.0
1,High,right,30.0,2.24265009698649,1.0,1.0,High,0.0
2,High,right,30.0,0.8362940461614976,0.0,2.0,High,0.0
3,High,right,30.0,4.120293435232959,1.0,3.0,High,0.0
4,High,left,30.0,3.9148724344114183,1.0,4.0,High,0.0
5,High,left,30.0,-3.2381909683721344,1.0,5.0,High,0.0
6,High,left,30.0,2.7202127288076605,1.0,6.0,High,0.0
7,High,right,30.0,4.916651882199211,1.0,7.0,High,0.0
8,High,right,30.0,1.6243349771070013,1.0,8.0,High,0.0
9,High,left,30.0,2.6819379655464863,0.0,9.0,High,0.0
10,High,left,30.0,2.9864320498938,1.0,10.0,High,0.0
11,High,left,30.0,3.15855149347082,1.0,11.0,High,0.0
12,High,left,30.0,0.956433197098169,0.0,12.0,High,0.0
13,High,right,30.0,2.3475269421507896,1.0,13.0,High,0.0
14,High,left,30.0,2.847904326313124,1.0,14.0,High,0.0
15,High,left,30.0,-1.831096541520591,0.0,15.0,High,0.0
16,High,left,30.0,1.1390653113821476,0.0,16.0,High,0.0
17,High,left,30.0,0.09067148527723212,0.0,17.0,High,0.0
18,High,right,30.0,0.9690414223328578,0.0,18.0,High,0.0
19,High,right,30.0,4.00444997001271,0.0,19.0,High,0.0
20,High,right,30.0,4.490365610220254,1.0,20.0,High,0.0
21,High,left,30.0,2.0682052596758083,0.0,21.0,High,0.0
22,High,right,30.0,2.047556541436803,1.0,22.0,High,0.0
23,High,right,30.0,-1.006348358882231,1.0,23.0,High,0.0
24,High,right,30.0,-0.2817927333261179,1.0,24.0,High,0.0
25,High,right,30.0,2.1465044095126773,0.0,25.0,High,0.0
26,High,left,30.0,1.6272818939540077,0.0,26.0,High,0.0
27,High,right,30.0,1.246858844823567,1.0,27.0,High,0.0
28,High,right,30.0,0.8896787442525926,1.0,28.0,High,0.0
29,High,left,30.0,3.051758788950301,1.0,29.0,High,0.0
30,High,right,30.0,0.1906120758408858,0.0,30.0,High,0.0
31,High,left,30.0,-1.7239650218139557,1.0,31.0,High,0.0
32,High,right,30.0,-1.0315529248819821,0.0,32.0,High,0.0
33,High,left,30.0,0.1636986669662337,0.0,33.0,High,0.0
34,High,left,30.0,3.594921088058121,0.0,34.0,High,0.0
35,High,left,30.0,3.066969661620365,1.0,35.0,High,0.0
36,High,left,30.0,3.164066520599061,1.0,36.0,High,0.0
37,High,left,30.0,4.000076747418625,1.0,37.0,High,0.0
38,High,left,30.0,3.110804568579669,0.0,38.0,High,0.0
39,High,right,30.0,5.1630789975695,0.0,39.0,High,0.0
40,High,right,30.0,3.5460191732040856,1.0,40.0,High,0.0
41,High,left,30.0,-1.6963153245830576,1.0,41.0,High,0.0
42,High,right,30.0,1.8884787727278574,1.0,42.0,High,0.0
43,High,left,30.0,8.018251208808442,0.0,43.0,High,0.0
44,High,left,30.0,5.720782654486386,0.0,44.0,High,0.0
45,High,right,30.0,1.9947659186394082,0.0,45.0,High,0.0
46,High,left,30.0,5.222705474936503,1.0,46.0,High,0.0
47,High,right,30.0,4.258375775345819,0.0,47.0,High,0.0
48,High,left,30.0,2.9884239975192277,0.0,48.0,High,0.0
49,High,left,30.0,3.3291649671081887,0.0,49.0,High,0.0
50,Low,left,30.0,4.004772373671558,0.0,0.0,Low,1.0
51,Low,right,30.0,0.7888190052876853,0.0,1.0,Low,1.0
52,Low,left,30.0,5.589764626237008,1.0,2.0,Low,1.0
53,Low,left,30.0,2.078898846305977,0.0,3.0,Low,1.0
54,Low,right,30.0,0.7950495487044829,1.0,4.0,Low,1.0
55,Low,right,30.0,2.511411094708031,0.0,5.0,Low,1.0
56,Low,right,30.0,3.96592167875475,0.0,6.0,Low,1.0
57,Low,left,30.0,2.394806413078047,0.0,7.0,Low,1.0
58,Low,right,30.0,5.02779430735389,0.0,8.0,Low,1.0
59,Low,left,30.0,6.709365597586567,0.0,9.0,Low,1.0
60,Low,right,30.0,4.292046862434994,0.0,10.0,Low,1.0
61,Low,right,30.0,0.22494481108869024,0.0,11.0,Low,1.0
62,Low,left,30.0,4.375990099225324,0.0,12.0,Low,1.0
63,Low,right,30.0,0.8305558857112711,0.0,13.0,Low,1.0
64,Low,left,30.0,2.114025171735752,1.0,14.0,Low,1.0
65,Low,right,30.0,0.43095204652731756,0.0,15.0,Low,1.0
66,Low,right,30.0,2.5336032860182005,1.0,16.0,Low,1.0
67,Low,right,30.0,3.7161636681068924,1.0,17.0,Low,1.0
68,Low,left,30.0,-0.26093990702830117,0.0,18.0,Low,1.0
69,Low,left,30.0,-0.6563245989382955,0.0,19.0,Low,1.0
70,Low,right,30.0,1.2330347061022442,0.0,20.0,Low,1.0
71,Low,left,30.0,-1.9204137842500442,1.0,21.0,Low,1.0
72,Low,right,30.0,-0.202105896428469,1.0,22.0,Low,1.0
73,Low,right,30.0,-0.11009214748309892,1.0,23.0,Low,1.0
74,Low,left,30.0,-1.2480327430778648,1.0,24.0,Low,1.0
75,Low,left,30.0,6.67309451313686,0.0,25.0,Low,1.0
76,Low,right,30.0,2.1103381597172812,1.0,26.0,Low,1.0
77,Low,right,30.0,2.0459158745688972,0.0,27.0,Low,1.0
78,Low,left,30.0,5.009896302876252,1.0,28.0,Low,1.0
79,Low,right,30.0,3.764389103028865,0.0,29.0,Low,1.0
80,Low,left,30.0,2.374895648392784,0.0,30.0,Low,1.0
81,Low,left,30.0,4.585594202054615,0.0,31.0,Low,1.0
82,Low,left,30.0,2.5644976541234454,0.0,32.0,Low,1.0
83,Low,right,30.0,0.22125201615332446,0.0,33.0,Low,1.0
84,Low,right,30.0,2.594111844019546,0.0,34.0,Low,1.0
85,Low,right,30.0,-2.0973551008058684,1.0,35.0,Low,1.0
86,Low,left,30.0,2.246701100321986,0.0,36.0,Low,1.0
87,Low,right,30.0,3.2509029093130124,1.0,37.0,Low,1.0
88,Low,left,30.0,-0.041216859916009874,0.0,38.0,Low,1.0
89,Low,left,30.0,4.835379331440928,0.0,39.0,Low,1.0
90,Low,left,30.0,-0.6147592708148539,1.0,40.0,Low,1.0
91,Low,left,30.0,6.4868385474184524,0.0,41.0,Low,1.0
92,Low,left,30.0,-1.6967297403477706,1.0,42.0,Low,1.0
93,Low,right,30.0,6.286103772969303,1.0,43.0,Low,1.0
94,Low,right,30.0,1.464890947821751,1.0,44.0,Low,1.0
95,Low,left,30.0,0.1405908936022109,1.0,45.0,Low,1.0
96,Low,left,30.0,3.9483154048150535,0.0,46.0,Low,1.0
97,Low,left,30.0,2.631157820389279,1.0,47.0,Low,1.0
98,Low,left,30.0,-0.299810110528705,0.0,48.0,Low,1.0
99,Low,right,30.0,4.177343882419885,0.0,49.0,Low,1.0
100,High,right,30.0,2.7675818304661934,1.0,0.0,Low,2.0
101,High,right,30.0,2.5779811807255313,1.0,1.0,Low,2.0
102,High,left,30.0,1.47053353330855,1.0,2.0,Low,2.0
103,High,right,30.0,1.13485715455011,0.0,3.0,Low,2.0
104,High,right,30.0,3.076996131432713,1.0,4.0,Low,2.0
105,High,left,30.0,2.389043188613926,0.0,5.0,Low,2.0
106,High,left,30.0,1.3435318329061428,1.0,6.0,Low,2.0
107,High,left,30.0,-0.6318097429596667,1.0,7.0,Low,2.0
108,High,left,30.0,-0.16139118794720786,1.0,8.0,Low,2.0
109,High,left,30.0,2.828685115350123,0.0,9.0,Low,2.0
110,High,right,30.0,5.7811107281638545,1.0,10.0,Low,2.0
111,High,right,30.0,4.92336158213393,0.0,11.0,Low,2.0
112,High,right,30.0,2.046436659497784,1.0,12.0,Low,2.0
113,High,right,30.0,6.863766635559449,0.0,13.0,Low,2.0
114,High,left,30.0,3.2666210155672686,1.0,14.0,Low,2.0
115,High,left,30.0,2.305683585645351,1.0,15.0,Low,2.0
116,High,left,30.0,2.429000227919402,0.0,16.0,Low,2.0
117,High,left,30.0,2.4176938470071074,0.0,17.0,Low,2.0
118,High,left,30.0,4.237692750991922,0.0,18.0,Low,2.0
119,High,left,30.0,0.7617534702828295,0.0,19.0,Low,2.0
120,High,left,30.0,1.9186724097870793,0.0,20.0,Low,2.0
121,High,left,30.0,2.4257938749696963,0.0,21.0,Low,2.0
122,High,left,30.0,1.091481767530143,0.0,22.0,Low,2.0
123,High,right,30.0,0.6500696940018666,1.0,23.0,Low,2.0
124,High,right,30.0,1.681135830406612,1.0,24.0,Low,2.0
125,High,left,30.0,0.85635919581065,0.0,25.0,Low,2.0
126,High,right,30.0,2.792966586489991,1.0,26.0,Low,2.0
127,High,left,30.0,1.3126147856548562,0.0,27.0,Low,2.0
128,High,right,30.0,0.3536585903047931,1.0,28.0,Low,2.0
129,High,left,30.0,-0.2797328845834244,1.0,29.0,Low,2.0
130,High,left,30.0,4.000014866555778,0.0,30.0,Low,2.0
131,High,right,30.0,2.9314080501961355,0.0,31.0,Low,2.0
132,High,right,30.0,2.714615245234926,1.0,32.0,Low,2.0
133,High,left,30.0,-1.2327832699506505,0.0,33.0,Low,2.0
134,High,right,30.0,0.9348786314474005,1.0,34.0,Low,2.0
135,High,right,30.0,1.5677500683925314,1.0,35.0,Low,2.0
136,High,right,30.0,3.02821457271112,0.0,36.0,Low,2.0
137,High,right,30.0,2.514411693831418,0.0,37.0,Low,2.0
138,High,right,30.0,1.6829376149242592,1.0,38.0,Low,2.0
139,High,left,30.0,5.576219220980487,0.0,39.0,Low,2.0
140,High,right,30.0,4.509236092801796,1.0,40.0,Low,2.0
141,High,left,30.0,1.4745120253736965,1.0,41.0,Low,2.0
142,High,right,30.0,3.415791695140116,0.0,42.0,Low,2.0
143,High,left,30.0,-0.11084709899183265,0.0,43.0,Low,2.0
144,High,right,30.0,2.001191309460386,0.0,44.0,Low,2.0
145,High,left,30.0,4.487894544074636,0.0,45.0,Low,2.0
146,High,left,30.0,-2.0946715593618,1.0,46.0,Low,2.0
147,High,left,30.0,-1.0937554355824786,0.0,47.0,Low,2.0
148,High,right,30.0,5.049992165297196,1.0,48.0,Low,2.0
149,High,left,30.0,3.178373408318433,0.0,49.0,Low,2.0
150,Low,left,30.0,2.099533162783938,0.0,0.0,High,3.0
151,Low,left,30.0,2.8502577445218678,0.0,1.0,High,3.0
152,Low,right,30.0,1.0843839646875872,0.0,2.0,High,3.0
153,Low,left,30.0,-0.8213837189106132,0.0,3.0,High,3.0
154,Low,left,30.0,0.7627108192277259,1.0,4.0,High,3.0
155,Low,right,30.0,-2.3143918110266255,0.0,5.0,High,3.0
156,Low,left,30.0,1.3202291038619274,1.0,6.0,High,3.0
157,Low,right,30.0,3.951524683517828,0.0,7.0,High,3.0
158,Low,left,30.0,0.48079165264101964,1.0,8.0,High,3.0
159,Low,right,30.0,3.655096706162015,1.0,9.0,High,3.0
160,Low,right,30.0,4.407169468753459,1.0,10.0,High,3.0
161,Low,right,30.0,-1.4574375698607382,1.0,11.0,High,3.0
162,Low,right,30.0,2.314955097304841,1.0,12.0,High,3.0
163,Low,right,30.0,1.1055996137389479,1.0,13.0,High,3.0
164,Low,right,30.0,6.7425831397670715,1.0,14.0,High,3.0
165,Low,left,30.0,-0.664142665250353,1.0,15.0,High,3.0
166,Low,right,30.0,-1.6392947490979013,0.0,16.0,High,3.0
167,Low,left,30.0,2.487735296507016,1.0,17.0,High,3.0
168,Low,left,30.0,0.36227469639148757,1.0,18.0,High,3.0
169,Low,right,30.0,3.482024043077754,1.0,19.0,High,3.0
170,Low,right,30.0,4.843655047574557,0.0,20.0,High,3.0
171,Low,left,30.0,6.247594534506646,1.0,21.0,High,3.0
172,Low,right,30.0,2.882071926877539,1.0,22.0,High,3.0
173,Low,right,30.0,1.556179898567136,0.0,23.0,High,3.0
174,Low,right,30.0,1.4223460277232283,0.0,24.0,High,3.0
175,Low,right,30.0,2.279433860361487,1.0,25.0,High,3.0
176,Low,right,30.0,1.9723671091806607,1.0,26.0,High,3.0
177,Low,left,30.0,2.1486962578373303,1.0,27.0,High,3.0
178,Low,right,30.0,2.755659370662435,1.0,28.0,High,3.0
179,Low,right,30.0,3.5455786833056147,0.0,29.0,High,3.0
180,Low,left,30.0,0.7151949466988536,0.0,30.0,High,3.0
181,Low,left,30.0,4.297113230180312,1.0,31.0,High,3.0
182,Low,left,30.0,0.37777430484485275,1.0,32.0,High,3.0
183,Low,right,30.0,3.1254530757694265,1.0,33.0,High,3.0
184,Low,left,30.0,-1.391037705594013,0.0,34.0,High,3.0
185,Low,left,30.0,1.6344286760353919,1.0,35.0,High,3.0
186,Low,left,30.0,-3.353905239607144,1.0,36.0,High,3.0
187,Low,right,30.0,0.8771554008506238,1.0,37.0,High,3.0
188,Low,right,30.0,-0.05143018303417435,0.0,38.0,High,3.0
189,Low,left,30.0,0.7311920278732965,1.0,39.0,High,3.0
190,Low,left,30.0,3.726389946094967,1.0,40.0,High,3.0
191,Low,right,30.0,0.31884875420561154,0.0,41.0,High,3.0
192,Low,right,30.0,3.5840301464654405,0.0,42.0,High,3.0
193,Low,right,30.0,2.985638501291029,0.0,43.0,High,3.0
194,Low,right,30.0,1.9286161846900791,0.0,44.0,High,3.0
195,Low,right,30.0,-0.62000639290456,0.0,45.0,High,3.0
196,Low,right,30.0,1.065559561761708,0.0,46.0,High,3.0
197,Low,right,30.0,3.0327201540774285,1.0,47.0,High,3.0
198,Low,right,30.0,1.5037625820110727,1.0,48.0,High,3.0
199,Low,right,30.0,1.7344814662814008,0.0,49.0,High,3.0
200,High,right,60.0,2.435294366564383,0.0,0.0,High,4.0
201,High,left,60.0,2.792579825860339,0.0,1.0,High,4.0
202,High,right,60.0,-2.123163743623026,0.0,2.0,High,4.0
203,High,left,60.0,3.4964045215451773,1.0,3.0,High,4.0
204,High,left,60.0,1.96980318768923,1.0,4.0,High,4.0
205,High,left,60.0,-4.500104285027801,1.0,5.0,High,4.0
206,High,right,60.0,-0.07799091203040165,0.0,6.0,High,4.0
207,High,left,60.0,3.106756971780839,0.0,7.0,High,4.0
208,High,right,60.0,0.9615766057985413,1.0,8.0,High,4.0
209,High,left,60.0,0.8302558495890024,1.0,9.0,High,4.0
210,High,right,60.0,0.6095320099603556,1.0,10.0,High,4.0
211,High,left,60.0,2.6548914847821785,1.0,11.0,High,4.0
212,High,left,60.0,-1.6593747373004817,1.0,12.0,High,4.0
213,High,left,60.0,1.7642179074312632,1.0,13.0,High,4.0
214,High,left,60.0,2.8927807445514446,1.0,14.0,High,4.0
215,High,right,60.0,1.2559059808316655,1.0,15.0,High,4.0
216,High,right,60.0,4.798068263707948,1.0,16.0,High,4.0
217,High,right,60.0,0.6462299011317365,0.0,17.0,High,4.0
218,High,left,60.0,1.6272537701367995,0.0,18.0,High,4.0
219,High,left,60.0,-0.6121587988300856,1.0,19.0,High,4.0
220,High,left,60.0,1.94822540955859,0.0,20.0,High,4.0
221,High,left,60.0,2.389449720365933,1.0,21.0,High,4.0
222,High,right,60.0,1.705060362427281,1.0,22.0,High,4.0
223,High,right,60.0,1.7052516233750703,0.0,23.0,High,4.0
224,High,left,60.0,2.854946247571611,0.0,24.0,High,4.0
225,High,right,60.0,1.6010374216953918,0.0,25.0,High,4.0
226,High,left,60.0,0.9846415840415284,1.0,26.0,High,4.0
227,High,left,60.0,4.20050700122096,1.0,27.0,High,4.0
228,High,right,60.0,3.5478426287712077,0.0,28.0,High,4.0
229,High,right,60.0,2.376954749064922,0.0,29.0,High,4.0
230,High,right,60.0,3.871641719441569,1.0,30.0,High,4.0
231,High,left,60.0,3.225720261864951,0.0,31.0,High,4.0
232,High,left,60.0,3.519787628218068,0.0,32.0,High,4.0
233,High,right,60.0,5.681479838924659,1.0,33.0,High,4.0
234,High,left,60.0,0.042150428749612834,0.0,34.0,High,4.0
235,High,right,60.0,3.447882330709732,1.0,35.0,High,4.0
236,High,left,60.0,4.990129428026233,0.0,36.0,High,4.0
237,High,right,60.0,2.7259954660522308,0.0,37.0,High,4.0
238,High,right,60.0,4.830634611238722,0.0,38.0,High,4.0
239,High,left,60.0,-1.1396495433787588,0.0,39.0,High,4.0
240,High,left,60.0,1.315540485789371,0.0,40.0,High,4.0
241,High,left,60.0,1.5312471914863728,0.0,41.0,High,4.0
242,High,right,60.0,3.6949923640452846,0.0,42.0,High,4.0
243,High,left,60.0,-1.6137033740525788,1.0,43.0,High,4.0
244,High,left,60.0,1.3373353436009845,1.0,44.0,High,4.0
245,High,left,60.0,1.0571189743335363,1.0,45.0,High,4.0
246,High,right,60.0,3.7785994168378374,1.0,46.0,High,4.0
247,High,left,60.0,0.6172802123798675,0.0,47.0,High,4.0
248,High,right,60.0,2.8911142375544383,0.0,48.0,High,4.0
249,High,right,60.0,2.257841841524873,1.0,49.0,High,4.0
250,Low,right,60.0,1.2985139444704434,0.0,0.0,Low,5.0
251,Low,left,60.0,-0.2642528295848865,0.0,1.0,Low,5.0
252,Low,right,60.0,-1.5587338876070507,0.0,2.0,Low,5.0
253,Low,right,60.0,2.0632204374710628,0.0,3.0,Low,5.0
254,Low,left,60.0,0.0021930419897486786,1.0,4.0,Low,5.0
255,Low,left,60.0,2.489243038122504,0.0,5.0,Low,5.0
256,Low,right,60.0,3.4345108752186455,0.0,6.0,Low,5.0
257,Low,right,60.0,1.7617977531552769,0.0,7.0,Low,5.0
258,Low,left,60.0,-0.45564024882389687,1.0,8.0,Low,5.0
259,Low,left,60.0,5.3018629085794,1.0,9.0,Low,5.0
260,Low,left,60.0,3.051056987959905,0.0,10.0,Low,5.0
261,Low,right,60.0,0.6227584660684555,0.0,11.0,Low,5.0
262,Low,left,60.0,4.016191523484482,0.0,12.0,Low,5.0
263,Low,left,60.0,-0.8255153454654354,0.0,13.0,Low,5.0
264,Low,left,60.0,1.9832818970562887,0.0,14.0,Low,5.0
265,Low,left,60.0,1.4268592285076613,1.0,15.0,Low,5.0
266,Low,right,60.0,3.3490727602965076,1.0,16.0,Low,5.0
267,Low,right,60.0,1.7000717809716932,0.0,17.0,Low,5.0
268,Low,left,60.0,1.91850002968771,1.0,18.0,Low,5.0
269,Low,left,60.0,2.852167854417872,1.0,19.0,Low,5.0
270,Low,right,60.0,5.650357789474178,1.0,20.0,Low,5.0
271,Low,right,60.0,-0.17130085003276108,0.0,21.0,Low,5.0
272,Low,left,60.0,-1.9938210219391959,1.0,22.0,Low,5.0
273,Low,right,60.0,1.5881397315056323,1.0,23.0,Low,5.0
274,Low,right,60.0,0.08408472234317621,1.0,24.0,Low,5.0
275,Low,left,60.0,-2.184558072804724,1.0,25.0,Low,5.0
276,Low,right,60.0,-0.5634050680297737,1.0,26.0,Low,5.0
277,Low,right,60.0,1.9556793526258702,0.0,27.0,Low,5.0
278,Low,left,60.0,2.3883931685150044,0.0,28.0,Low,5.0
279,Low,left,60.0,-0.6127571296872356,1.0,29.0,Low,5.0
280,Low,left,60.0,4.52332362287035,0.0,30.0,Low,5.0
281,Low,left,60.0,2.0228456806653687,0.0,31.0,Low,5.0
282,Low,right,60.0,3.4855453521939332,0.0,32.0,Low,5.0
283,Low,left,60.0,-2.1088121504993085,0.0,33.0,Low,5.0
284,Low,left,60.0,-3.2634461814524265,1.0,34.0,Low,5.0
285,Low,left,60.0,4.846352666866795,1.0,35.0,Low,5.0
286,Low,right,60.0,4.139224618881805,0.0,36.0,Low,5.0
287,Low,left,60.0,4.459820412952763,0.0,37.0,Low,5.0
288,Low,left,60.0,3.2954435373181408,1.0,38.0,Low,5.0
289,Low,right,60.0,3.7079841866792886,1.0,39.0,Low,5.0
290,Low,left,60.0,3.1156893824823273,0.0,40.0,Low,5.0
291,Low,right,60.0,0.7077817735038319,1.0,41.0,Low,5.0
292,Low,left,60.0,1.746910837564928,0.0,42.0,Low,5.0
293,Low,right,60.0,4.395799976832354,1.0,43.0,Low,5.0
294,Low,left,60.0,4.694488124399694,1.0,44.0,Low,5.0
295,Low,left,60.0,-1.6488731553239986,0.0,45.0,Low,5.0
296,Low,left,60.0,5.203678177925406,1.0,46.0,Low,5.0
297,Low,right,60.0,1.1114522772425308,0.0,47.0,Low,5.0
298,Low,left,60.0,0.5509891466462331,1.0,48.0,Low,5.0
299,Low,left,60.0,2.8909858909237265,0.0,49.0,Low,5.0
300,High,left,90.0,1.5332073216256843,0.0,0.0,High,6.0
301,High,left,90.0,4.5402112693644305,1.0,1.0,High,6.0
302,High,right,90.0,1.0414518015510523,0.0,2.0,High,6.0
303,High,right,90.0,0.6790540092083067,0.0,3.0,High,6.0
304,High,right,90.0,4.695014135174993,1.0,4.0,High,6.0
305,High,right,90.0,0.030350289753873105,1.0,5.0,High,6.0
306,High,left,90.0,2.199415530120172,1.0,6.0,High,6.0
307,High,right,90.0,3.8031638327010477,1.0,7.0,High,6.0
308,High,right,90.0,-3.807470473550484,0.0,8.0,High,6.0
309,High,right,90.0,1.4154656709032714,1.0,9.0,High,6.0
310,High,left,90.0,1.0478805179882151,0.0,10.0,High,6.0
311,High,left,90.0,1.6092299959297147,0.0,11.0,High,6.0
312,High,left,90.0,-1.9009542932963508,0.0,12.0,High,6.0
313,High,left,90.0,1.3655938713672975,1.0,13.0,High,6.0
314,High,left,90.0,0.12974412108078393,0.0,14.0,High,6.0
315,High,right,90.0,-0.25726350099508144,0.0,15.0,High,6.0
316,High,left,90.0,2.8269435722890086,1.0,16.0,High,6.0
317,High,left,90.0,3.9146969626946975,0.0,17.0,High,6.0
318,High,right,90.0,2.5454332155224475,1.0,18.0,High,6.0
319,High,right,90.0,0.5734126945152866,0.0,19.0,High,6.0
320,High,right,90.0,-0.9015759215401129,1.0,20.0,High,6.0
321,High,right,90.0,2.9268504214750313,0.0,21.0,High,6.0
322,High,right,90.0,1.336485068778145,1.0,22.0,High,6.0
323,High,right,90.0,2.2133285269597467,0.0,23.0,High,6.0
324,High,left,90.0,1.7274307042976071,0.0,24.0,High,6.0
325,High,left,90.0,3.0861838624437943,1.0,25.0,High,6.0
326,High,right,90.0,-0.7028255823081171,0.0,26.0,High,6.0
327,High,right,90.0,4.402732497745804,1.0,27.0,High,6.0
328,High,right,90.0,1.6571229099793756,1.0,28.0,High,6.0
329,High,right,90.0,-0.9905080919503804,1.0,29.0,High,6.0
330,High,left,90.0,-0.6372397159538505,1.0,30.0,High,6.0
331,High,left,90.0,1.8988185809630165,0.0,31.0,High,6.0
332,High,left,90.0,6.162539216142013,0.0,32.0,High,6.0
333,High,right,90.0,5.988087638063149,0.0,33.0,High,6.0
334,High,left,90.0,3.655225718677528,1.0,34.0,High,6.0
335,High,right,90.0,1.9738487605741977,0.0,35.0,High,6.0
336,High,left,90.0,6.822834574811514,1.0,36.0,High,6.0
337,High,right,90.0,-1.1375702877895706,0.0,37.0,High,6.0
338,High,right,90.0,-1.2626432757651633,1.0,38.0,High,6.0
339,High,left,90.0,2.8950063823416485,0.0,39.0,High,6.0
340,High,left,90.0,3.3337584431732474,0.0,40.0,High,6.0
341,High,left,90.0,1.1440455073559246,0.0,41.0,High,6.0
342,High,right,90.0,3.014113998183226,0.0,42.0,High,6.0
343,High,left,90.0,2.6926113259131603,1.0,43.0,High,6.0
344,High,right,90.0,1.5768769181399616,0.0,44.0,High,6.0
345,High,left,90.0,5.075238374779408,0.0,45.0,High,6.0
346,High,right,90.0,3.400902301939174,1.0,46.0,High,6.0
347,High,right,90.0,3.026807599922865,1.0,47.0,High,6.0
348,High,left,90.0,-0.6279349769761025,0.0,48.0,High,6.0
349,High,right,90.0,1.1875791553141277,1.0,49.0,High,6.0
350,Low,right,60.0,2.548672016564151,1.0,0.0,High,7.0
351,Low,right,60.0,2.6267287623890163,1.0,1.0,High,7.0
352,Low,left,60.0,2.7886215354313633,0.0,2.0,High,7.0
353,Low,left,60.0,3.318043675555267,0.0,3.0,High,7.0
354,Low,left,60.0,1.9248607446826775,1.0,4.0,High,7.0
355,Low,right,60.0,1.0668065898376649,0.0,5.0,High,7.0
356,Low,left,60.0,2.91233879027071,1.0,6.0,High,7.0
357,Low,right,60.0,2.1286457349629377,0.0,7.0,High,7.0
358,Low,left,60.0,-2.083401688360718,1.0,8.0,High,7.0
359,Low,right,60.0,4.577058902255422,0.0,9.0,High,7.0
360,Low,left,60.0,4.031507603411959,0.0,10.0,High,7.0
361,Low,left,60.0,2.81714330128528,0.0,11.0,High,7.0
362,Low,left,60.0,3.9856589724522378,1.0,12.0,High,7.0
363,Low,right,60.0,2.137360317233295,1.0,13.0,High,7.0
364,Low,right,60.0,1.7882775579755135,0.0,14.0,High,7.0
365,Low,left,60.0,2.5008223590540397,1.0,15.0,High,7.0
366,Low,left,60.0,-0.14958514947334378,0.0,16.0,High,7.0
367,Low,left,60.0,4.227992905978841,1.0,17.0,High,7.0
368,Low,right,60.0,6.889129975408634,1.0,18.0,High,7.0
369,Low,right,60.0,2.376472246069861,0.0,19.0,High,7.0
370,Low,right,60.0,0.5723147070304144,0.0,20.0,High,7.0
371,Low,right,60.0,3.5683920581634654,0.0,21.0,High,7.0
372,Low,left,60.0,2.8855965526832232,1.0,22.0,High,7.0
373,Low,right,60.0,1.2734870764002553,1.0,23.0,High,7.0
374,Low,right,60.0,1.5886322323724764,0.0,24.0,High,7.0
375,Low,right,60.0,-0.5041855138578817,1.0,25.0,High,7.0
376,Low,right,60.0,2.192528514042949,0.0,26.0,High,7.0
377,Low,left,60.0,4.394076833373136,1.0,27.0,High,7.0
378,Low,right,60.0,3.134952554178792,0.0,28.0,High,7.0
379,Low,right,60.0,2.1242765735449325,1.0,29.0,High,7.0
380,Low,left,60.0,0.9265095848362839,1.0,30.0,High,7.0
381,Low,right,60.0,1.3998510827456385,0.0,31.0,High,7.0
382,Low,right,60.0,4.067379877309354,1.0,32.0,High,7.0
383,Low,right,60.0,-0.023782684166621326,1.0,33.0,High,7.0
384,Low,left,60.0,4.040770439743956,0.0,34.0,High,7.0
385,Low,left,60.0,-2.37579133291334,1.0,35.0,High,7.0
386,Low,right,60.0,3.717866323685139,0.0,36.0,High,7.0
387,Low,left,60.0,3.4185076409609856,1.0,37.0,High,7.0
388,Low,left,60.0,-0.3593060881906911,1.0,38.0,High,7.0
389,Low,right,60.0,0.3857471384825817,1.0,39.0,High,7.0
390,Low,right,60.0,-0.7238205851427033,0.0,40.0,High,7.0
391,Low,left,60.0,5.279069434489458,1.0,41.0,High,7.0
392,Low,right,60.0,-0.4632622783891258,1.0,42.0,High,7.0
393,Low,left,60.0,6.429404173291518,0.0,43.0,High,7.0
394,Low,left,60.0,2.029670969473898,1.0,44.0,High,7.0
395,Low,left,60.0,2.6028386159617463,0.0,45.0,High,7.0
396,Low,right,60.0,-0.68849790087312,1.0,46.0,High,7.0
397,Low,left,60.0,4.740775198245241,0.0,47.0,High,7.0
398,Low,left,60.0,0.13796204048081773,1.0,48.0,High,7.0
399,Low,right,60.0,3.0362380267340914,0.0,49.0,High,7.0
400,High,right,60.0,4.057155383322375,0.0,0.0,Low,8.0
401,High,right,60.0,0.4168501530940063,1.0,1.0,Low,8.0
402,High,right,60.0,5.722287620000988,1.0,2.0,Low,8.0
403,High,left,60.0,1.6451789547705082,1.0,3.0,Low,8.0
404,High,left,60.0,0.7089986889545412,1.0,4.0,Low,8.0
405,High,right,60.0,0.6820291993012144,0.0,5.0,Low,8.0
406,High,left,60.0,3.39094491350056,1.0,6.0,Low,8.0
407,High,left,60.0,3.819762781593379,0.0,7.0,Low,8.0
408,High,left,60.0,4.386072828982972,1.0,8.0,Low,8.0
409,High,right,60.0,2.4418151001766915,1.0,9.0,Low,8.0
410,High,left,60.0,5.630918530311036,1.0,10.0,Low,8.0
411,High,right,60.0,3.604165452279263,0.0,11.0,Low,8.0
412,High,left,60.0,1.5646322471906209,0.0,12.0,Low,8.0
413,High,right,60.0,1.5309018248450443,0.0,13.0,Low,8.0
414,High,right,60.0,2.6998743128092473,0.0,14.0,Low,8.0
415,High,right,60.0,-2.883036051688854,1.0,15.0,Low,8.0
416,High,right,60.0,1.1280144253482907,1.0,16.0,Low,8.0
417,High,left,60.0,3.188830690035998,1.0,17.0,Low,8.0
418,High,right,60.0,-0.64171594911473,1.0,18.0,Low,8.0
419,High,right,60.0,0.034922089936337386,1.0,19.0,Low,8.0
420,High,left,60.0,2.0098453202507613,0.0,20.0,Low,8.0
421,High,left,60.0,1.2259680429726745,0.0,21.0,Low,8.0
422,High,left,60.0,2.2243719660581487,1.0,22.0,Low,8.0
423,High,left,60.0,0.6643590377650521,0.0,23.0,Low,8.0
424,High,right,60.0,1.4844241919189063,0.0,24.0,Low,8.0
425,High,left,60.0,4.943680821706755,0.0,25.0,Low,8.0
426,High,right,60.0,1.6599803794217474,1.0,26.0,Low,8.0
427,High,left,60.0,4.2419937674241055,1.0,27.0,Low,8.0
428,High,right,60.0,0.58020295667827,0.0,28.0,Low,8.0
429,High,left,60.0,1.3181599411882552,1.0,29.0,Low,8.0
430,High,right,60.0,-0.3450089545301185,1.0,30.0,Low,8.0
431,High,left,60.0,5.070602945767479,1.0,31.0,Low,8.0
432,High,right,60.0,0.9290247359458907,1.0,32.0,Low,8.0
433,High,left,60.0,1.5438122891090105,0.0,33.0,Low,8.0
434,High,right,60.0,-0.21584196139351675,1.0,34.0,Low,8.0
435,High,right,60.0,0.29083689728477236,1.0,35.0,Low,8.0
436,High,left,60.0,1.977153916780013,0.0,36.0,Low,8.0
437,High,left,60.0,0.7206193278788875,0.0,37.0,Low,8.0
438,High,left,60.0,2.4748282109420794,1.0,38.0,Low,8.0
439,High,left,60.0,-1.200087424379209,0.0,39.0,Low,8.0
440,High,left,60.0,-0.7062764852787451,1.0,40.0,Low,8.0
441,High,left,60.0,-0.23829732213264787,1.0,41.0,Low,8.0
442,High,left,60.0,1.4620525980963464,1.0,42.0,Low,8.0
443,High,left,60.0,1.718781258373561,1.0,43.0,Low,8.0
444,High,right,60.0,0.29738379197117104,1.0,44.0,Low,8.0
445,High,left,60.0,4.498369545125723,1.0,45.0,Low,8.0
446,High,left,60.0,2.4645611854670237,0.0,46.0,Low,8.0
447,High,left,60.0,2.490906180183791,1.0,47.0,Low,8.0
448,High,left,60.0,0.6649798207373014,0.0,48.0,Low,8.0
449,High,right,60.0,2.9801445233493142,1.0,49.0,Low,8.0
450,Low,right,90.0,3.443956402150122,0.0,0.0,High,9.0
451,Low,left,90.0,0.7601318517687101,0.0,1.0,High,9.0
452,Low,left,90.0,4.6054087230490435,1.0,2.0,High,9.0
453,Low,left,90.0,6.0065227835033195,0.0,3.0,High,9.0
454,Low,left,90.0,-2.8229898779885545,1.0,4.0,High,9.0
455,Low,right,90.0,-0.31150433058313487,0.0,5.0,High,9.0
456,Low,right,90.0,-0.5502364157348842,0.0,6.0,High,9.0
457,Low,left,90.0,1.4573057072406201,0.0,7.0,High,9.0
458,Low,left,90.0,1.1123326778001206,0.0,8.0,High,9.0
459,Low,right,90.0,-2.551656559041142,0.0,9.0,High,9.0
460,Low,right,90.0,5.974004561418537,1.0,10.0,High,9.0
461,Low,right,90.0,0.39897308731181935,1.0,11.0,High,9.0
462,Low,right,90.0,3.1189135752296964,1.0,12.0,High,9.0
463,Low,right,90.0,2.7679604072020205,1.0,13.0,High,9.0
464,Low,left,90.0,0.10521509618096547,1.0,14.0,High,9.0
465,Low,right,90.0,3.5910919169237725,1.0,15.0,High,9.0
466,Low,right,90.0,0.7193542749698654,0.0,16.0,High,9.0
467,Low,right,90.0,1.9730619886047198,1.0,17.0,High,9.0
468,Low,left,90.0,0.6907846232395678,0.0,18.0,High,9.0
469,Low,left,90.0,5.026782440223422,0.0,19.0,High,9.0
470,Low,left,90.0,1.4037330289339478,0.0,20.0,High,9.0
471,Low,left,90.0,0.7027205279375826,0.0,21.0,High,9.0
472,Low,right,90.0,0.1516651430409457,0.0,22.0,High,9.0
473,Low,right,90.0,-0.4948232922417759,0.0,23.0,High,9.0
474,Low,right,90.0,2.118926955917099,1.0,24.0,High,9.0
475,Low,left,90.0,1.6129351651747295,1.0,25.0,High,9.0
476,Low,left,90.0,4.229507978927135,1.0,26.0,High,9.0
477,Low,right,90.0,8.072527057608196,1.0,27.0,High,9.0
478,Low,right,90.0,2.7338740765411647,0.0,28.0,High,9.0
479,Low,left,90.0,-0.36168927140454654,0.0,29.0,High,9.0
480,Low,right,90.0,3.9764760197892097,1.0,30.0,High,9.0
481,Low,left,90.0,0.21900780123879193,1.0,31.0,High,9.0
482,Low,right,90.0,3.913631457381451,1.0,32.0,High,9.0
483,Low,left,90.0,1.337479166603303,1.0,33.0,High,9.0
484,Low,right,90.0,-3.0663028708115845,1.0,34.0,High,9.0
485,Low,left,90.0,5.003092340680708,0.0,35.0,High,9.0
486,Low,left,90.0,0.34479059756085517,0.0,36.0,High,9.0
487,Low,left,90.0,1.990660820544873,0.0,37.0,High,9.0
488,Low,right,90.0,1.1151682022356044,1.0,38.0,High,9.0
489,Low,right,90.0,4.276596681111478,1.0,39.0,High,9.0
490,Low,left,90.0,1.9972585657153425,0.0,40.0,High,9.0
491,Low,left,90.0,4.055359940582853,0.0,41.0,High,9.0
492,Low,left,90.0,4.7118577232986105,0.0,42.0,High,9.0
493,Low,left,90.0,0.1479265877841347,0.0,43.0,High,9.0
494,Low,right,90.0,3.303733569529974,0.0,44.0,High,9.0
495,Low,right,90.0,0.43282028019918406,0.0,45.0,High,9.0
496,Low,right,90.0,0.6028957186703374,1.0,46.0,High,9.0
497,Low,left,90.0,3.163962259277511,1.0,47.0,High,9.0
498,Low,left,90.0,4.055596112602924,1.0,48.0,High,9.0
499,Low,left,90.0,3.142415874467936,1.0,49.0,High,9.0
500,High,left,90.0,7.114504558255403,1.0,0.0,Low,10.0
501,High,left,90.0,6.284224252155883,0.0,1.0,Low,10.0
502,High,right,90.0,1.3655503642024476,0.0,2.0,Low,10.0
503,High,left,90.0,4.491677209878263,0.0,3.0,Low,10.0
504,High,left,90.0,0.5721781933215431,1.0,4.0,Low,10.0
505,High,right,90.0,4.396675270905698,1.0,5.0,Low,10.0
506,High,right,90.0,3.916984824362059,0.0,6.0,Low,10.0
507,High,left,90.0,4.948955129683355,0.0,7.0,Low,10.0
508,High,left,90.0,0.8204864251927433,1.0,8.0,Low,10.0
509,High,right,90.0,3.581548224505479,1.0,9.0,Low,10.0
510,High,right,90.0,1.659484140139682,0.0,10.0,Low,10.0
511,High,left,90.0,1.3219812050277013,1.0,11.0,Low,10.0
512,High,left,90.0,-1.3979324492615803,1.0,12.0,Low,10.0
513,High,left,90.0,-1.5544950418408066,1.0,13.0,Low,10.0
514,High,left,90.0,2.1859332388225585,1.0,14.0,Low,10.0
515,High,right,90.0,1.8436721161590186,0.0,15.0,Low,10.0
516,High,left,90.0,1.1217804473409334,0.0,16.0,Low,10.0
517,High,left,90.0,7.305181785980057,0.0,17.0,Low,10.0
518,High,right,90.0,2.7339149697077625,0.0,18.0,Low,10.0
519,High,left,90.0,-0.4015693197499859,1.0,19.0,Low,10.0
520,High,right,90.0,2.131352533242296,1.0,20.0,Low,10.0
521,High,right,90.0,-0.9578832535760842,0.0,21.0,Low,10.0
522,High,right,90.0,1.5128944174397063,0.0,22.0,Low,10.0
523,High,left,90.0,4.233584321006937,1.0,23.0,Low,10.0
524,High,left,90.0,1.3487432052534445,1.0,24.0,Low,10.0
525,High,left,90.0,-2.229795304811983,0.0,25.0,Low,10.0
526,High,right,90.0,0.7936824939491416,0.0,26.0,Low,10.0
527,High,left,90.0,2.5944968288457115,0.0,27.0,Low,10.0
528,High,right,90.0,2.712676038692863,1.0,28.0,Low,10.0
529,High,left,90.0,3.6172479928311683,0.0,29.0,Low,10.0
530,High,left,90.0,1.0485702840455975,1.0,30.0,Low,10.0
531,High,right,90.0,4.0471887815613865,0.0,31.0,Low,10.0
532,High,left,90.0,1.508030104910382,1.0,32.0,Low,10.0
533,High,left,90.0,2.049637391157081,0.0,33.0,Low,10.0
534,High,left,90.0,2.8983705316685477,1.0,34.0,Low,10.0
535,High,right,90.0,6.653974630963023,1.0,35.0,Low,10.0
536,High,right,90.0,4.703515846831177,1.0,36.0,Low,10.0
537,High,right,90.0,2.480402945840269,1.0,37.0,Low,10.0
538,High,right,90.0,3.643208086964745,1.0,38.0,Low,10.0
539,High,right,90.0,1.8711338634317498,1.0,39.0,Low,10.0
540,High,left,90.0,4.880564662687545,0.0,40.0,Low,10.0
541,High,left,90.0,2.643756417174324,0.0,41.0,Low,10.0
542,High,left,90.0,5.1962423941245355,1.0,42.0,Low,10.0
543,High,left,90.0,3.856336987141676,1.0,43.0,Low,10.0
544,High,right,90.0,2.669496492490317,1.0,44.0,Low,10.0
545,High,left,90.0,-1.9243137213969632,0.0,45.0,Low,10.0
546,High,left,90.0,-1.7528060895109048,0.0,46.0,Low,10.0
547,High,right,90.0,1.8489186726513112,0.0,47.0,Low,10.0
548,High,left,90.0,2.8298949404491016,0.0,48.0,Low,10.0
549,High,left,90.0,0.4386230600637844,1.0,49.0,Low,10.0
550,Low,right,90.0,3.874172410327842,0.0,0.0,Low,11.0
551,Low,left,90.0,-3.6809977218298875,1.0,1.0,Low,11.0
552,Low,left,90.0,-2.837211338667629,1.0,2.0,Low,11.0
553,Low,left,90.0,0.3380481243699527,1.0,3.0,Low,11.0
554,Low,right,90.0,5.240681396188773,1.0,4.0,Low,11.0
555,Low,left,90.0,2.134964480358474,1.0,5.0,Low,11.0
556,Low,left,90.0,2.921576777384862,0.0,6.0,Low,11.0
557,Low,left,90.0,2.7798626421644843,0.0,7.0,Low,11.0
558,Low,right,90.0,1.5081106891381202,0.0,8.0,Low,11.0
559,Low,left,90.0,0.8598831284431352,1.0,9.0,Low,11.0
560,Low,left,90.0,0.1345658741971738,1.0,10.0,Low,11.0
561,Low,left,90.0,3.715269701032545,1.0,11.0,Low,11.0
562,Low,right,90.0,3.0725820262780603,0.0,12.0,Low,11.0
563,Low,left,90.0,3.0994493841203212,0.0,13.0,Low,11.0
564,Low,left,90.0,2.2201996673539757,1.0,14.0,Low,11.0
565,Low,right,90.0,4.576024901111195,1.0,15.0,Low,11.0
566,Low,right,90.0,3.184546473410942,0.0,16.0,Low,11.0
567,Low,right,90.0,0.7330844865893875,0.0,17.0,Low,11.0
568,Low,right,90.0,1.822764647448983,1.0,18.0,Low,11.0
569,Low,right,90.0,-1.2413574280726811,1.0,19.0,Low,11.0
570,Low,right,90.0,-2.291839610093753,1.0,20.0,Low,11.0
571,Low,left,90.0,-1.1076762287314164,0.0,21.0,Low,11.0
572,Low,right,90.0,6.053978165621091,0.0,22.0,Low,11.0
573,Low,left,90.0,3.396312157270116,1.0,23.0,Low,11.0
574,Low,right,90.0,0.008393702226529909,1.0,24.0,Low,11.0
575,Low,left,90.0,0.6901989288705446,1.0,25.0,Low,11.0
576,Low,left,90.0,2.6276574711960894,0.0,26.0,Low,11.0
577,Low,left,90.0,5.094579041103694,1.0,27.0,Low,11.0
578,Low,left,90.0,1.574531111159244,1.0,28.0,Low,11.0
579,Low,left,90.0,2.062115627332189,1.0,29.0,Low,11.0
580,Low,right,90.0,-0.05540205648562502,1.0,30.0,Low,11.0
581,Low,right,90.0,1.5710337519743827,0.0,31.0,Low,11.0
582,Low,right,90.0,2.2467070409701337,0.0,32.0,Low,11.0
583,Low,right,90.0,4.106621973578544,1.0,33.0,Low,11.0
584,Low,right,90.0,0.965303366633739,1.0,34.0,Low,11.0
585,Low,left,90.0,-0.30772857006637633,1.0,35.0,Low,11.0
586,Low,left,90.0,1.298043914615808,1.0,36.0,Low,11.0
587,Low,right,90.0,-1.3633383066944584,1.0,37.0,Low,11.0
588,Low,right,90.0,-1.2803362160571932,0.0,38.0,Low,11.0
589,Low,right,90.0,-1.185934945726042,1.0,39.0,Low,11.0
590,Low,left,90.0,-0.25350445982128567,1.0,40.0,Low,11.0
591,Low,right,90.0,6.227242691961227,0.0,41.0,Low,11.0
592,Low,right,90.0,2.1196083357475892,0.0,42.0,Low,11.0
593,Low,left,90.0,-1.1584586303933175,0.0,43.0,Low,11.0
594,Low,left,90.0,-1.56498542044235,0.0,44.0,Low,11.0
595,Low,right,90.0,4.370042210634278,1.0,45.0,Low,11.0
596,Low,left,90.0,4.111130378528901,0.0,46.0,Low,11.0
597,Low,right,90.0,0.8944678064599565,0.0,47.0,Low,11.0
598,Low,left,90.0,4.505558204147646,0.0,48.0,Low,11.0
599,Low,right,90.0,-0.22089079854225568,1.0,49.0,Low,11.0
