,Arousal,KeyPressed,LearningTime,RT,Response,TrialNumber,Valence,nBlock
0,High,right,30.0,3.6323398568885654,1.0,0.0,Low,0.0
1,High,left,30.0,-2.1866071249986723,1.0,1.0,Low,0.0
2,High,left,30.0,3.1166250917714535,1.0,2.0,Low,0.0
3,High,right,30.0,4.364670941400901,0.0,3.0,Low,0.0
4,High,left,30.0,-3.7699174767579837,0.0,4.0,Low,0.0
5,High,left,30.0,3.7186966741489913,0.0,5.0,Low,0.0
6,High,left,30.0,2.55953945522947,0.0,6.0,Low,0.0
7,High,right,30.0,0.19775433040505952,1.0,7.0,Low,0.0
8,High,left,30.0,2.359385080798754,0.0,8.0,Low,0.0
9,High,right,30.0,3.207192447492676,1.0,9.0,Low,0.0
10,High,left,30.0,3.95801507479635,1.0,10.0,Low,0.0
11,High,right,30.0,0.1161183146872844,0.0,11.0,Low,0.0
12,High,right,30.0,1.1842362290074608,0.0,12.0,Low,0.0
13,High,right,30.0,-0.4746275266322111,1.0,13.0,Low,0.0
14,High,right,30.0,3.25236327224036,1.0,14.0,Low,0.0
15,High,right,30.0,2.8401958439520256,0.0,15.0,Low,0.0
16,High,left,30.0,0.9034543712900354,0.0,16.0,Low,0.0
17,High,right,30.0,-0.9688693816179956,0.0,17.0,Low,0.0
18,High,left,30.0,2.0409259113207634,0.0,18.0,Low,0.0
19,High,right,30.0,-0.832802855054684,1.0,19.0,Low,0.0
20,High,right,30.0,2.633990155883274,0.0,20.0,Low,0.0
21,High,left,30.0,1.6453991292292218,0.0,21.0,Low,0.0
22,High,left,30.0,3.0105044711165028,1.0,22.0,Low,0.0
23,High,left,30.0,2.534040162165406,0.0,23.0,Low,0.0
24,High,left,30.0,6.944177888462034,0.0,24.0,Low,0.0
25,High,right,30.0,0.3745069271246856,1.0,25.0,Low,0.0
26,High,left,30.0,4.44948008968363,1.0,26.0,Low,0.0
27,High,left,30.0,2.1599614778640053,1.0,27.0,Low,0.0
28,High,left,30.0,-1.4285452226435478,1.0,28.0,Low,0.0
29,High,right,30.0,0.9710775179948025,1.0,29.0,Low,0.0
30,High,left,30.0,7.4430066101063375,1.0,30.0,Low,0.0
31,High,right,30.0,0.8748557037025819,0.0,31.0,Low,0.0
32,High,right,30.0,2.67533780665593,1.0,32.0,Low,0.0
33,High,right,30.0,3.6144642104803126,1.0,33.0,Low,0.0
34,High,right,30.0,0.27824985950870684,0.0,34.0,Low,0.0
35,High,left,30.0,0.8789007908508618,1.0,35.0,Low,0.0
36,High,right,30.0,2.973907157692254,0.0,36.0,Low,0.0
37,High,left,30.0,4.779717503168024,0.0,37.0,Low,0.0
38,High,left,30.0,2.6802367002095715,1.0,38.0,Low,0.0
39,High,left,30.0,-1.1271254901891847,0.0,39.0,Low,0.0
40,High,right,30.0,-1.0060981450080342,1.0,40.0,Low,0.0
41,High,left,30.0,1.6731999090322152,1.0,41.0,Low,0.0
42,High,left,30.0,4.34107544860437,0.0,42.0,Low,0.0
43,High,right,30.0,4.307433717302026,0.0,43.0,Low,0.0
44,High,left,30.0,4.279428711559463,1.0,44.0,Low,0.0
45,High,right,30.0,4.027643897707754,0.0,45.0,Low,0.0
46,High,right,30.0,1.8046439976517514,0.0,46.0,Low,0.0
47,High,left,30.0,0.38207123101716434,0.0,47.0,Low,0.0
48,High,right,30.0,-1.6962556429523117,1.0,48.0,Low,0.0
49,High,right,30.0,-0.08795379132713066,0.0,49.0,Low,0.0
50,Low,right,30.0,0.4024451984892161,1.0,0.0,Low,1.0
51,Low,right,30.0,-3.341318478602085,0.0,1.0,Low,1.0
52,Low,right,30.0,-1.692379250661476,1.0,2.0,Low,1.0
53,Low,right,30.0,0.20105061201192487,1.0,3.0,Low,1.0
54,Low,right,30.0,3.919833427563555,1.0,4.0,Low,1.0
55,Low,left,30.0,1.735724032403004,1.0,5.0,Low,1.0
56,Low,left,30.0,1.9684157076463265,1.0,6.0,Low,1.0
57,Low,left,30.0,2.969021760732862,1.0,7.0,Low,1.0
58,Low,left,30.0,3.2539482368572283,1.0,8.0,Low,1.0
59,Low,left,30.0,3.405303059574921,1.0,9.0,Low,1.0
60,Low,left,30.0,4.367573640137181,0.0,10.0,Low,1.0
61,Low,left,30.0,0.26693054727531473,0.0,11.0,Low,1.0
62,Low,right,30.0,2.626110542667055,0.0,12.0,Low,1.0
63,Low,left,30.0,1.8570425746610275,0.0,13.0,Low,1.0
64,Low,left,30.0,1.772076177373675,0.0,14.0,Low,1.0
65,Low,right,30.0,2.7953491477973818,0.0,15.0,Low,1.0
66,Low,right,30.0,5.942864182638356,1.0,16.0,Low,1.0
67,Low,right,30.0,3.066540298819467,0.0,17.0,Low,1.0
68,Low,left,30.0,1.2194361722499831,0.0,18.0,Low,1.0
69,Low,right,30.0,0.838123722740941,0.0,19.0,Low,1.0
70,Low,right,30.0,-1.9003175944610784,1.0,20.0,Low,1.0
71,Low,right,30.0,4.2564022878231125,0.0,21.0,Low,1.0
72,Low,right,30.0,2.0587910449960445,1.0,22.0,Low,1.0
73,Low,left,30.0,-1.414758718589386,0.0,23.0,Low,1.0
74,Low,right,30.0,0.911672687169991,1.0,24.0,Low,1.0
75,Low,right,30.0,0.7033617371009424,0.0,25.0,Low,1.0
76,Low,right,30.0,5.720758327335761,0.0,26.0,Low,1.0
77,Low,left,30.0,1.9792489730594935,1.0,27.0,Low,1.0
78,Low,right,30.0,1.6839562909704378,1.0,28.0,Low,1.0
79,Low,left,30.0,3.729473146975359,1.0,29.0,Low,1.0
80,Low,left,30.0,5.295743775661741,0.0,30.0,Low,1.0
81,Low,left,30.0,4.106665088998859,1.0,31.0,Low,1.0
82,Low,right,30.0,5.466135118441537,0.0,32.0,Low,1.0
83,Low,left,30.0,-1.36023062239672,1.0,33.0,Low,1.0
84,Low,left,30.0,3.0028040305346693,1.0,34.0,Low,1.0
85,Low,left,30.0,5.620200604906899,0.0,35.0,Low,1.0
86,Low,right,30.0,-0.1539423104099742,1.0,36.0,Low,1.0
87,Low,right,30.0,0.6693709223147153,0.0,37.0,Low,1.0
88,Low,right,30.0,4.865741357669078,0.0,38.0,Low,1.0
89,Low,right,30.0,1.5339861579934955,1.0,39.0,Low,1.0
90,Low,left,30.0,3.2444033380207022,0.0,40.0,Low,1.0
91,Low,left,30.0,2.1250230011415185,0.0,41.0,Low,1.0
92,Low,right,30.0,1.9942930369057223,0.0,42.0,Low,1.0
93,Low,left,30.0,-0.008022304668333202,1.0,43.0,Low,1.0
94,Low,left,30.0,2.2283561053641376,0.0,44.0,Low,1.0
95,Low,right,30.0,3.434395570932005,1.0,45.0,Low,1.0
96,Low,right,30.0,1.31284784523741,1.0,46.0,Low,1.0
97,Low,right,30.0,3.9793602577930107,1.0,47.0,Low,1.0
98,Low,right,30.0,4.394065002537618,0.0,48.0,Low,1.0
99,Low,left,30.0,-3.142260524298798,1.0,49.0,Low,1.0
100,High,right,30.0,0.6973469260325735,0.0,0.0,High,2.0
101,High,left,30.0,2.231865955090071,0.0,1.0,High,2.0
102,High,left,30.0,1.7466255249694909,1.0,2.0,High,2.0
103,High,left,30.0,3.9882326604339866,1.0,3.0,High,2.0
104,High,left,30.0,3.76350709571635,0.0,4.0,High,2.0
105,High,left,30.0,0.6450629355198056,0.0,5.0,High,2.0
106,High,right,30.0,2.9224365423343057,1.0,6.0,High,2.0
107,High,right,30.0,2.690763093113806,1.0,7.0,High,2.0
108,High,right,30.0,1.4288852378690362,1.0,8.0,High,2.0
109,High,right,30.0,-0.1829679261684216,1.0,9.0,High,2.0
110,High,left,30.0,2.565106960437947,1.0,10.0,High,2.0
111,High,right,30.0,2.0721532185898703,0.0,11.0,High,2.0
112,High,left,30.0,1.9271453926311408,0.0,12.0,High,2.0
113,High,left,30.0,5.7849533930177675,0.0,13.0,High,2.0
114,High,right,30.0,3.1492814800142748,1.0,14.0,High,2.0
115,High,left,30.0,1.4192310768108096,1.0,15.0,High,2.0
116,High,right,30.0,5.21715867372756,0.0,16.0,High,2.0
117,High,right,30.0,4.206958663872441,1.0,17.0,High,2.0
118,High,left,30.0,4.9680298504839575,1.0,18.0,High,2.0
119,High,left,30.0,-1.2169194211177077,1.0,19.0,High,2.0
120,High,left,30.0,2.673884130096934,1.0,20.0,High,2.0
121,High,right,30.0,0.5334006660793622,0.0,21.0,High,2.0
122,High,left,30.0,-0.47220842803232177,0.0,22.0,High,2.0
123,High,right,30.0,0.9340332173926993,0.0,23.0,High,2.0
124,High,right,30.0,-0.5244782692544336,1.0,24.0,High,2.0
125,High,left,30.0,2.2667850534943965,0.0,25.0,High,2.0
126,High,right,30.0,3.5433406290541307,1.0,26.0,High,2.0
127,High,right,30.0,0.5820212299352254,0.0,27.0,High,2.0
128,High,right,30.0,-3.0016318194423954,0.0,28.0,High,2.0
129,High,left,30.0,2.8518890925737095,0.0,29.0,High,2.0
130,High,left,30.0,0.6904785533905109,0.0,30.0,High,2.0
131,High,left,30.0,1.479459940747025,1.0,31.0,High,2.0
132,High,left,30.0,2.044681468903226,0.0,32.0,High,2.0
133,High,left,30.0,1.3885265574805516,1.0,33.0,High,2.0
134,High,left,30.0,1.4061643409248363,0.0,34.0,High,2.0
135,High,left,30.0,0.3061329150465224,1.0,35.0,High,2.0
136,High,right,30.0,5.243836272099448,0.0,36.0,High,2.0
137,High,left,30.0,2.316941428685036,1.0,37.0,High,2.0
138,High,right,30.0,3.4945086082911976,1.0,38.0,High,2.0
139,High,right,30.0,1.1778205813993405,0.0,39.0,High,2.0
140,High,right,30.0,4.8784018024105755,0.0,40.0,High,2.0
141,High,right,30.0,-2.8841379994018603,1.0,41.0,High,2.0
142,High,left,30.0,1.4123806239129968,0.0,42.0,High,2.0
143,High,right,30.0,2.378881625693804,1.0,43.0,High,2.0
144,High,left,30.0,3.360871514068145,1.0,44.0,High,2.0
145,High,right,30.0,2.700085013897802,0.0,45.0,High,2.0
146,High,right,30.0,4.496803533056151,1.0,46.0,High,2.0
147,High,left,30.0,6.149610475408407,1.0,47.0,High,2.0
148,High,left,30.0,2.7517874177800543,1.0,48.0,High,2.0
149,High,left,30.0,4.131496026063398,1.0,49.0,High,2.0
150,Low,left,60.0,1.6246587761590483,0.0,0.0,Low,3.0
151,Low,left,60.0,6.1317482969443,1.0,1.0,Low,3.0
152,Low,left,60.0,1.604680087202847,0.0,2.0,Low,3.0
153,Low,right,60.0,3.8152997328405434,1.0,3.0,Low,3.0
154,Low,right,60.0,1.0093634201624009,1.0,4.0,Low,3.0
155,Low,left,60.0,2.4300114578858594,0.0,5.0,Low,3.0
156,Low,right,60.0,2.612258896935887,1.0,6.0,Low,3.0
157,Low,right,60.0,3.3507551599335565,1.0,7.0,Low,3.0
158,Low,right,60.0,4.662851854282751,1.0,8.0,Low,3.0
159,Low,right,60.0,5.017150440532091,1.0,9.0,Low,3.0
160,Low,left,60.0,-0.5258716300002715,1.0,10.0,Low,3.0
161,Low,right,60.0,2.31447050916758,0.0,11.0,Low,3.0
162,Low,left,60.0,-0.729394223150921,1.0,12.0,Low,3.0
163,Low,left,60.0,1.6298987986919395,1.0,13.0,Low,3.0
164,Low,right,60.0,1.3639369964962174,0.0,14.0,Low,3.0
165,Low,right,60.0,0.43996254778666,0.0,15.0,Low,3.0
166,Low,left,60.0,0.2983024573318698,1.0,16.0,Low,3.0
167,Low,left,60.0,0.4283916208838603,0.0,17.0,Low,3.0
168,Low,right,60.0,-1.4882321320937892,0.0,18.0,Low,3.0
169,Low,left,60.0,-2.967497747229923,0.0,19.0,Low,3.0
170,Low,left,60.0,0.06335412633476167,0.0,20.0,Low,3.0
171,Low,right,60.0,2.1017873657841855,0.0,21.0,Low,3.0
172,Low,left,60.0,-1.1267763945953373,0.0,22.0,Low,3.0
173,Low,right,60.0,3.256145857092652,1.0,23.0,Low,3.0
174,Low,left,60.0,0.5835436194892862,0.0,24.0,Low,3.0
175,Low,left,60.0,-0.3866093633194021,0.0,25.0,Low,3.0
176,Low,left,60.0,5.324224407804845,1.0,26.0,Low,3.0
177,Low,right,60.0,0.07473585511442238,0.0,27.0,Low,3.0
178,Low,right,60.0,2.086808617513387,1.0,28.0,Low,3.0
179,Low,left,60.0,-0.8621642817827384,0.0,29.0,Low,3.0
180,Low,left,60.0,-1.2100064853245855,1.0,30.0,Low,3.0
181,Low,right,60.0,2.258039618569903,0.0,31.0,Low,3.0
182,Low,left,60.0,-0.026648972944997018,1.0,32.0,Low,3.0
183,Low,left,60.0,-0.3161157594214883,1.0,33.0,Low,3.0
184,Low,right,60.0,4.725283976178861,0.0,34.0,Low,3.0
185,Low,right,60.0,-1.2212256251550435,0.0,35.0,Low,3.0
186,Low,right,60.0,0.7758478499472952,0.0,36.0,Low,3.0
187,Low,left,60.0,-0.6199656450965461,0.0,37.0,Low,3.0
188,Low,right,60.0,-2.322848413476021,1.0,38.0,Low,3.0
189,Low,right,60.0,1.2947484007632224,1.0,39.0,Low,3.0
190,Low,left,60.0,2.2386143337053284,1.0,40.0,Low,3.0
191,Low,right,60.0,3.0246877159139114,1.0,41.0,Low,3.0
192,Low,right,60.0,3.567110229990612,1.0,42.0,Low,3.0
193,Low,left,60.0,0.7392830038315266,0.0,43.0,Low,3.0
194,Low,left,60.0,2.740945472215163,1.0,44.0,Low,3.0
195,Low,right,60.0,2.825271315365693,0.0,45.0,Low,3.0
196,Low,right,60.0,4.069819157990775,0.0,46.0,Low,3.0
197,Low,right,60.0,1.0382801899448166,1.0,47.0,Low,3.0
198,Low,left,60.0,1.6716146829847396,0.0,48.0,Low,3.0
199,Low,left,60.0,3.361897801821652,0.0,49.0,Low,3.0
200,High,left,60.0,2.471428009052887,0.0,0.0,Low,4.0
201,High,right,60.0,4.08327802400114,1.0,1.0,Low,4.0
202,High,right,60.0,3.386764974960281,0.0,2.0,Low,4.0
203,High,left,60.0,0.28464884526745227,1.0,3.0,Low,4.0
204,High,left,60.0,0.6865279106751947,0.0,4.0,Low,4.0
205,High,left,60.0,0.5882353123902992,1.0,5.0,Low,4.0
206,High,left,60.0,3.8079761899952933,1.0,6.0,Low,4.0
207,High,right,60.0,-0.9941909590038314,1.0,7.0,Low,4.0
208,High,right,60.0,2.7480963488416936,1.0,8.0,Low,4.0
209,High,right,60.0,3.4676344393107437,0.0,9.0,Low,4.0
210,High,right,60.0,3.3752051644669026,0.0,10.0,Low,4.0
211,High,left,60.0,2.35456779911625,1.0,11.0,Low,4.0
212,High,right,60.0,1.8519693205914323,1.0,12.0,Low,4.0
213,High,right,60.0,1.8638382110111014,1.0,13.0,Low,4.0
214,High,left,60.0,3.0090664175789565,1.0,14.0,Low,4.0
215,High,right,60.0,4.06950847006178,1.0,15.0,Low,4.0
216,High,left,60.0,6.530560815559875,0.0,16.0,Low,4.0
217,High,right,60.0,0.2595737410263337,1.0,17.0,Low,4.0
218,High,left,60.0,2.2988618739828124,0.0,18.0,Low,4.0
219,High,left,60.0,6.253148495712658,1.0,19.0,Low,4.0
220,High,left,60.0,3.9997192900024374,0.0,20.0,Low,4.0
221,High,right,60.0,6.108203460852277,1.0,21.0,Low,4.0
222,High,right,60.0,4.361565385284203,0.0,22.0,Low,4.0
223,High,left,60.0,4.644022941404042,1.0,23.0,Low,4.0
224,High,right,60.0,3.783267514657685,0.0,24.0,Low,4.0
225,High,left,60.0,5.811656974714735,0.0,25.0,Low,4.0
226,High,right,60.0,-0.06305124331219014,0.0,26.0,Low,4.0
227,High,left,60.0,3.565982725228578,0.0,27.0,Low,4.0
228,High,right,60.0,3.205066064521799,0.0,28.0,Low,4.0
229,High,right,60.0,2.977938789467917,1.0,29.0,Low,4.0
230,High,left,60.0,0.4611155903138302,1.0,30.0,Low,4.0
231,High,right,60.0,-0.31116039865848455,0.0,31.0,Low,4.0
232,High,right,60.0,2.333929907091658,0.0,32.0,Low,4.0
233,High,left,60.0,4.464876040239279,0.0,33.0,Low,4.0
234,High,left,60.0,2.3015616183672276,1.0,34.0,Low,4.0
235,High,right,60.0,2.969244859309189,1.0,35.0,Low,4.0
236,High,right,60.0,-0.11400617681140357,1.0,36.0,Low,4.0
237,High,right,60.0,1.950972755086768,1.0,37.0,Low,4.0
238,High,left,60.0,3.6631325031251114,1.0,38.0,Low,4.0
239,High,left,60.0,3.0265921965616855,0.0,39.0,Low,4.0
240,High,left,60.0,4.803366224977095,0.0,40.0,Low,4.0
241,High,left,60.0,3.2327040796561546,1.0,41.0,Low,4.0
242,High,left,60.0,3.181453921841144,0.0,42.0,Low,4.0
243,High,left,60.0,2.1995178829529793,0.0,43.0,Low,4.0
244,High,left,60.0,-0.3311455413237785,1.0,44.0,Low,4.0
245,High,right,60.0,-0.4538827742879994,0.0,45.0,Low,4.0
246,High,left,60.0,0.9862378505782311,1.0,46.0,Low,4.0
247,High,right,60.0,-0.39574406312728216,1.0,47.0,Low,4.0
248,High,left,60.0,2.1260436149535735,1.0,48.0,Low,4.0
249,High,left,60.0,0.8282945401714699,1.0,49.0,Low,4.0
250,Low,right,90.0,3.971341138277114,0.0,0.0,Low,5.0
251,Low,right,90.0,3.8542155947544705,0.0,1.0,Low,5.0
252,Low,left,90.0,0.9465562812456916,1.0,2.0,Low,5.0
253,Low,left,90.0,1.1721867688801522,1.0,3.0,Low,5.0
254,Low,left,90.0,0.926972743120475,1.0,4.0,Low,5.0
255,Low,right,90.0,1.760303216808587,0.0,5.0,Low,5.0
256,Low,right,90.0,2.548046525324456,0.0,6.0,Low,5.0
257,Low,left,90.0,4.479124616635067,1.0,7.0,Low,5.0
258,Low,left,90.0,3.701440569489178,1.0,8.0,Low,5.0
259,Low,left,90.0,3.1172704072871307,1.0,9.0,Low,5.0
260,Low,right,90.0,1.1708901730034094,0.0,10.0,Low,5.0
261,Low,right,90.0,3.2029256319185078,0.0,11.0,Low,5.0
262,Low,left,90.0,-0.4672719663869531,1.0,12.0,Low,5.0
263,Low,right,90.0,2.3265222679308324,0.0,13.0,Low,5.0
264,Low,right,90.0,4.285993035152203,0.0,14.0,Low,5.0
265,Low,right,90.0,-0.11153184655049797,1.0,15.0,Low,5.0
266,Low,right,90.0,2.218885567393432,1.0,16.0,Low,5.0
267,Low,right,90.0,0.6514107794247019,1.0,17.0,Low,5.0
268,Low,left,90.0,0.6701997257040948,0.0,18.0,Low,5.0
269,Low,left,90.0,1.5825393969127408,0.0,19.0,Low,5.0
270,Low,right,90.0,1.4291168794842557,0.0,20.0,Low,5.0
271,Low,left,90.0,3.1759722989555454,1.0,21.0,Low,5.0
272,Low,left,90.0,-0.04741688357193219,1.0,22.0,Low,5.0
273,Low,left,90.0,1.112425891626997,0.0,23.0,Low,5.0
274,Low,right,90.0,0.7952731701978577,1.0,24.0,Low,5.0
275,Low,right,90.0,-2.297763536246138,1.0,25.0,Low,5.0
276,Low,left,90.0,0.6677017824849769,0.0,26.0,Low,5.0
277,Low,right,90.0,0.2298269420951098,0.0,27.0,Low,5.0
278,Low,right,90.0,3.592653402431411,0.0,28.0,Low,5.0
279,Low,left,90.0,5.265317343022802,1.0,29.0,Low,5.0
280,Low,left,90.0,5.263671534120935,0.0,30.0,Low,5.0
281,Low,left,90.0,2.1709663823834147,1.0,31.0,Low,5.0
282,Low,left,90.0,1.9220717816578814,0.0,32.0,Low,5.0
283,Low,left,90.0,2.503295100699565,1.0,33.0,Low,5.0
284,Low,right,90.0,3.894242852894883,1.0,34.0,Low,5.0
285,Low,right,90.0,2.8703094169759757,1.0,35.0,Low,5.0
286,Low,right,90.0,3.808986875749068,0.0,36.0,Low,5.0
287,Low,right,90.0,-1.9408136273199674,0.0,37.0,Low,5.0
288,Low,left,90.0,2.9095681255944927,0.0,38.0,Low,5.0
289,Low,left,90.0,2.7466916429894286,0.0,39.0,Low,5.0
290,Low,right,90.0,1.2119580204310647,1.0,40.0,Low,5.0
291,Low,left,90.0,2.568016936703142,0.0,41.0,Low,5.0
292,Low,left,90.0,2.0520737954719945,0.0,42.0,Low,5.0
293,Low,left,90.0,0.2176097513471893,1.0,43.0,Low,5.0
294,Low,right,90.0,3.89648104702043,0.0,44.0,Low,5.0
295,Low,right,90.0,-1.2526525156557378,1.0,45.0,Low,5.0
296,Low,left,90.0,2.286875904964047,1.0,46.0,Low,5.0
297,Low,left,90.0,3.012363673713157,0.0,47.0,Low,5.0
298,Low,right,90.0,4.589160719410327,1.0,48.0,Low,5.0
299,Low,right,90.0,3.6555836117866987,1.0,49.0,Low,5.0
300,High,right,90.0,2.5209907753566667,0.0,0.0,Low,6.0
301,High,left,90.0,2.5428507709595713,1.0,1.0,Low,6.0
302,High,right,90.0,2.7957738330223645,0.0,2.0,Low,6.0
303,High,right,90.0,1.760608104964855,0.0,3.0,Low,6.0
304,High,right,90.0,-0.08515613867394789,1.0,4.0,Low,6.0
305,High,right,90.0,3.373450032899634,1.0,5.0,Low,6.0
306,High,right,90.0,2.3523445079395797,1.0,6.0,Low,6.0
307,High,left,90.0,3.478435434540128,0.0,7.0,Low,6.0
308,High,right,90.0,-0.3851818476765021,0.0,8.0,Low,6.0
309,High,left,90.0,0.46081013927883374,0.0,9.0,Low,6.0
310,High,left,90.0,3.060704201452946,1.0,10.0,Low,6.0
311,High,left,90.0,4.56211770689512,1.0,11.0,Low,6.0
312,High,right,90.0,-0.04255616466848444,0.0,12.0,Low,6.0
313,High,right,90.0,1.514376287572703,1.0,13.0,Low,6.0
314,High,right,90.0,2.3213610847426027,0.0,14.0,Low,6.0
315,High,left,90.0,1.9037719844909922,0.0,15.0,Low,6.0
316,High,right,90.0,3.5000604629490844,1.0,16.0,Low,6.0
317,High,right,90.0,0.11927943042472844,0.0,17.0,Low,6.0
318,High,right,90.0,3.581751169629295,0.0,18.0,Low,6.0
319,High,right,90.0,1.7017578106400697,0.0,19.0,Low,6.0
320,High,right,90.0,-0.2251199244796127,1.0,20.0,Low,6.0
321,High,left,90.0,5.232194885367692,1.0,21.0,Low,6.0
322,High,left,90.0,-0.7712569275964469,0.0,22.0,Low,6.0
323,High,left,90.0,3.7017712832862735,1.0,23.0,Low,6.0
324,High,right,90.0,1.8797436878970601,1.0,24.0,Low,6.0
325,High,right,90.0,0.5791490075694663,1.0,25.0,Low,6.0
326,High,left,90.0,5.7241217544613905,1.0,26.0,Low,6.0
327,High,right,90.0,1.0318685519285342,1.0,27.0,Low,6.0
328,High,left,90.0,4.309110742114165,0.0,28.0,Low,6.0
329,High,right,90.0,5.070089506823557,1.0,29.0,Low,6.0
330,High,right,90.0,4.281669960980887,0.0,30.0,Low,6.0
331,High,right,90.0,0.3765249523072658,1.0,31.0,Low,6.0
332,High,right,90.0,1.8033402846382125,0.0,32.0,Low,6.0
333,High,left,90.0,2.0446722885874444,1.0,33.0,Low,6.0
334,High,left,90.0,3.168544533847461,1.0,34.0,Low,6.0
335,High,right,90.0,2.438646305700574,0.0,35.0,Low,6.0
336,High,right,90.0,2.140325489962359,1.0,36.0,Low,6.0
337,High,right,90.0,1.0898276117792098,0.0,37.0,Low,6.0
338,High,left,90.0,0.8166185845612839,0.0,38.0,Low,6.0
339,High,right,90.0,0.7015290896527867,1.0,39.0,Low,6.0
340,High,left,90.0,0.5668835171802382,1.0,40.0,Low,6.0
341,High,right,90.0,2.4567167021325655,0.0,41.0,Low,6.0
342,High,right,90.0,1.9795430467898687,0.0,42.0,Low,6.0
343,High,left,90.0,0.8125581606251997,1.0,43.0,Low,6.0
344,High,left,90.0,3.878265585365611,1.0,44.0,Low,6.0
345,High,right,90.0,1.0761489551638428,0.0,45.0,Low,6.0
346,High,left,90.0,1.076523227555569,0.0,46.0,Low,6.0
347,High,right,90.0,0.1835711248061931,1.0,47.0,Low,6.0
348,High,right,90.0,4.070609523938531,1.0,48.0,Low,6.0
349,High,right,90.0,0.9997143878287071,1.0,49.0,Low,6.0
350,Low,left,30.0,0.8067865499536007,0.0,0.0,High,7.0
351,Low,right,30.0,1.0495866478850517,0.0,1.0,High,7.0
352,Low,left,30.0,-2.5161487662579916,1.0,2.0,High,7.0
353,Low,left,30.0,3.5900150404712887,1.0,3.0,High,7.0
354,Low,right,30.0,6.375830134618116,1.0,4.0,High,7.0
355,Low,left,30.0,2.967708483257497,0.0,5.0,High,7.0
356,Low,right,30.0,0.19543252223229213,0.0,6.0,High,7.0
357,Low,left,30.0,2.69910782876981,0.0,7.0,High,7.0
358,Low,right,30.0,-0.1740388022469066,0.0,8.0,High,7.0
359,Low,left,30.0,2.583727319712924,0.0,9.0,High,7.0
360,Low,left,30.0,-1.1217257101661364,0.0,10.0,High,7.0
361,Low,right,30.0,1.7253746292441852,1.0,11.0,High,7.0
362,Low,left,30.0,-1.1217629856737474,0.0,12.0,High,7.0
363,Low,left,30.0,2.134524354513128,0.0,13.0,High,7.0
364,Low,right,30.0,3.937234322127771,1.0,14.0,High,7.0
365,Low,right,30.0,0.09382545055697689,1.0,15.0,High,7.0
366,Low,left,30.0,3.5066518014565498,1.0,16.0,High,7.0
367,Low,right,30.0,-0.565047406484023,1.0,17.0,High,7.0
368,Low,left,30.0,5.285733763530821,1.0,18.0,High,7.0
369,Low,right,30.0,3.185847220370415,1.0,19.0,High,7.0
370,Low,left,30.0,1.7690674179115726,1.0,20.0,High,7.0
371,Low,left,30.0,1.2331599088956637,1.0,21.0,High,7.0
372,Low,left,30.0,3.814716147385281,1.0,22.0,High,7.0
373,Low,right,30.0,1.6273560022218172,1.0,23.0,High,7.0
374,Low,left,30.0,3.2915791648689128,0.0,24.0,High,7.0
375,Low,right,30.0,0.7748569917724758,1.0,25.0,High,7.0
376,Low,left,30.0,4.0926310235996635,0.0,26.0,High,7.0
377,Low,right,30.0,5.1953288216757425,1.0,27.0,High,7.0
378,Low,left,30.0,3.7807795451220834,1.0,28.0,High,7.0
379,Low,left,30.0,3.3625266585361357,1.0,29.0,High,7.0
380,Low,left,30.0,4.131394602668248,1.0,30.0,High,7.0
381,Low,left,30.0,5.142702925020938,0.0,31.0,High,7.0
382,Low,left,30.0,3.056660602420962,0.0,32.0,High,7.0
383,Low,left,30.0,1.3026623128012411,0.0,33.0,High,7.0
384,Low,right,30.0,4.366524395855926,1.0,34.0,High,7.0
385,Low,right,30.0,1.0288770858389258,0.0,35.0,High,7.0
386,Low,right,30.0,4.005289289909838,0.0,36.0,High,7.0
387,Low,right,30.0,0.8479830487944535,0.0,37.0,High,7.0
388,Low,right,30.0,0.5801458468180554,0.0,38.0,High,7.0
389,Low,right,30.0,1.7431793662784119,0.0,39.0,High,7.0
390,Low,left,30.0,3.3217255300201876,0.0,40.0,High,7.0
391,Low,right,30.0,1.050668386825103,1.0,41.0,High,7.0
392,Low,left,30.0,6.020844077837824,1.0,42.0,High,7.0
393,Low,right,30.0,2.420631001444275,1.0,43.0,High,7.0
394,Low,left,30.0,0.38896205659857075,1.0,44.0,High,7.0
395,Low,right,30.0,1.6748106265890557,0.0,45.0,High,7.0
396,Low,left,30.0,2.8636473123714854,1.0,46.0,High,7.0
397,Low,right,30.0,0.2660378358939366,0.0,47.0,High,7.0
398,Low,left,30.0,0.2253003720010729,1.0,48.0,High,7.0
399,Low,right,30.0,2.4585395134024943,1.0,49.0,High,7.0
400,High,left,60.0,-2.204035447195881,0.0,0.0,High,8.0
401,High,right,60.0,1.4915523726544733,1.0,1.0,High,8.0
402,High,right,60.0,2.9252463357064205,0.0,2.0,High,8.0
403,High,right,60.0,-1.1681229236060384,1.0,3.0,High,8.0
404,High,right,60.0,4.500561638781038,1.0,4.0,High,8.0
405,High,left,60.0,2.1839745004653635,0.0,5.0,High,8.0
406,High,right,60.0,0.9859464856418847,1.0,6.0,High,8.0
407,High,left,60.0,5.622734882364179,0.0,7.0,High,8.0
408,High,right,60.0,1.5133922862962668,0.0,8.0,High,8.0
409,High,left,60.0,0.2481437059244398,0.0,9.0,High,8.0
410,High,left,60.0,2.4533682904347307,1.0,10.0,High,8.0
411,High,right,60.0,1.53554519720288,1.0,11.0,High,8.0
412,High,right,60.0,2.966149731844879,1.0,12.0,High,8.0
413,High,left,60.0,4.980887214117274,0.0,13.0,High,8.0
414,High,left,60.0,4.275861125125828,0.0,14.0,High,8.0
415,High,left,60.0,4.52707542225988,1.0,15.0,High,8.0
416,High,right,60.0,4.542986067189087,0.0,16.0,High,8.0
417,High,right,60.0,1.3071893568912023,1.0,17.0,High,8.0
418,High,right,60.0,0.43750565223291527,1.0,18.0,High,8.0
419,High,right,60.0,1.1533117434925972,1.0,19.0,High,8.0
420,High,right,60.0,4.276110270502043,0.0,20.0,High,8.0
421,High,right,60.0,3.9516911980467837,0.0,21.0,High,8.0
422,High,left,60.0,-1.287574959236022,1.0,22.0,High,8.0
423,High,right,60.0,0.3908755949047933,1.0,23.0,High,8.0
424,High,left,60.0,7.3232597032913045,0.0,24.0,High,8.0
425,High,left,60.0,-2.934371488367572,0.0,25.0,High,8.0
426,High,left,60.0,0.506028794083595,0.0,26.0,High,8.0
427,High,right,60.0,-0.08965380462460737,1.0,27.0,High,8.0
428,High,left,60.0,-2.0176262091369086,0.0,28.0,High,8.0
429,High,left,60.0,2.8906839344385844,1.0,29.0,High,8.0
430,High,right,60.0,2.929217415214033,0.0,30.0,High,8.0
431,High,right,60.0,-3.870081703964096,1.0,31.0,High,8.0
432,High,right,60.0,-1.0557522093601273,0.0,32.0,High,8.0
433,High,left,60.0,0.8201667741792835,0.0,33.0,High,8.0
434,High,left,60.0,3.0264589701130857,1.0,34.0,High,8.0
435,High,left,60.0,3.088374356692918,0.0,35.0,High,8.0
436,High,right,60.0,7.146010021537721,1.0,36.0,High,8.0
437,High,left,60.0,1.2656699052040417,1.0,37.0,High,8.0
438,High,left,60.0,2.509921545404493,0.0,38.0,High,8.0
439,High,right,60.0,0.5097063838570783,0.0,39.0,High,8.0
440,High,left,60.0,1.6210442342813338,1.0,40.0,High,8.0
441,High,right,60.0,2.1338806968624366,0.0,41.0,High,8.0
442,High,left,60.0,0.06300433355561808,0.0,42.0,High,8.0
443,High,right,60.0,-0.013091086419795506,0.0,43.0,High,8.0
444,High,right,60.0,1.017393498583892,1.0,44.0,High,8.0
445,High,left,60.0,4.543251673707067,0.0,45.0,High,8.0
446,High,left,60.0,-0.4974387654733117,1.0,46.0,High,8.0
447,High,left,60.0,-1.5838202842200308,0.0,47.0,High,8.0
448,High,right,60.0,4.765567991235615,1.0,48.0,High,8.0
449,High,left,60.0,3.6760319105540225,0.0,49.0,High,8.0
450,Low,left,60.0,-0.43994322663500807,1.0,0.0,High,9.0
451,Low,right,60.0,0.3186001913032268,0.0,1.0,High,9.0
452,Low,right,60.0,1.7158696398758777,0.0,2.0,High,9.0
453,Low,right,60.0,2.404523986729398,1.0,3.0,High,9.0
454,Low,left,60.0,1.2861703653060172,0.0,4.0,High,9.0
455,Low,left,60.0,0.8876786222328514,1.0,5.0,High,9.0
456,Low,right,60.0,2.2448678099189525,1.0,6.0,High,9.0
457,Low,right,60.0,0.8877473081473854,1.0,7.0,High,9.0
458,Low,right,60.0,3.7815272049882918,0.0,8.0,High,9.0
459,Low,right,60.0,-3.715080513191286,0.0,9.0,High,9.0
460,Low,right,60.0,2.2095897183072557,0.0,10.0,High,9.0
461,Low,left,60.0,2.3332716060763925,0.0,11.0,High,9.0
462,Low,right,60.0,6.859413676027826,1.0,12.0,High,9.0
463,Low,left,60.0,3.4972090052936076,0.0,13.0,High,9.0
464,Low,right,60.0,5.229569493071572,1.0,14.0,High,9.0
465,Low,right,60.0,-2.2709009830095743,0.0,15.0,High,9.0
466,Low,right,60.0,5.292305552461392,0.0,16.0,High,9.0
467,Low,left,60.0,-0.025563151813277063,0.0,17.0,High,9.0
468,Low,left,60.0,-0.5466180768791828,1.0,18.0,High,9.0
469,Low,left,60.0,-1.5974257836714392,0.0,19.0,High,9.0
470,Low,left,60.0,1.9438299832397157,0.0,20.0,High,9.0
471,Low,right,60.0,-0.12221994476576592,1.0,21.0,High,9.0
472,Low,right,60.0,-0.21631239100230326,0.0,22.0,High,9.0
473,Low,right,60.0,3.5116036164588684,0.0,23.0,High,9.0
474,Low,right,60.0,2.4164862223665686,1.0,24.0,High,9.0
475,Low,right,60.0,3.7473190997262087,1.0,25.0,High,9.0
476,Low,left,60.0,1.689807901158246,1.0,26.0,High,9.0
477,Low,left,60.0,4.5118416241219546,0.0,27.0,High,9.0
478,Low,left,60.0,0.5242728182502439,1.0,28.0,High,9.0
479,Low,right,60.0,0.2257957061245106,1.0,29.0,High,9.0
480,Low,right,60.0,2.6960622874739535,1.0,30.0,High,9.0
481,Low,left,60.0,2.1177098418039852,1.0,31.0,High,9.0
482,Low,left,60.0,3.539874947765729,1.0,32.0,High,9.0
483,Low,left,60.0,5.352580932690867,0.0,33.0,High,9.0
484,Low,left,60.0,-4.483150225956842,1.0,34.0,High,9.0
485,Low,left,60.0,2.916173599356906,0.0,35.0,High,9.0
486,Low,right,60.0,2.75080429198062,0.0,36.0,High,9.0
487,Low,right,60.0,1.335244397322029,1.0,37.0,High,9.0
488,Low,left,60.0,-1.1137298632550434,0.0,38.0,High,9.0
489,Low,left,60.0,3.11265623574449,0.0,39.0,High,9.0
490,Low,right,60.0,-0.6166916326479137,1.0,40.0,High,9.0
491,Low,left,60.0,2.9327895658699923,1.0,41.0,High,9.0
492,Low,right,60.0,2.4188021249617186,0.0,42.0,High,9.0
493,Low,left,60.0,3.82105827783264,0.0,43.0,High,9.0
494,Low,left,60.0,2.6478601969909015,1.0,44.0,High,9.0
495,Low,right,60.0,1.2047422322968084,0.0,45.0,High,9.0
496,Low,left,60.0,5.070477362890893,0.0,46.0,High,9.0
497,Low,right,60.0,0.09687226633061385,1.0,47.0,High,9.0
498,Low,left,60.0,0.4207923849050468,0.0,48.0,High,9.0
499,Low,left,60.0,2.895182836486156,0.0,49.0,High,9.0
500,High,right,90.0,2.9681885504664116,0.0,0.0,High,10.0
501,High,left,90.0,2.2685693226027217,0.0,1.0,High,10.0
502,High,right,90.0,2.2282238959456278,1.0,2.0,High,10.0
503,High,left,90.0,1.9788217332136944,0.0,3.0,High,10.0
504,High,left,90.0,0.5968741780645359,0.0,4.0,High,10.0
505,High,right,90.0,2.216754241405352,0.0,5.0,High,10.0
506,High,right,90.0,2.3803936970500477,1.0,6.0,High,10.0
507,High,left,90.0,6.056174759474729,1.0,7.0,High,10.0
508,High,right,90.0,1.434782034099408,0.0,8.0,High,10.0
509,High,left,90.0,0.4125639586612926,0.0,9.0,High,10.0
510,High,left,90.0,-2.128940299158368,1.0,10.0,High,10.0
511,High,left,90.0,1.9585199474171824,1.0,11.0,High,10.0
512,High,left,90.0,1.2923369871357169,0.0,12.0,High,10.0
513,High,left,90.0,4.330750680404561,0.0,13.0,High,10.0
514,High,left,90.0,-1.0823438430980765,0.0,14.0,High,10.0
515,High,right,90.0,2.607769464880716,0.0,15.0,High,10.0
516,High,right,90.0,0.8502008249773773,1.0,16.0,High,10.0
517,High,left,90.0,1.7094615510115454,0.0,17.0,High,10.0
518,High,right,90.0,3.0228724693208466,1.0,18.0,High,10.0
519,High,right,90.0,0.08272420769472744,0.0,19.0,High,10.0
520,High,right,90.0,2.872516153043877,0.0,20.0,High,10.0
521,High,left,90.0,0.23196229048435146,1.0,21.0,High,10.0
522,High,right,90.0,3.333057477437423,0.0,22.0,High,10.0
523,High,left,90.0,5.474585774846923,1.0,23.0,High,10.0
524,High,right,90.0,5.1429047055376795,1.0,24.0,High,10.0
525,High,right,90.0,0.45797320153115795,1.0,25.0,High,10.0
526,High,right,90.0,1.7901967595458324,1.0,26.0,High,10.0
527,High,right,90.0,2.711132104834431,0.0,27.0,High,10.0
528,High,left,90.0,1.7272318103693907,1.0,28.0,High,10.0
529,High,right,90.0,2.2093723331971766,1.0,29.0,High,10.0
530,High,left,90.0,0.8427425187508089,1.0,30.0,High,10.0
531,High,left,90.0,3.933964819458133,1.0,31.0,High,10.0
532,High,left,90.0,2.1317291799282034,1.0,32.0,High,10.0
533,High,right,90.0,3.0159389213134076,0.0,33.0,High,10.0
534,High,left,90.0,5.842830886018107,1.0,34.0,High,10.0
535,High,right,90.0,3.392828818812702,1.0,35.0,High,10.0
536,High,left,90.0,2.651929387828972,1.0,36.0,High,10.0
537,High,left,90.0,4.8887815434028585,0.0,37.0,High,10.0
538,High,left,90.0,4.331386829057579,0.0,38.0,High,10.0
539,High,left,90.0,-0.6615198363413828,1.0,39.0,High,10.0
540,High,right,90.0,2.5702832569196636,0.0,40.0,High,10.0
541,High,right,90.0,0.9229236660143614,0.0,41.0,High,10.0
542,High,right,90.0,0.4060885792264384,0.0,42.0,High,10.0
543,High,left,90.0,1.6933701530539906,0.0,43.0,High,10.0
544,High,right,90.0,2.7214339937156256,0.0,44.0,High,10.0
545,High,left,90.0,2.048348340520799,1.0,45.0,High,10.0
546,High,left,90.0,0.7273409788129268,1.0,46.0,High,10.0
547,High,left,90.0,7.042553245537755,1.0,47.0,High,10.0
548,High,left,90.0,1.2188527344099516,1.0,48.0,High,10.0
549,High,left,90.0,4.9960330559349675,0.0,49.0,High,10.0
550,Low,right,90.0,1.61128380989172,1.0,0.0,High,11.0
551,Low,left,90.0,4.2456487914766825,1.0,1.0,High,11.0
552,Low,left,90.0,2.5376969995329257,0.0,2.0,High,11.0
553,Low,right,90.0,3.3174695653952297,0.0,3.0,High,11.0
554,Low,right,90.0,1.437647448882676,0.0,4.0,High,11.0
555,Low,right,90.0,2.0674261052469944,1.0,5.0,High,11.0
556,Low,left,90.0,-0.7258397266946186,0.0,6.0,High,11.0
557,Low,left,90.0,-0.4480633303168742,0.0,7.0,High,11.0
558,Low,right,90.0,4.4971564817249545,1.0,8.0,High,11.0
559,Low,left,90.0,0.9787256012195318,0.0,9.0,High,11.0
560,Low,right,90.0,2.438519998032469,1.0,10.0,High,11.0
561,Low,right,90.0,0.13530690187669314,0.0,11.0,High,11.0
562,Low,right,90.0,-4.240809989803957,1.0,12.0,High,11.0
563,Low,left,90.0,-0.16239400266048398,1.0,13.0,High,11.0
564,Low,left,90.0,3.8337337976791326,0.0,14.0,High,11.0
565,Low,right,90.0,3.7415759046591432,1.0,15.0,High,11.0
566,Low,right,90.0,1.8739763846954007,1.0,16.0,High,11.0
567,Low,right,90.0,0.8417055281545962,1.0,17.0,High,11.0
568,Low,right,90.0,-2.005169444632056,1.0,18.0,High,11.0
569,Low,right,90.0,1.9663032300883687,1.0,19.0,High,11.0
570,Low,right,90.0,3.583911690015208,0.0,20.0,High,11.0
571,Low,left,90.0,2.3404538971074333,0.0,21.0,High,11.0
572,Low,right,90.0,3.8120360568657805,0.0,22.0,High,11.0
573,Low,right,90.0,0.6652809011161442,1.0,23.0,High,11.0
574,Low,left,90.0,4.24871684537627,0.0,24.0,High,11.0
575,Low,left,90.0,0.16622290155367336,1.0,25.0,High,11.0
576,Low,right,90.0,1.1345378268551842,1.0,26.0,High,11.0
577,Low,right,90.0,2.9037983328901324,1.0,27.0,High,11.0
578,Low,left,90.0,1.0203442777452987,0.0,28.0,High,11.0
579,Low,left,90.0,3.085447460878102,1.0,29.0,High,11.0
580,Low,left,90.0,1.001277312206187,0.0,30.0,High,11.0
581,Low,right,90.0,2.926471538369786,0.0,31.0,High,11.0
582,Low,right,90.0,-1.539896986561877,0.0,32.0,High,11.0
583,Low,right,90.0,2.2069791477474254,0.0,33.0,High,11.0
584,Low,left,90.0,3.187913110728652,0.0,34.0,High,11.0
585,Low,left,90.0,2.071962600226281,0.0,35.0,High,11.0
586,Low,left,90.0,2.4530060683673987,1.0,36.0,High,11.0
587,Low,left,90.0,0.15107520490724013,1.0,37.0,High,11.0
588,Low,left,90.0,-0.21731530623948148,1.0,38.0,High,11.0
589,Low,left,90.0,2.2538855429767786,0.0,39.0,High,11.0
590,Low,left,90.0,2.1707858307904893,1.0,40.0,High,11.0
591,Low,left,90.0,0.14574747744597238,1.0,41.0,High,11.0
592,Low,right,90.0,2.843214065730903,0.0,42.0,High,11.0
593,Low,right,90.0,1.8477150787885668,1.0,43.0,High,11.0
594,Low,left,90.0,3.249898896513111,1.0,44.0,High,11.0
595,Low,left,90.0,-0.6230695965208131,0.0,45.0,High,11.0
596,Low,left,90.0,3.396639209363867,1.0,46.0,High,11.0
597,Low,left,90.0,4.169997244241876,1.0,47.0,High,11.0
598,Low,right,90.0,3.7065953451563862,1.0,48.0,High,11.0
599,Low,left,90.0,1.7256352048138044,1.0,49.0,High,11.0
