,Arousal,KeyPressed,LearningTime,RT,Response,TrialNumber,Valence,nBlock
0,High,right,30.0,1.0403919340261896,0.0,0.0,High,0.0
1,High,left,30.0,1.6776241685755124,1.0,1.0,High,0.0
2,High,left,30.0,1.3949028156924028,0.0,2.0,High,0.0
3,High,left,30.0,4.79564576908705,0.0,3.0,High,0.0
4,High,right,30.0,-0.1722414594779107,1.0,4.0,High,0.0
5,High,right,30.0,2.976248463744101,1.0,5.0,High,0.0
6,High,left,30.0,3.253004914581701,0.0,6.0,High,0.0
7,High,right,30.0,2.836209982945328,0.0,7.0,High,0.0
8,High,left,30.0,1.182931683892196,1.0,8.0,High,0.0
9,High,right,30.0,2.69294850120794,0.0,9.0,High,0.0
10,High,right,30.0,5.317122233910275,0.0,10.0,High,0.0
11,High,left,30.0,1.5594080004986797,1.0,11.0,High,0.0
12,High,right,30.0,2.062416269230882,0.0,12.0,High,0.0
13,High,left,30.0,3.292725845680736,1.0,13.0,High,0.0
14,High,right,30.0,1.6400926398035587,0.0,14.0,High,0.0
15,High,right,30.0,3.3111027022809747,1.0,15.0,High,0.0
16,High,right,30.0,3.042265335068113,0.0,16.0,High,0.0
17,High,left,30.0,1.1323429274516228,1.0,17.0,High,0.0
18,High,right,30.0,0.23607597159210747,0.0,18.0,High,0.0
19,High,right,30.0,0.5105118803059439,1.0,19.0,High,0.0
20,High,right,30.0,1.4783087512942301,0.0,20.0,High,0.0
21,High,left,30.0,5.999547589080707,0.0,21.0,High,0.0
22,High,left,30.0,-0.5699011241652039,0.0,22.0,High,0.0
23,High,left,30.0,1.3389478165633757,1.0,23.0,High,0.0
24,High,right,30.0,2.06798561894138,1.0,24.0,High,0.0
25,High,right,30.0,3.2433912193465018,0.0,25.0,High,0.0
26,High,left,30.0,1.8146942977069782,0.0,26.0,High,0.0
27,High,left,30.0,-2.2100556421720583,1.0,27.0,High,0.0
28,High,left,30.0,0.6673775858892066,0.0,28.0,High,0.0
29,High,right,30.0,4.483190534237988,1.0,29.0,High,0.0
30,High,left,30.0,3.293439081250764,0.0,30.0,High,0.0
31,High,right,30.0,4.976630223542449,1.0,31.0,High,0.0
32,High,left,30.0,7.106599272821368,1.0,32.0,High,0.0
33,High,right,30.0,3.115195253743879,0.0,33.0,High,0.0
34,High,right,30.0,1.5119017841993587,0.0,34.0,High,0.0
35,High,left,30.0,3.337751712452384,0.0,35.0,High,0.0
36,High,left,30.0,3.6210569068124068,0.0,36.0,High,0.0
37,High,left,30.0,4.054852542021212,1.0,37.0,High,0.0
38,High,right,30.0,0.32233053751171004,0.0,38.0,High,0.0
39,High,left,30.0,-2.233573535457179,1.0,39.0,High,0.0
40,High,right,30.0,3.2732806968616845,0.0,40.0,High,0.0
41,High,right,30.0,4.453411558608603,1.0,41.0,High,0.0
42,High,left,30.0,2.3969751068145713,0.0,42.0,High,0.0
43,High,left,30.0,-1.279737917432679,1.0,43.0,High,0.0
44,High,left,30.0,3.5901835879821427,1.0,44.0,High,0.0
45,High,right,30.0,2.621320978301565,0.0,45.0,High,0.0
46,High,left,30.0,3.26995319980115,1.0,46.0,High,0.0
47,High,right,30.0,1.958623533724429,1.0,47.0,High,0.0
48,High,left,30.0,0.914480432535222,1.0,48.0,High,0.0
49,High,right,30.0,1.883869882338766,0.0,49.0,High,0.0
50,Low,right,30.0,4.424302723480416,0.0,0.0,High,1.0
51,Low,right,30.0,0.7056603153041248,1.0,1.0,High,1.0
52,Low,left,30.0,0.6136129203261071,1.0,2.0,High,1.0
53,Low,right,30.0,2.213464427677863,0.0,3.0,High,1.0
54,Low,left,30.0,-0.3896345240478498,1.0,4.0,High,1.0
55,Low,right,30.0,4.6279629807548295,0.0,5.0,High,1.0
56,Low,left,30.0,2.5742734317975855,0.0,6.0,High,1.0
57,Low,right,30.0,0.8990503916578251,0.0,7.0,High,1.0
58,Low,left,30.0,2.5461610513274646,0.0,8.0,High,1.0
59,Low,left,30.0,3.8569470794159058,1.0,9.0,High,1.0
60,Low,right,30.0,2.1406536613265668,0.0,10.0,High,1.0
61,Low,right,30.0,2.945916631272794,1.0,11.0,High,1.0
62,Low,right,30.0,3.8277575880027754,1.0,12.0,High,1.0
63,Low,right,30.0,1.7140347603686936,1.0,13.0,High,1.0
64,Low,right,30.0,0.32974294089502987,0.0,14.0,High,1.0
65,Low,left,30.0,4.777471057579429,1.0,15.0,High,1.0
66,Low,left,30.0,0.7522154467495308,0.0,16.0,High,1.0
67,Low,right,30.0,6.183770548505045,1.0,17.0,High,1.0
68,Low,right,30.0,2.795315357021164,1.0,18.0,High,1.0
69,Low,right,30.0,2.9476564743439537,1.0,19.0,High,1.0
70,Low,left,30.0,2.5938280991306097,0.0,20.0,High,1.0
71,Low,left,30.0,4.610514330599637,0.0,21.0,High,1.0
72,Low,right,30.0,2.53628388411944,0.0,22.0,High,1.0
73,Low,left,30.0,0.2010566424271456,1.0,23.0,High,1.0
74,Low,left,30.0,3.0747617379656385,1.0,24.0,High,1.0
75,Low,right,30.0,3.8623281040023523,0.0,25.0,High,1.0
76,Low,right,30.0,2.6087964416748233,1.0,26.0,High,1.0
77,Low,left,30.0,2.50471641685253,0.0,27.0,High,1.0
78,Low,right,30.0,3.068209144174906,1.0,28.0,High,1.0
79,Low,left,30.0,2.9346725164409553,0.0,29.0,High,1.0
80,Low,right,30.0,0.8712829924565619,0.0,30.0,High,1.0
81,Low,left,30.0,4.5030889303737895,1.0,31.0,High,1.0
82,Low,right,30.0,5.9306330388762944,0.0,32.0,High,1.0
83,Low,right,30.0,5.940594436309649,1.0,33.0,High,1.0
84,Low,right,30.0,0.6443657068135857,0.0,34.0,High,1.0
85,Low,right,30.0,4.2386263286682695,1.0,35.0,High,1.0
86,Low,left,30.0,5.907689180694086,1.0,36.0,High,1.0
87,Low,right,30.0,2.6308488509578707,1.0,37.0,High,1.0
88,Low,right,30.0,1.354799848643286,1.0,38.0,High,1.0
89,Low,left,30.0,2.697907096303519,1.0,39.0,High,1.0
90,Low,left,30.0,1.199086651133009,0.0,40.0,High,1.0
91,Low,left,30.0,0.5952112819444125,1.0,41.0,High,1.0
92,Low,left,30.0,3.6142924054029058,1.0,42.0,High,1.0
93,Low,right,30.0,3.880901419391953,0.0,43.0,High,1.0
94,Low,left,30.0,5.448895744515664,1.0,44.0,High,1.0
95,Low,right,30.0,3.0729195370219613,1.0,45.0,High,1.0
96,Low,left,30.0,3.6080717825145707,0.0,46.0,High,1.0
97,Low,right,30.0,4.393924020522059,1.0,47.0,High,1.0
98,Low,right,30.0,1.8816366547153545,0.0,48.0,High,1.0
99,Low,right,30.0,3.2889704805521385,1.0,49.0,High,1.0
100,High,right,60.0,2.7348516055623238,0.0,0.0,High,2.0
101,High,right,60.0,2.8810025760376448,1.0,1.0,High,2.0
102,High,left,60.0,0.511707302701655,1.0,2.0,High,2.0
103,High,left,60.0,-0.5777987257153274,0.0,3.0,High,2.0
104,High,left,60.0,1.8321043101751318,1.0,4.0,High,2.0
105,High,left,60.0,4.766588217535182,1.0,5.0,High,2.0
106,High,right,60.0,3.2937282330547344,1.0,6.0,High,2.0
107,High,right,60.0,2.613132984803584,1.0,7.0,High,2.0
108,High,right,60.0,0.9646618778911443,0.0,8.0,High,2.0
109,High,right,60.0,2.1061990277093723,1.0,9.0,High,2.0
110,High,right,60.0,3.5737178047765985,1.0,10.0,High,2.0
111,High,left,60.0,-1.6449539878022983,1.0,11.0,High,2.0
112,High,left,60.0,-1.1826434406830089,1.0,12.0,High,2.0
113,High,right,60.0,-0.5807009728997738,0.0,13.0,High,2.0
114,High,right,60.0,5.231610051373366,0.0,14.0,High,2.0
115,High,right,60.0,2.641189536490075,1.0,15.0,High,2.0
116,High,right,60.0,1.4653615539821945,0.0,16.0,High,2.0
117,High,left,60.0,2.438916801778394,1.0,17.0,High,2.0
118,High,right,60.0,-1.9371208552027261,1.0,18.0,High,2.0
119,High,left,60.0,4.3790254178439,0.0,19.0,High,2.0
120,High,right,60.0,-0.2741963938654406,0.0,20.0,High,2.0
121,High,left,60.0,1.3761534997092808,1.0,21.0,High,2.0
122,High,right,60.0,3.2201703570476674,1.0,22.0,High,2.0
123,High,left,60.0,3.890213255603679,0.0,23.0,High,2.0
124,High,right,60.0,4.156241410391442,0.0,24.0,High,2.0
125,High,right,60.0,4.0027577708359505,1.0,25.0,High,2.0
126,High,right,60.0,4.273326537013695,0.0,26.0,High,2.0
127,High,left,60.0,4.921875813072504,1.0,27.0,High,2.0
128,High,right,60.0,0.0034842237206014204,1.0,28.0,High,2.0
129,High,right,60.0,0.8008109684974165,0.0,29.0,High,2.0
130,High,right,60.0,4.165997210631834,1.0,30.0,High,2.0
131,High,right,60.0,2.9500674812111525,0.0,31.0,High,2.0
132,High,right,60.0,1.5415991614873623,1.0,32.0,High,2.0
133,High,left,60.0,0.37258045394975214,0.0,33.0,High,2.0
134,High,left,60.0,1.0722118961024372,0.0,34.0,High,2.0
135,High,right,60.0,0.3947839166361853,1.0,35.0,High,2.0
136,High,right,60.0,1.6687976221637193,1.0,36.0,High,2.0
137,High,right,60.0,-0.6514889994833135,1.0,37.0,High,2.0
138,High,left,60.0,5.126914701855088,0.0,38.0,High,2.0
139,High,right,60.0,0.9885173052941777,0.0,39.0,High,2.0
140,High,left,60.0,1.410342888245047,0.0,40.0,High,2.0
141,High,right,60.0,1.0633563269000212,1.0,41.0,High,2.0
142,High,right,60.0,0.20399042062840111,1.0,42.0,High,2.0
143,High,left,60.0,2.3035065370352603,1.0,43.0,High,2.0
144,High,right,60.0,0.2291520869319954,1.0,44.0,High,2.0
145,High,left,60.0,0.8819642304353459,1.0,45.0,High,2.0
146,High,right,60.0,3.5261349017147263,1.0,46.0,High,2.0
147,High,left,60.0,-3.2630644218130813,0.0,47.0,High,2.0
148,High,right,60.0,0.3629231010609879,0.0,48.0,High,2.0
149,High,left,60.0,0.6983205905219394,1.0,49.0,High,2.0
150,Low,left,60.0,5.110848044455659,0.0,0.0,High,3.0
151,Low,right,60.0,6.611212733913231,1.0,1.0,High,3.0
152,Low,right,60.0,3.6402802002762513,1.0,2.0,High,3.0
153,Low,right,60.0,-1.7602939052370816,0.0,3.0,High,3.0
154,Low,right,60.0,2.145889255316219,1.0,4.0,High,3.0
155,Low,left,60.0,1.0717261459033853,0.0,5.0,High,3.0
156,Low,right,60.0,3.6586234908633557,0.0,6.0,High,3.0
157,Low,right,60.0,3.97424211810021,1.0,7.0,High,3.0
158,Low,right,60.0,4.206027361568593,0.0,8.0,High,3.0
159,Low,right,60.0,-0.5760537759274826,0.0,9.0,High,3.0
160,Low,right,60.0,-2.7039308261483628,0.0,10.0,High,3.0
161,Low,right,60.0,3.9023769232422105,0.0,11.0,High,3.0
162,Low,right,60.0,4.395268765147774,0.0,12.0,High,3.0
163,Low,left,60.0,3.517489479966954,1.0,13.0,High,3.0
164,Low,right,60.0,0.7899708581065298,1.0,14.0,High,3.0
165,Low,left,60.0,-2.0141083638120896,0.0,15.0,High,3.0
166,Low,left,60.0,1.7860750032015267,0.0,16.0,High,3.0
167,Low,left,60.0,3.320790037471456,0.0,17.0,High,3.0
168,Low,left,60.0,-0.8370814732777385,0.0,18.0,High,3.0
169,Low,right,60.0,1.7657261727172926,1.0,19.0,High,3.0
170,Low,left,60.0,5.331400768273038,1.0,20.0,High,3.0
171,Low,right,60.0,3.7835842933182278,1.0,21.0,High,3.0
172,Low,left,60.0,-0.4914187538307977,0.0,22.0,High,3.0
173,Low,right,60.0,-0.11457756729456836,0.0,23.0,High,3.0
174,Low,left,60.0,4.614146215805091,1.0,24.0,High,3.0
175,Low,right,60.0,3.1399060736764586,1.0,25.0,High,3.0
176,Low,right,60.0,0.008649267309860376,1.0,26.0,High,3.0
177,Low,left,60.0,1.1284587718787424,0.0,27.0,High,3.0
178,Low,left,60.0,2.0142138994638468,1.0,28.0,High,3.0
179,Low,left,60.0,1.0881867958353038,1.0,29.0,High,3.0
180,Low,right,60.0,-0.6059089999228338,1.0,30.0,High,3.0
181,Low,right,60.0,0.7817277766919872,1.0,31.0,High,3.0
182,Low,right,60.0,1.5459121494842698,1.0,32.0,High,3.0
183,Low,right,60.0,3.291394818313338,0.0,33.0,High,3.0
184,Low,right,60.0,4.329500408788083,0.0,34.0,High,3.0
185,Low,left,60.0,1.6855138013611806,0.0,35.0,High,3.0
186,Low,left,60.0,4.161942820574289,0.0,36.0,High,3.0
187,Low,right,60.0,4.913421184443216,0.0,37.0,High,3.0
188,Low,left,60.0,4.265953826363402,1.0,38.0,High,3.0
189,Low,left,60.0,4.21959468545291,0.0,39.0,High,3.0
190,Low,left,60.0,-0.46631670689749605,0.0,40.0,High,3.0
191,Low,left,60.0,0.4686560504724324,1.0,41.0,High,3.0
192,Low,left,60.0,3.8566580252770395,1.0,42.0,High,3.0
193,Low,right,60.0,4.003093449787664,1.0,43.0,High,3.0
194,Low,right,60.0,2.3775572269127077,1.0,44.0,High,3.0
195,Low,right,60.0,-0.21792292086835907,0.0,45.0,High,3.0
196,Low,right,60.0,0.8602030319147436,0.0,46.0,High,3.0
197,Low,left,60.0,4.182626399282748,0.0,47.0,High,3.0
198,Low,left,60.0,-0.8271864178834802,0.0,48.0,High,3.0
199,Low,left,60.0,3.161287028945137,0.0,49.0,High,3.0
200,High,left,30.0,3.8110377618355518,1.0,0.0,Low,4.0
201,High,right,30.0,1.9475530826512495,0.0,1.0,Low,4.0
202,High,right,30.0,-0.43835635239544457,1.0,2.0,Low,4.0
203,High,left,30.0,0.8001703498381634,1.0,3.0,Low,4.0
204,High,left,30.0,1.621786085149419,1.0,4.0,Low,4.0
205,High,right,30.0,2.13974503029546,1.0,5.0,Low,4.0
206,High,left,30.0,0.392654216546358,1.0,6.0,Low,4.0
207,High,left,30.0,1.4707452139075838,1.0,7.0,Low,4.0
208,High,right,30.0,0.7937706876412662,0.0,8.0,Low,4.0
209,High,right,30.0,-1.8566545417688394,1.0,9.0,Low,4.0
210,High,left,30.0,1.5000795735878751,0.0,10.0,Low,4.0
211,High,left,30.0,1.7663018556903882,1.0,11.0,Low,4.0
212,High,right,30.0,2.201107137429161,0.0,12.0,Low,4.0
213,High,right,30.0,2.0065963717191764,0.0,13.0,Low,4.0
214,High,left,30.0,7.828741659603146,1.0,14.0,Low,4.0
215,High,left,30.0,-0.8954543687790117,0.0,15.0,Low,4.0
216,High,right,30.0,3.800150411051504,0.0,16.0,Low,4.0
217,High,right,30.0,3.4256913834146934,1.0,17.0,Low,4.0
218,High,right,30.0,4.936474998269706,0.0,18.0,Low,4.0
219,High,right,30.0,5.390683862578684,0.0,19.0,Low,4.0
220,High,right,30.0,3.6519313204755037,0.0,20.0,Low,4.0
221,High,right,30.0,2.221227978302366,0.0,21.0,Low,4.0
222,High,right,30.0,4.1312616103386945,0.0,22.0,Low,4.0
223,High,left,30.0,3.4151948783746877,0.0,23.0,Low,4.0
224,High,right,30.0,2.1383274089729607,1.0,24.0,Low,4.0
225,High,left,30.0,-0.8866177268583617,1.0,25.0,Low,4.0
226,High,left,30.0,2.326912897739353,1.0,26.0,Low,4.0
227,High,right,30.0,2.7019785304556616,0.0,27.0,Low,4.0
228,High,left,30.0,-0.8046712355131649,1.0,28.0,Low,4.0
229,High,right,30.0,5.035244873340424,0.0,29.0,Low,4.0
230,High,right,30.0,4.064529574893797,1.0,30.0,Low,4.0
231,High,right,30.0,3.54308799102565,1.0,31.0,Low,4.0
232,High,right,30.0,4.057979177120008,1.0,32.0,Low,4.0
233,High,right,30.0,1.9232939404017797,0.0,33.0,Low,4.0
234,High,right,30.0,-1.6754218640303917,0.0,34.0,Low,4.0
235,High,left,30.0,5.027889402813943,0.0,35.0,Low,4.0
236,High,left,30.0,1.4864098832525934,0.0,36.0,Low,4.0
237,High,right,30.0,0.6973142324762613,1.0,37.0,Low,4.0
238,High,right,30.0,1.3898331801060497,1.0,38.0,Low,4.0
239,High,left,30.0,-0.23317929442102514,0.0,39.0,Low,4.0
240,High,left,30.0,2.615445552159628,1.0,40.0,Low,4.0
241,High,right,30.0,1.951797042022859,1.0,41.0,Low,4.0
242,High,right,30.0,-0.5330553713785537,0.0,42.0,Low,4.0
243,High,left,30.0,-1.7973832529405294,1.0,43.0,Low,4.0
244,High,right,30.0,-1.3588671795730685,0.0,44.0,Low,4.0
245,High,left,30.0,2.235916983392068,1.0,45.0,Low,4.0
246,High,left,30.0,-0.6594314139430157,0.0,46.0,Low,4.0
247,High,right,30.0,-0.8216688096861922,0.0,47.0,Low,4.0
248,High,left,30.0,3.3824347558114574,0.0,48.0,Low,4.0
249,High,left,30.0,1.1811008354819996,0.0,49.0,Low,4.0
250,Low,left,30.0,0.40027919960045266,0.0,0.0,Low,5.0
251,Low,right,30.0,0.09920174488104783,1.0,1.0,Low,5.0
252,Low,left,30.0,1.9585261752404,1.0,2.0,Low,5.0
253,Low,right,30.0,7.97726736774284,1.0,3.0,Low,5.0
254,Low,left,30.0,-0.6028554529955121,0.0,4.0,Low,5.0
255,Low,left,30.0,3.661246576801915,1.0,5.0,Low,5.0
256,Low,left,30.0,5.481446441413231,0.0,6.0,Low,5.0
257,Low,left,30.0,-0.8168515683337536,1.0,7.0,Low,5.0
258,Low,right,30.0,4.4421622470704225,0.0,8.0,Low,5.0
259,Low,left,30.0,-0.8586627190535907,1.0,9.0,Low,5.0
260,Low,right,30.0,2.1602579282142425,1.0,10.0,Low,5.0
261,Low,left,30.0,4.099559519918388,0.0,11.0,Low,5.0
262,Low,right,30.0,-0.3533942793410483,1.0,12.0,Low,5.0
263,Low,left,30.0,1.1470782610410248,1.0,13.0,Low,5.0
264,Low,right,30.0,3.825735593888993,0.0,14.0,Low,5.0
265,Low,left,30.0,-1.0074741037063233,1.0,15.0,Low,5.0
266,Low,right,30.0,2.4100551462107065,0.0,16.0,Low,5.0
267,Low,right,30.0,6.896516197932829,1.0,17.0,Low,5.0
268,Low,left,30.0,4.586599319670621,0.0,18.0,Low,5.0
269,Low,right,30.0,3.3625853850833214,1.0,19.0,Low,5.0
270,Low,left,30.0,0.19026766483214508,0.0,20.0,Low,5.0
271,Low,right,30.0,2.907288656174755,1.0,21.0,Low,5.0
272,Low,left,30.0,4.980703287956376,1.0,22.0,Low,5.0
273,Low,left,30.0,-0.04014648776694418,1.0,23.0,Low,5.0
274,Low,left,30.0,2.7838796175038354,1.0,24.0,Low,5.0
275,Low,right,30.0,1.0712696413705365,0.0,25.0,Low,5.0
276,Low,right,30.0,-0.9689215709524033,0.0,26.0,Low,5.0
277,Low,right,30.0,0.08607445176098949,1.0,27.0,Low,5.0
278,Low,right,30.0,3.7035679948752414,0.0,28.0,Low,5.0
279,Low,left,30.0,4.336486254305978,1.0,29.0,Low,5.0
280,Low,right,30.0,3.865949802222047,1.0,30.0,Low,5.0
281,Low,left,30.0,1.1981348038619597,1.0,31.0,Low,5.0
282,Low,right,30.0,1.9870523292654878,0.0,32.0,Low,5.0
283,Low,left,30.0,0.17792303136374543,0.0,33.0,Low,5.0
284,Low,left,30.0,2.5296091253201887,0.0,34.0,Low,5.0
285,Low,left,30.0,3.89995616767117,0.0,35.0,Low,5.0
286,Low,left,30.0,2.9468206271929263,0.0,36.0,Low,5.0
287,Low,right,30.0,0.18398125391051146,0.0,37.0,Low,5.0
288,Low,right,30.0,-1.0944002395025267,0.0,38.0,Low,5.0
289,Low,right,30.0,4.107338958882178,0.0,39.0,Low,5.0
290,Low,left,30.0,2.3326305594890906,0.0,40.0,Low,5.0
291,Low,left,30.0,2.097427993114664,1.0,41.0,Low,5.0
292,Low,right,30.0,4.1628106527362245,0.0,42.0,Low,5.0
293,Low,right,30.0,3.8731507464570543,0.0,43.0,Low,5.0
294,Low,right,30.0,3.824916180825338,1.0,44.0,Low,5.0
295,Low,left,30.0,0.7345812150348728,0.0,45.0,Low,5.0
296,Low,right,30.0,1.9583929938726115,1.0,46.0,Low,5.0
297,Low,right,30.0,1.5482701053168433,1.0,47.0,Low,5.0
298,Low,left,30.0,1.0722180006555784,1.0,48.0,Low,5.0
299,Low,right,30.0,0.4453609509326433,1.0,49.0,Low,5.0
300,High,right,90.0,4.037756666822611,1.0,0.0,High,6.0
301,High,left,90.0,-0.5902991392254018,0.0,1.0,High,6.0
302,High,left,90.0,-0.6045635442773205,1.0,2.0,High,6.0
303,High,left,90.0,0.21814813185155613,0.0,3.0,High,6.0
304,High,left,90.0,-0.8555162342283777,1.0,4.0,High,6.0
305,High,left,90.0,2.3338937745765396,1.0,5.0,High,6.0
306,High,right,90.0,2.9145699731849772,1.0,6.0,High,6.0
307,High,left,90.0,0.8841581481915062,1.0,7.0,High,6.0
308,High,right,90.0,-0.0779537760108675,1.0,8.0,High,6.0
309,High,left,90.0,0.85147499745719,0.0,9.0,High,6.0
310,High,left,90.0,-0.46487989749974923,0.0,10.0,High,6.0
311,High,left,90.0,-1.1975108826603775,0.0,11.0,High,6.0
312,High,left,90.0,-1.5267556646707896,1.0,12.0,High,6.0
313,High,left,90.0,0.4851943245291648,0.0,13.0,High,6.0
314,High,left,90.0,1.2970905597340034,0.0,14.0,High,6.0
315,High,left,90.0,2.195378137575448,1.0,15.0,High,6.0
316,High,right,90.0,2.54447667926771,0.0,16.0,High,6.0
317,High,left,90.0,-1.1494427133344907,0.0,17.0,High,6.0
318,High,left,90.0,-0.38925167798658,0.0,18.0,High,6.0
319,High,left,90.0,-0.03219934011310732,0.0,19.0,High,6.0
320,High,left,90.0,5.530537706300333,1.0,20.0,High,6.0
321,High,right,90.0,0.42654961111664824,0.0,21.0,High,6.0
322,High,right,90.0,0.5261690405920001,0.0,22.0,High,6.0
323,High,left,90.0,1.5160140952147731,0.0,23.0,High,6.0
324,High,right,90.0,2.487570716764935,0.0,24.0,High,6.0
325,High,right,90.0,-3.273770452687264,1.0,25.0,High,6.0
326,High,left,90.0,3.575476373786774,1.0,26.0,High,6.0
327,High,right,90.0,-0.013863732902172465,0.0,27.0,High,6.0
328,High,left,90.0,3.003175349746459,1.0,28.0,High,6.0
329,High,left,90.0,2.956131372461912,1.0,29.0,High,6.0
330,High,left,90.0,5.722579005725519,0.0,30.0,High,6.0
331,High,right,90.0,-0.35927474744681387,1.0,31.0,High,6.0
332,High,right,90.0,1.7601346539533849,0.0,32.0,High,6.0
333,High,left,90.0,3.528154660077735,0.0,33.0,High,6.0
334,High,left,90.0,2.9030712110465897,0.0,34.0,High,6.0
335,High,left,90.0,-0.4283400780001425,0.0,35.0,High,6.0
336,High,left,90.0,4.1174613437973395,0.0,36.0,High,6.0
337,High,right,90.0,4.243935625247299,1.0,37.0,High,6.0
338,High,left,90.0,1.0497112067259764,1.0,38.0,High,6.0
339,High,left,90.0,-1.3207187104366538,0.0,39.0,High,6.0
340,High,left,90.0,5.09698166793837,0.0,40.0,High,6.0
341,High,right,90.0,2.526314871942798,0.0,41.0,High,6.0
342,High,left,90.0,5.8314468108750805,0.0,42.0,High,6.0
343,High,right,90.0,2.11964612393544,0.0,43.0,High,6.0
344,High,right,90.0,3.041153552393766,1.0,44.0,High,6.0
345,High,right,90.0,4.290256870980671,0.0,45.0,High,6.0
346,High,left,90.0,1.318141520314165,0.0,46.0,High,6.0
347,High,left,90.0,-1.4912650092535968,1.0,47.0,High,6.0
348,High,left,90.0,2.295402699377191,1.0,48.0,High,6.0
349,High,left,90.0,1.1796504496188833,1.0,49.0,High,6.0
350,Low,right,60.0,-0.07125700362444576,1.0,0.0,Low,7.0
351,Low,right,60.0,1.3033246461970063,1.0,1.0,Low,7.0
352,Low,right,60.0,1.4392582702341614,0.0,2.0,Low,7.0
353,Low,right,60.0,-0.6531525765392483,0.0,3.0,Low,7.0
354,Low,left,60.0,2.409654890098366,1.0,4.0,Low,7.0
355,Low,left,60.0,-0.04974503715433576,1.0,5.0,Low,7.0
356,Low,right,60.0,0.007884897220940434,1.0,6.0,Low,7.0
357,Low,left,60.0,2.961206988976984,1.0,7.0,Low,7.0
358,Low,left,60.0,3.553288164624809,1.0,8.0,Low,7.0
359,Low,left,60.0,1.836391427336267,0.0,9.0,Low,7.0
360,Low,left,60.0,2.787609159048408,0.0,10.0,Low,7.0
361,Low,left,60.0,6.524728405587879,1.0,11.0,Low,7.0
362,Low,left,60.0,1.7891277297449637,1.0,12.0,Low,7.0
363,Low,left,60.0,1.473067122337059,1.0,13.0,Low,7.0
364,Low,left,60.0,-0.27601709008610276,0.0,14.0,Low,7.0
365,Low,left,60.0,4.492621746339141,1.0,15.0,Low,7.0
366,Low,left,60.0,4.07208641010658,1.0,16.0,Low,7.0
367,Low,right,60.0,3.7744014096213006,1.0,17.0,Low,7.0
368,Low,left,60.0,7.342686242575655,1.0,18.0,Low,7.0
369,Low,left,60.0,1.9914610348170374,0.0,19.0,Low,7.0
370,Low,right,60.0,7.3671422522215,1.0,20.0,Low,7.0
371,Low,right,60.0,-1.7029761261167253,1.0,21.0,Low,7.0
372,Low,left,60.0,0.1493061900785495,1.0,22.0,Low,7.0
373,Low,left,60.0,3.574808945959101,0.0,23.0,Low,7.0
374,Low,left,60.0,4.979416694444822,0.0,24.0,Low,7.0
375,Low,left,60.0,-1.9541996697633164,1.0,25.0,Low,7.0
376,Low,right,60.0,1.0050513994581627,0.0,26.0,Low,7.0
377,Low,left,60.0,-0.18919278858077582,1.0,27.0,Low,7.0
378,Low,right,60.0,2.653531618104005,1.0,28.0,Low,7.0
379,Low,left,60.0,-1.6486509562681064,0.0,29.0,Low,7.0
380,Low,right,60.0,-0.08858639515447919,0.0,30.0,Low,7.0
381,Low,right,60.0,0.8830879849306281,0.0,31.0,Low,7.0
382,Low,right,60.0,2.949807146462792,0.0,32.0,Low,7.0
383,Low,left,60.0,2.274542037030994,1.0,33.0,Low,7.0
384,Low,left,60.0,1.3697707867310105,0.0,34.0,Low,7.0
385,Low,right,60.0,2.178189796775221,1.0,35.0,Low,7.0
386,Low,left,60.0,2.58892270753181,1.0,36.0,Low,7.0
387,Low,left,60.0,2.416781769556013,0.0,37.0,Low,7.0
388,Low,right,60.0,0.9085434708679911,0.0,38.0,Low,7.0
389,Low,left,60.0,3.4829433477206995,0.0,39.0,Low,7.0
390,Low,right,60.0,1.558422205976023,0.0,40.0,Low,7.0
391,Low,left,60.0,0.6224026629981065,1.0,41.0,Low,7.0
392,Low,left,60.0,4.377289163664397,1.0,42.0,Low,7.0
393,Low,left,60.0,1.1307644643967678,0.0,43.0,Low,7.0
394,Low,right,60.0,1.3594860096592019,1.0,44.0,Low,7.0
395,Low,right,60.0,1.6823388306853575,1.0,45.0,Low,7.0
396,Low,right,60.0,0.8996632868577586,0.0,46.0,Low,7.0
397,Low,left,60.0,3.271378057421569,0.0,47.0,Low,7.0
398,Low,left,60.0,2.307178754252384,1.0,48.0,Low,7.0
399,Low,right,60.0,4.883693117731959,0.0,49.0,Low,7.0
400,High,left,60.0,1.582625837503036,1.0,0.0,Low,8.0
401,High,right,60.0,2.912414491301033,0.0,1.0,Low,8.0
402,High,right,60.0,2.414710173279069,1.0,2.0,Low,8.0
403,High,right,60.0,-1.245746840275338,0.0,3.0,Low,8.0
404,High,left,60.0,3.2010772726947674,1.0,4.0,Low,8.0
405,High,right,60.0,4.568622521484032,0.0,5.0,Low,8.0
406,High,left,60.0,3.9531620205421696,1.0,6.0,Low,8.0
407,High,right,60.0,-2.3391878427179726,1.0,7.0,Low,8.0
408,High,right,60.0,2.0825394614319483,1.0,8.0,Low,8.0
409,High,right,60.0,0.8004767376706878,0.0,9.0,Low,8.0
410,High,left,60.0,1.8952511430594847,0.0,10.0,Low,8.0
411,High,left,60.0,2.1155959632580625,0.0,11.0,Low,8.0
412,High,left,60.0,7.401797367858748,1.0,12.0,Low,8.0
413,High,right,60.0,0.2144833257478047,1.0,13.0,Low,8.0
414,High,right,60.0,2.1788397274644744,0.0,14.0,Low,8.0
415,High,left,60.0,-1.4971765331798115,1.0,15.0,Low,8.0
416,High,right,60.0,0.08624698653984852,1.0,16.0,Low,8.0
417,High,left,60.0,2.166287046547627,0.0,17.0,Low,8.0
418,High,left,60.0,2.413613765975181,1.0,18.0,Low,8.0
419,High,right,60.0,4.520460687866008,0.0,19.0,Low,8.0
420,High,right,60.0,2.1662238034034127,1.0,20.0,Low,8.0
421,High,left,60.0,3.224248302760407,0.0,21.0,Low,8.0
422,High,left,60.0,-1.4861774454953305,1.0,22.0,Low,8.0
423,High,left,60.0,6.243142353816454,1.0,23.0,Low,8.0
424,High,right,60.0,0.3669209631716943,1.0,24.0,Low,8.0
425,High,left,60.0,4.64804642804375,1.0,25.0,Low,8.0
426,High,right,60.0,1.1781598828051858,0.0,26.0,Low,8.0
427,High,left,60.0,2.7446639097916106,0.0,27.0,Low,8.0
428,High,right,60.0,-0.03848855693405051,1.0,28.0,Low,8.0
429,High,right,60.0,1.0214454046140649,0.0,29.0,Low,8.0
430,High,right,60.0,3.2868437422196837,0.0,30.0,Low,8.0
431,High,left,60.0,2.1643892618621297,0.0,31.0,Low,8.0
432,High,right,60.0,1.4937975802296082,0.0,32.0,Low,8.0
433,High,left,60.0,-0.5070774493059598,1.0,33.0,Low,8.0
434,High,left,60.0,3.547376769129695,1.0,34.0,Low,8.0
435,High,left,60.0,2.1187932587732794,0.0,35.0,Low,8.0
436,High,right,60.0,1.4544461366483092,1.0,36.0,Low,8.0
437,High,left,60.0,1.0768198874842536,1.0,37.0,Low,8.0
438,High,left,60.0,1.9456025967230195,0.0,38.0,Low,8.0
439,High,left,60.0,4.129741530302655,1.0,39.0,Low,8.0
440,High,right,60.0,4.399522900229022,1.0,40.0,Low,8.0
441,High,left,60.0,-0.9257837830424722,1.0,41.0,Low,8.0
442,High,right,60.0,0.9036392702116305,0.0,42.0,Low,8.0
443,High,right,60.0,7.169048326566864,0.0,43.0,Low,8.0
444,High,right,60.0,4.77040790656952,1.0,44.0,Low,8.0
445,High,right,60.0,3.162015999181357,0.0,45.0,Low,8.0
446,High,left,60.0,0.10538534327576277,0.0,46.0,Low,8.0
447,High,left,60.0,-4.822548123529511,1.0,47.0,Low,8.0
448,High,right,60.0,4.992338659348843,1.0,48.0,Low,8.0
449,High,left,60.0,5.529498710216071,0.0,49.0,Low,8.0
450,Low,left,90.0,4.204747333487019,0.0,0.0,Low,9.0
451,Low,left,90.0,3.375954169810756,0.0,1.0,Low,9.0
452,Low,left,90.0,0.14411597223444406,0.0,2.0,Low,9.0
453,Low,right,90.0,1.2879340553590917,1.0,3.0,Low,9.0
454,Low,right,90.0,4.401216506545806,1.0,4.0,Low,9.0
455,Low,right,90.0,1.9392162760673326,0.0,5.0,Low,9.0
456,Low,left,90.0,3.0318091018971423,0.0,6.0,Low,9.0
457,Low,left,90.0,1.3431548685188432,0.0,7.0,Low,9.0
458,Low,left,90.0,0.8642474665042879,0.0,8.0,Low,9.0
459,Low,right,90.0,5.946123209667228,0.0,9.0,Low,9.0
460,Low,left,90.0,5.892790798312775,0.0,10.0,Low,9.0
461,Low,right,90.0,0.7962129985605926,0.0,11.0,Low,9.0
462,Low,right,90.0,3.387674342179606,0.0,12.0,Low,9.0
463,Low,left,90.0,6.262697103815565,0.0,13.0,Low,9.0
464,Low,left,90.0,2.5725906753150682,1.0,14.0,Low,9.0
465,Low,left,90.0,3.7315777335294897,1.0,15.0,Low,9.0
466,Low,right,90.0,1.5885041980401962,1.0,16.0,Low,9.0
467,Low,left,90.0,1.5508595459776098,0.0,17.0,Low,9.0
468,Low,right,90.0,2.6437030930804166,1.0,18.0,Low,9.0
469,Low,left,90.0,-1.7714556687582532,0.0,19.0,Low,9.0
470,Low,left,90.0,1.6734360795390955,1.0,20.0,Low,9.0
471,Low,right,90.0,4.779303049373427,1.0,21.0,Low,9.0
472,Low,left,90.0,1.1525251939256027,0.0,22.0,Low,9.0
473,Low,left,90.0,5.146629486259121,0.0,23.0,Low,9.0
474,Low,left,90.0,3.277993451981339,1.0,24.0,Low,9.0
475,Low,right,90.0,2.9064653900215487,0.0,25.0,Low,9.0
476,Low,right,90.0,0.6664473910290013,0.0,26.0,Low,9.0
477,Low,right,90.0,1.1222921899232212,0.0,27.0,Low,9.0
478,Low,left,90.0,2.7865796372991114,1.0,28.0,Low,9.0
479,Low,left,90.0,4.046197013901258,1.0,29.0,Low,9.0
480,Low,left,90.0,2.7241372129742794,0.0,30.0,Low,9.0
481,Low,left,90.0,1.3943278596831719,0.0,31.0,Low,9.0
482,Low,right,90.0,4.421004506842904,1.0,32.0,Low,9.0
483,Low,left,90.0,-1.845597624635583,0.0,33.0,Low,9.0
484,Low,left,90.0,2.5400935675450227,0.0,34.0,Low,9.0
485,Low,left,90.0,0.799973466982696,1.0,35.0,Low,9.0
486,Low,right,90.0,-0.3322722927982631,0.0,36.0,Low,9.0
487,Low,left,90.0,-0.7406702303161841,1.0,37.0,Low,9.0
488,Low,right,90.0,0.8623844402413194,1.0,38.0,Low,9.0
489,Low,left,90.0,-0.5956440390355309,1.0,39.0,Low,9.0
490,Low,right,90.0,2.2704402556600853,1.0,40.0,Low,9.0
491,Low,right,90.0,3.0945211235525907,0.0,41.0,Low,9.0
492,Low,right,90.0,0.5819915853032069,0.0,42.0,Low,9.0
493,Low,left,90.0,1.4777504814000453,1.0,43.0,Low,9.0
494,Low,right,90.0,0.5715517988972467,0.0,44.0,Low,9.0
495,Low,left,90.0,2.637782100076307,1.0,45.0,Low,9.0
496,Low,left,90.0,1.4130961688429318,0.0,46.0,Low,9.0
497,Low,left,90.0,1.2551535070160973,0.0,47.0,Low,9.0
498,Low,left,90.0,2.660527075897741,1.0,48.0,Low,9.0
499,Low,left,90.0,-0.4812602145207827,0.0,49.0,Low,9.0
500,High,left,90.0,0.2959812046015706,1.0,0.0,Low,10.0
501,High,left,90.0,2.970582570885003,1.0,1.0,Low,10.0
502,High,left,90.0,3.469514900738406,0.0,2.0,Low,10.0
503,High,right,90.0,2.078717003723184,0.0,3.0,Low,10.0
504,High,left,90.0,3.4001117925503217,1.0,4.0,Low,10.0
505,High,left,90.0,1.024524986471687,1.0,5.0,Low,10.0
506,High,right,90.0,-0.21308842626090296,1.0,6.0,Low,10.0
507,High,left,90.0,2.948544037483125,1.0,7.0,Low,10.0
508,High,right,90.0,2.26944198068663,0.0,8.0,Low,10.0
509,High,left,90.0,0.5304568717953577,0.0,9.0,Low,10.0
510,High,right,90.0,4.048173484274524,0.0,10.0,Low,10.0
511,High,right,90.0,0.7521299528215644,1.0,11.0,Low,10.0
512,High,right,90.0,-2.5723559829158567,1.0,12.0,Low,10.0
513,High,right,90.0,3.396112971828245,1.0,13.0,Low,10.0
514,High,left,90.0,2.3787263093033877,1.0,14.0,Low,10.0
515,High,right,90.0,4.077371609536218,1.0,15.0,Low,10.0
516,High,left,90.0,1.382393393954258,1.0,16.0,Low,10.0
517,High,right,90.0,3.001182063383615,0.0,17.0,Low,10.0
518,High,right,90.0,1.0745276950237563,1.0,18.0,Low,10.0
519,High,left,90.0,0.7441792860546501,0.0,19.0,Low,10.0
520,High,left,90.0,3.9711663663159182,1.0,20.0,Low,10.0
521,High,left,90.0,2.517109926220082,0.0,21.0,Low,10.0
522,High,left,90.0,-2.410990080640677,1.0,22.0,Low,10.0
523,High,left,90.0,-0.37029599147881975,0.0,23.0,Low,10.0
524,High,right,90.0,6.282143552765275,1.0,24.0,Low,10.0
525,High,left,90.0,0.24009181405878377,1.0,25.0,Low,10.0
526,High,right,90.0,1.226186450975038,0.0,26.0,Low,10.0
527,High,right,90.0,3.7208117145569157,0.0,27.0,Low,10.0
528,High,right,90.0,1.4315724099754443,1.0,28.0,Low,10.0
529,High,left,90.0,3.2712273900754587,1.0,29.0,Low,10.0
530,High,right,90.0,2.114754515192443,0.0,30.0,Low,10.0
531,High,right,90.0,1.5052685314169882,0.0,31.0,Low,10.0
532,High,right,90.0,-0.26608137517598407,1.0,32.0,Low,10.0
533,High,left,90.0,2.9372617114972486,0.0,33.0,Low,10.0
534,High,left,90.0,3.4668390380399923,0.0,34.0,Low,10.0
535,High,right,90.0,0.7289489263501755,0.0,35.0,Low,10.0
536,High,right,90.0,2.7722431601697286,0.0,36.0,Low,10.0
537,High,left,90.0,2.2804371247431656,0.0,37.0,Low,10.0
538,High,right,90.0,2.378472882199892,1.0,38.0,Low,10.0
539,High,left,90.0,1.1083292970971568,1.0,39.0,Low,10.0
540,High,right,90.0,-2.037835442420537,0.0,40.0,Low,10.0
541,High,left,90.0,1.3078689025826302,1.0,41.0,Low,10.0
542,High,right,90.0,1.9191781027113275,0.0,42.0,Low,10.0
543,High,right,90.0,1.1363542787779815,1.0,43.0,Low,10.0
544,High,left,90.0,3.692027516808605,0.0,44.0,Low,10.0
545,High,right,90.0,2.3029454853582614,1.0,45.0,Low,10.0
546,High,left,90.0,0.13621689197119724,0.0,46.0,Low,10.0
547,High,right,90.0,-0.9546503445146111,0.0,47.0,Low,10.0
548,High,right,90.0,3.6724784133045425,0.0,48.0,Low,10.0
549,High,right,90.0,3.7984446483800185,0.0,49.0,Low,10.0
550,Low,right,90.0,1.46554163132185,0.0,0.0,High,11.0
551,Low,right,90.0,2.224181613579817,1.0,1.0,High,11.0
552,Low,left,90.0,2.4838842476973877,1.0,2.0,High,11.0
553,Low,left,90.0,0.30210034555992493,0.0,3.0,High,11.0
554,Low,right,90.0,6.844079556168821,1.0,4.0,High,11.0
555,Low,right,90.0,4.039155262861398,1.0,5.0,High,11.0
556,Low,left,90.0,2.2773116734498426,0.0,6.0,High,11.0
557,Low,left,90.0,3.4129332765829012,1.0,7.0,High,11.0
558,Low,left,90.0,-0.5033697333329124,1.0,8.0,High,11.0
559,Low,right,90.0,0.3131905117906608,1.0,9.0,High,11.0
560,Low,right,90.0,-1.311263431303038,1.0,10.0,High,11.0
561,Low,right,90.0,1.7225326045735467,1.0,11.0,High,11.0
562,Low,left,90.0,4.792783681856435,1.0,12.0,High,11.0
563,Low,left,90.0,0.3633563816144074,1.0,13.0,High,11.0
564,Low,right,90.0,0.28269252154480884,0.0,14.0,High,11.0
565,Low,right,90.0,2.1491720588705725,0.0,15.0,High,11.0
566,Low,left,90.0,3.7466892324988734,0.0,16.0,High,11.0
567,Low,left,90.0,5.205574595052678,1.0,17.0,High,11.0
568,Low,right,90.0,3.814546217993753,0.0,18.0,High,11.0
569,Low,right,90.0,-1.0676198587322117,1.0,19.0,High,11.0
570,Low,left,90.0,4.09813620891198,0.0,20.0,High,11.0
571,Low,left,90.0,3.7932872955486947,1.0,21.0,High,11.0
572,Low,left,90.0,0.6446279274588878,1.0,22.0,High,11.0
573,Low,left,90.0,1.6084444140564989,1.0,23.0,High,11.0
574,Low,right,90.0,0.1540177037884547,0.0,24.0,High,11.0
575,Low,right,90.0,3.2853943155857417,0.0,25.0,High,11.0
576,Low,right,90.0,1.6960639989392559,0.0,26.0,High,11.0
577,Low,right,90.0,-1.7187249784934915,0.0,27.0,High,11.0
578,Low,left,90.0,1.2977760252678268,0.0,28.0,High,11.0
579,Low,right,90.0,5.4434641935100885,0.0,29.0,High,11.0
580,Low,right,90.0,3.5177289480985423,0.0,30.0,High,11.0
581,Low,right,90.0,1.38262938108327,1.0,31.0,High,11.0
582,Low,left,90.0,0.9387191305814926,1.0,32.0,High,11.0
583,Low,left,90.0,0.9998018085339284,1.0,33.0,High,11.0
584,Low,left,90.0,0.8156955490539612,0.0,34.0,High,11.0
585,Low,right,90.0,2.811169565575717,0.0,35.0,High,11.0
586,Low,right,90.0,0.989779185654567,0.0,36.0,High,11.0
587,Low,right,90.0,-0.6274592934722099,1.0,37.0,High,11.0
588,Low,left,90.0,3.5474037750997205,0.0,38.0,High,11.0
589,Low,right,90.0,-0.16592088691493823,1.0,39.0,High,11.0
590,Low,right,90.0,9.440155848075777,0.0,40.0,High,11.0
591,Low,left,90.0,1.4054393085578951,1.0,41.0,High,11.0
592,Low,right,90.0,2.1275597402106445,0.0,42.0,High,11.0
593,Low,left,90.0,0.8176506859263679,0.0,43.0,High,11.0
594,Low,right,90.0,5.840051484448012,0.0,44.0,High,11.0
595,Low,right,90.0,1.4101882924652167,1.0,45.0,High,11.0
596,Low,right,90.0,5.414346674085461,1.0,46.0,High,11.0
597,Low,right,90.0,1.6113365915591178,1.0,47.0,High,11.0
598,Low,right,90.0,0.3233641949441619,1.0,48.0,High,11.0
599,Low,left,90.0,2.9541256435488172,0.0,49.0,High,11.0
