,Arousal,KeyPressed,LearningTime,RT,Response,TrialNumber,Valence,nBlock
0,High,right,30.0,1.7968801624464448,1.0,0.0,Low,0.0
1,High,left,30.0,2.249629265389542,0.0,1.0,Low,0.0
2,High,left,30.0,3.874566072984944,1.0,2.0,Low,0.0
3,High,left,30.0,-2.440130725066828,0.0,3.0,Low,0.0
4,High,left,30.0,6.295079276136464,0.0,4.0,Low,0.0
5,High,right,30.0,3.605424149642816,1.0,5.0,Low,0.0
6,High,right,30.0,3.811083992536685,0.0,6.0,Low,0.0
7,High,right,30.0,5.540611697796658,1.0,7.0,Low,0.0
8,High,left,30.0,0.4570791790294375,0.0,8.0,Low,0.0
9,High,right,30.0,3.5082578829617725,0.0,9.0,Low,0.0
10,High,right,30.0,1.0154002578829857,0.0,10.0,Low,0.0
11,High,left,30.0,3.258876779688932,1.0,11.0,Low,0.0
12,High,right,30.0,-0.04199144019065004,0.0,12.0,Low,0.0
13,High,left,30.0,-0.9537191630228701,0.0,13.0,Low,0.0
14,High,left,30.0,2.8118142461873576,1.0,14.0,Low,0.0
15,High,right,30.0,3.396390368024557,1.0,15.0,Low,0.0
16,High,left,30.0,3.0865445995570218,1.0,16.0,Low,0.0
17,High,left,30.0,-0.884819385573377,0.0,17.0,Low,0.0
18,High,left,30.0,-2.6041292752953167,0.0,18.0,Low,0.0
19,High,right,30.0,3.399556677776616,0.0,19.0,Low,0.0
20,High,right,30.0,5.028151017606989,0.0,20.0,Low,0.0
21,High,left,30.0,4.7170202493961355,1.0,21.0,Low,0.0
22,High,right,30.0,4.388669619129364,1.0,22.0,Low,0.0
23,High,left,30.0,0.11127076457369656,0.0,23.0,Low,0.0
24,High,right,30.0,4.8940335632654985,0.0,24.0,Low,0.0
25,High,left,30.0,6.348257841225035,1.0,25.0,Low,0.0
26,High,left,30.0,2.1203049326154053,1.0,26.0,Low,0.0
27,High,right,30.0,1.0353878714414582,1.0,27.0,Low,0.0
28,High,right,30.0,-0.4270110664260507,1.0,28.0,Low,0.0
29,High,right,30.0,-1.5086081075389766,1.0,29.0,Low,0.0
30,High,right,30.0,2.379481810256608,0.0,30.0,Low,0.0
31,High,right,30.0,3.6213357295966997,0.0,31.0,Low,0.0
32,High,right,30.0,1.9241753790596907,1.0,32.0,Low,0.0
33,High,left,30.0,-1.5233947566645167,1.0,33.0,Low,0.0
34,High,left,30.0,5.318444839199771,0.0,34.0,Low,0.0
35,High,right,30.0,-0.22898699961357583,0.0,35.0,Low,0.0
36,High,right,30.0,2.715297085125144,1.0,36.0,Low,0.0
37,High,left,30.0,0.8653929463576173,1.0,37.0,Low,0.0
38,High,right,30.0,0.10258799380120331,0.0,38.0,Low,0.0
39,High,left,30.0,4.229433974799299,1.0,39.0,Low,0.0
40,High,left,30.0,0.7288651347599102,0.0,40.0,Low,0.0
41,High,right,30.0,1.4873567482837249,0.0,41.0,Low,0.0
42,High,right,30.0,-2.0133600588470504,0.0,42.0,Low,0.0
43,High,right,30.0,2.6563372614152754,0.0,43.0,Low,0.0
44,High,left,30.0,3.015659008294438,0.0,44.0,Low,0.0
45,High,left,30.0,5.817587776361445,0.0,45.0,Low,0.0
46,High,right,30.0,3.206266973805755,1.0,46.0,Low,0.0
47,High,right,30.0,0.8071329940884701,0.0,47.0,Low,0.0
48,High,left,30.0,0.05287088942937568,0.0,48.0,Low,0.0
49,High,right,30.0,-2.0625203823116713,1.0,49.0,Low,0.0
50,Low,right,30.0,2.6706846601604504,1.0,0.0,High,1.0
51,Low,right,30.0,3.267447243361838,1.0,1.0,High,1.0
52,Low,left,30.0,2.799468649959827,1.0,2.0,High,1.0
53,Low,right,30.0,1.4109661391235626,1.0,3.0,High,1.0
54,Low,left,30.0,3.1007695732017106,0.0,4.0,High,1.0
55,Low,right,30.0,3.924406545185145,0.0,5.0,High,1.0
56,Low,left,30.0,0.9872877049093745,1.0,6.0,High,1.0
57,Low,right,30.0,0.6658118099392265,1.0,7.0,High,1.0
58,Low,left,30.0,2.8510351597644297,0.0,8.0,High,1.0
59,Low,left,30.0,-0.7659333504198371,1.0,9.0,High,1.0
60,Low,right,30.0,1.9078274608462191,1.0,10.0,High,1.0
61,Low,right,30.0,-1.148584059755103,0.0,11.0,High,1.0
62,Low,left,30.0,2.2591382621095724,1.0,12.0,High,1.0
63,Low,left,30.0,2.8252705460068444,1.0,13.0,High,1.0
64,Low,right,30.0,1.614905892872391,1.0,14.0,High,1.0
65,Low,left,30.0,-0.5899375397237896,0.0,15.0,High,1.0
66,Low,left,30.0,1.8608664275882958,1.0,16.0,High,1.0
67,Low,left,30.0,0.8454628787571778,1.0,17.0,High,1.0
68,Low,right,30.0,0.9134266816232051,0.0,18.0,High,1.0
69,Low,right,30.0,6.05715853294919,1.0,19.0,High,1.0
70,Low,right,30.0,0.15727882981259023,1.0,20.0,High,1.0
71,Low,right,30.0,1.813001692576919,0.0,21.0,High,1.0
72,Low,left,30.0,5.15793897643315,1.0,22.0,High,1.0
73,Low,right,30.0,2.3580232042533047,0.0,23.0,High,1.0
74,Low,right,30.0,1.5540335507535756,0.0,24.0,High,1.0
75,Low,left,30.0,-4.406616893564936,1.0,25.0,High,1.0
76,Low,left,30.0,2.7613629427376623,0.0,26.0,High,1.0
77,Low,left,30.0,0.7471843725461464,0.0,27.0,High,1.0
78,Low,left,30.0,0.9150809330210661,0.0,28.0,High,1.0
79,Low,left,30.0,3.385802655264551,1.0,29.0,High,1.0
80,Low,right,30.0,0.045913251914294295,1.0,30.0,High,1.0
81,Low,right,30.0,7.7932494165409825,0.0,31.0,High,1.0
82,Low,right,30.0,0.4932181008025083,1.0,32.0,High,1.0
83,Low,right,30.0,2.302028558957027,1.0,33.0,High,1.0
84,Low,right,30.0,3.2506325565565843,0.0,34.0,High,1.0
85,Low,left,30.0,6.40744321076542,0.0,35.0,High,1.0
86,Low,right,30.0,1.4249918999214175,0.0,36.0,High,1.0
87,Low,right,30.0,3.273273359079016,0.0,37.0,High,1.0
88,Low,left,30.0,3.126615980308411,1.0,38.0,High,1.0
89,Low,right,30.0,-0.35179012849358804,0.0,39.0,High,1.0
90,Low,left,30.0,1.0182588404489166,0.0,40.0,High,1.0
91,Low,left,30.0,0.7477830031843704,1.0,41.0,High,1.0
92,Low,right,30.0,2.38510128345741,1.0,42.0,High,1.0
93,Low,left,30.0,-0.04083182268705121,0.0,43.0,High,1.0
94,Low,left,30.0,1.8091256536139713,1.0,44.0,High,1.0
95,Low,right,30.0,4.529585599778273,0.0,45.0,High,1.0
96,Low,right,30.0,-1.1678798744594951,1.0,46.0,High,1.0
97,Low,left,30.0,1.612489150638977,1.0,47.0,High,1.0
98,Low,left,30.0,3.8014428786577836,0.0,48.0,High,1.0
99,Low,right,30.0,-0.9396599443587257,1.0,49.0,High,1.0
100,High,left,60.0,0.41297259678154896,1.0,0.0,Low,2.0
101,High,left,60.0,2.1769874002326235,0.0,1.0,Low,2.0
102,High,right,60.0,1.8707614974480835,1.0,2.0,Low,2.0
103,High,left,60.0,4.564529323346813,1.0,3.0,Low,2.0
104,High,left,60.0,0.7499275684436508,0.0,4.0,Low,2.0
105,High,right,60.0,2.834193129973638,0.0,5.0,Low,2.0
106,High,right,60.0,-0.38804590983967424,1.0,6.0,Low,2.0
107,High,right,60.0,1.5907195454268357,0.0,7.0,Low,2.0
108,High,left,60.0,2.073566470901537,0.0,8.0,Low,2.0
109,High,right,60.0,-0.8699962647620934,0.0,9.0,Low,2.0
110,High,left,60.0,3.1485532412741195,1.0,10.0,Low,2.0
111,High,right,60.0,2.225513152176871,0.0,11.0,Low,2.0
112,High,right,60.0,-0.08030736260750837,0.0,12.0,Low,2.0
113,High,left,60.0,1.9859543932522383,0.0,13.0,Low,2.0
114,High,left,60.0,-0.7605913407163103,0.0,14.0,Low,2.0
115,High,left,60.0,2.8988465588366443,0.0,15.0,Low,2.0
116,High,left,60.0,1.79598549865163,1.0,16.0,Low,2.0
117,High,right,60.0,3.0543344365227476,1.0,17.0,Low,2.0
118,High,left,60.0,0.4876513608777633,0.0,18.0,Low,2.0
119,High,right,60.0,3.334461429274045,0.0,19.0,Low,2.0
120,High,right,60.0,5.453759362979477,1.0,20.0,Low,2.0
121,High,right,60.0,2.492235876570531,0.0,21.0,Low,2.0
122,High,right,60.0,-0.35121913150145745,1.0,22.0,Low,2.0
123,High,left,60.0,5.459598678824422,1.0,23.0,Low,2.0
124,High,right,60.0,1.9694335329683224,0.0,24.0,Low,2.0
125,High,left,60.0,3.0008299891291363,0.0,25.0,Low,2.0
126,High,right,60.0,1.1474809136142219,1.0,26.0,Low,2.0
127,High,right,60.0,1.903823130030632,1.0,27.0,Low,2.0
128,High,right,60.0,1.5343330894990292,1.0,28.0,Low,2.0
129,High,right,60.0,9.348827339168352,1.0,29.0,Low,2.0
130,High,right,60.0,-3.047736622221124,1.0,30.0,Low,2.0
131,High,left,60.0,4.461151370925187,1.0,31.0,Low,2.0
132,High,left,60.0,2.7270808385548477,0.0,32.0,Low,2.0
133,High,left,60.0,3.968809710125213,0.0,33.0,Low,2.0
134,High,right,60.0,4.368366191584939,0.0,34.0,Low,2.0
135,High,right,60.0,6.34022373194699,0.0,35.0,Low,2.0
136,High,right,60.0,4.994029997283787,1.0,36.0,Low,2.0
137,High,right,60.0,0.7507700070901507,0.0,37.0,Low,2.0
138,High,right,60.0,2.8731086677175015,0.0,38.0,Low,2.0
139,High,left,60.0,1.9766610029000717,0.0,39.0,Low,2.0
140,High,left,60.0,-0.904828620331565,0.0,40.0,Low,2.0
141,High,right,60.0,1.1396711269271325,1.0,41.0,Low,2.0
142,High,left,60.0,-0.22529576089801484,0.0,42.0,Low,2.0
143,High,left,60.0,3.353174668180634,0.0,43.0,Low,2.0
144,High,right,60.0,3.625803287267479,0.0,44.0,Low,2.0
145,High,right,60.0,4.020781692730962,1.0,45.0,Low,2.0
146,High,left,60.0,0.002622164685022854,1.0,46.0,Low,2.0
147,High,right,60.0,1.0388956286546427,0.0,47.0,Low,2.0
148,High,left,60.0,2.661549481854731,1.0,48.0,Low,2.0
149,High,right,60.0,1.9771305308929765,1.0,49.0,Low,2.0
150,Low,right,30.0,2.7920793244463247,1.0,0.0,Low,3.0
151,Low,left,30.0,1.8375077723840674,0.0,1.0,Low,3.0
152,Low,left,30.0,3.7379061937194504,0.0,2.0,Low,3.0
153,Low,right,30.0,1.797827018809931,1.0,3.0,Low,3.0
154,Low,right,30.0,2.3519780294494015,1.0,4.0,Low,3.0
155,Low,left,30.0,7.7951027173146965,1.0,5.0,Low,3.0
156,Low,left,30.0,2.4190077563616676,0.0,6.0,Low,3.0
157,Low,right,30.0,2.2832588284857542,0.0,7.0,Low,3.0
158,Low,left,30.0,0.7710400204654413,0.0,8.0,Low,3.0
159,Low,right,30.0,1.8519159718789098,1.0,9.0,Low,3.0
160,Low,left,30.0,4.840766642799945,0.0,10.0,Low,3.0
161,Low,left,30.0,0.648428784143823,1.0,11.0,Low,3.0
162,Low,right,30.0,1.2311681032568131,1.0,12.0,Low,3.0
163,Low,left,30.0,-3.1449701137156216,1.0,13.0,Low,3.0
164,Low,left,30.0,1.2854800751295161,1.0,14.0,Low,3.0
165,Low,left,30.0,5.563413345897152,1.0,15.0,Low,3.0
166,Low,left,30.0,2.280408126083527,0.0,16.0,Low,3.0
167,Low,right,30.0,0.8450216541463915,1.0,17.0,Low,3.0
168,Low,right,30.0,2.76693678450648,1.0,18.0,Low,3.0
169,Low,left,30.0,4.805158314085952,0.0,19.0,Low,3.0
170,Low,left,30.0,2.7395420941797646,0.0,20.0,Low,3.0
171,Low,right,30.0,1.7504637505133993,0.0,21.0,Low,3.0
172,Low,left,30.0,4.461834695626987,1.0,22.0,Low,3.0
173,Low,right,30.0,5.060388408736821,1.0,23.0,Low,3.0
174,Low,right,30.0,4.29215461915113,1.0,24.0,Low,3.0
175,Low,right,30.0,0.9055282930372961,1.0,25.0,Low,3.0
176,Low,left,30.0,2.742372651894013,1.0,26.0,Low,3.0
177,Low,left,30.0,-1.9062534431956712,1.0,27.0,Low,3.0
178,Low,right,30.0,1.9129323569438508,0.0,28.0,Low,3.0
179,Low,right,30.0,3.162834805833864,0.0,29.0,Low,3.0
180,Low,right,30.0,3.5280031045174263,1.0,30.0,Low,3.0
181,Low,right,30.0,-0.5411277751504879,1.0,31.0,Low,3.0
182,Low,left,30.0,8.18376564626698,0.0,32.0,Low,3.0
183,Low,left,30.0,0.5001993868786268,1.0,33.0,Low,3.0
184,Low,right,30.0,0.8297147194298755,1.0,34.0,Low,3.0
185,Low,right,30.0,0.5292808259985486,1.0,35.0,Low,3.0
186,Low,right,30.0,0.42866689776252276,1.0,36.0,Low,3.0
187,Low,left,30.0,2.0765333055847766,0.0,37.0,Low,3.0
188,Low,left,30.0,4.425519784586106,1.0,38.0,Low,3.0
189,Low,left,30.0,-0.2895867867950699,1.0,39.0,Low,3.0
190,Low,right,30.0,5.63759304564092,1.0,40.0,Low,3.0
191,Low,left,30.0,1.7731956851999588,1.0,41.0,Low,3.0
192,Low,left,30.0,0.13019234887901399,0.0,42.0,Low,3.0
193,Low,right,30.0,-2.2449755586011944,1.0,43.0,Low,3.0
194,Low,right,30.0,-0.44832992747331124,1.0,44.0,Low,3.0
195,Low,right,30.0,0.7959864112166009,0.0,45.0,Low,3.0
196,Low,left,30.0,0.10317841947248119,0.0,46.0,Low,3.0
197,Low,right,30.0,0.2857153875237839,0.0,47.0,Low,3.0
198,Low,left,30.0,3.477527931732561,0.0,48.0,Low,3.0
199,Low,right,30.0,0.9721392082654261,0.0,49.0,Low,3.0
200,High,left,30.0,1.2749064549056843,1.0,0.0,High,4.0
201,High,left,30.0,0.554002918475807,1.0,1.0,High,4.0
202,High,left,30.0,3.6839488323448255,1.0,2.0,High,4.0
203,High,left,30.0,3.910789139923004,0.0,3.0,High,4.0
204,High,right,30.0,0.1828656991474571,1.0,4.0,High,4.0
205,High,right,30.0,1.9410660153769557,0.0,5.0,High,4.0
206,High,left,30.0,3.601690784596852,0.0,6.0,High,4.0
207,High,left,30.0,-2.6678233582478845,0.0,7.0,High,4.0
208,High,left,30.0,-0.8620585873338942,1.0,8.0,High,4.0
209,High,right,30.0,3.420572617056946,0.0,9.0,High,4.0
210,High,right,30.0,-1.725315826172634,1.0,10.0,High,4.0
211,High,left,30.0,1.2180505229769203,1.0,11.0,High,4.0
212,High,right,30.0,2.2244972969105787,0.0,12.0,High,4.0
213,High,right,30.0,-1.6419690890598426,1.0,13.0,High,4.0
214,High,left,30.0,0.1400847670777372,0.0,14.0,High,4.0
215,High,left,30.0,-1.2480585510238615,1.0,15.0,High,4.0
216,High,right,30.0,0.41914625750361445,1.0,16.0,High,4.0
217,High,left,30.0,-0.25426381026606837,1.0,17.0,High,4.0
218,High,left,30.0,-1.3025749756787959,1.0,18.0,High,4.0
219,High,left,30.0,2.7260611807484687,0.0,19.0,High,4.0
220,High,right,30.0,1.9619455258751737,1.0,20.0,High,4.0
221,High,left,30.0,-0.5078399267199019,1.0,21.0,High,4.0
222,High,left,30.0,5.358331899166409,1.0,22.0,High,4.0
223,High,right,30.0,5.499291117010618,0.0,23.0,High,4.0
224,High,right,30.0,5.070353160439968,0.0,24.0,High,4.0
225,High,right,30.0,4.589902278554385,1.0,25.0,High,4.0
226,High,left,30.0,2.903380109689911,1.0,26.0,High,4.0
227,High,right,30.0,4.6717617797245685,1.0,27.0,High,4.0
228,High,left,30.0,-0.5791076330196478,1.0,28.0,High,4.0
229,High,right,30.0,2.004535487293289,0.0,29.0,High,4.0
230,High,right,30.0,3.678761983535976,1.0,30.0,High,4.0
231,High,right,30.0,-0.2880090184133097,0.0,31.0,High,4.0
232,High,left,30.0,2.83323701883481,0.0,32.0,High,4.0
233,High,right,30.0,6.281825921735854,0.0,33.0,High,4.0
234,High,right,30.0,1.629142702948645,0.0,34.0,High,4.0
235,High,left,30.0,1.4175285641994964,1.0,35.0,High,4.0
236,High,right,30.0,2.197464901798548,0.0,36.0,High,4.0
237,High,left,30.0,3.446050068768108,1.0,37.0,High,4.0
238,High,right,30.0,3.5105063027327854,0.0,38.0,High,4.0
239,High,left,30.0,0.2569366332395928,1.0,39.0,High,4.0
240,High,left,30.0,0.5229728359015582,1.0,40.0,High,4.0
241,High,left,30.0,0.21467172547224478,0.0,41.0,High,4.0
242,High,right,30.0,3.2053997752358576,0.0,42.0,High,4.0
243,High,left,30.0,2.7564744605047538,0.0,43.0,High,4.0
244,High,left,30.0,-2.92458056524213,0.0,44.0,High,4.0
245,High,right,30.0,2.317838817992517,1.0,45.0,High,4.0
246,High,left,30.0,2.2841380136454092,0.0,46.0,High,4.0
247,High,right,30.0,4.862582939319531,1.0,47.0,High,4.0
248,High,left,30.0,2.340857975402253,1.0,48.0,High,4.0
249,High,right,30.0,1.0830970656341496,0.0,49.0,High,4.0
250,Low,left,60.0,0.7709383648895566,0.0,0.0,High,5.0
251,Low,left,60.0,3.0524353405370763,1.0,1.0,High,5.0
252,Low,right,60.0,-0.051306992195711665,0.0,2.0,High,5.0
253,Low,right,60.0,-1.8425543238344304,1.0,3.0,High,5.0
254,Low,right,60.0,3.402196628193658,1.0,4.0,High,5.0
255,Low,right,60.0,1.4957414241070182,0.0,5.0,High,5.0
256,Low,left,60.0,2.077359229134192,0.0,6.0,High,5.0
257,Low,left,60.0,2.024846229788909,0.0,7.0,High,5.0
258,Low,right,60.0,2.137550795373816,0.0,8.0,High,5.0
259,Low,left,60.0,3.6704867247535917,0.0,9.0,High,5.0
260,Low,left,60.0,2.8993669342925843,0.0,10.0,High,5.0
261,Low,left,60.0,4.809717624711774,1.0,11.0,High,5.0
262,Low,right,60.0,3.650160763411053,0.0,12.0,High,5.0
263,Low,right,60.0,2.545780040793412,1.0,13.0,High,5.0
264,Low,left,60.0,-0.798292894017306,0.0,14.0,High,5.0
265,Low,left,60.0,-0.6511375734684823,1.0,15.0,High,5.0
266,Low,left,60.0,3.1044467647314877,0.0,16.0,High,5.0
267,Low,left,60.0,6.011933892238531,1.0,17.0,High,5.0
268,Low,right,60.0,1.6038340114479253,0.0,18.0,High,5.0
269,Low,right,60.0,2.8295029921768755,1.0,19.0,High,5.0
270,Low,right,60.0,2.854779223624378,1.0,20.0,High,5.0
271,Low,right,60.0,2.267859132339544,0.0,21.0,High,5.0
272,Low,right,60.0,2.7200848734216874,0.0,22.0,High,5.0
273,Low,right,60.0,-2.5219084423168154,1.0,23.0,High,5.0
274,Low,left,60.0,-1.077959795993527,0.0,24.0,High,5.0
275,Low,left,60.0,-0.9162756928670934,0.0,25.0,High,5.0
276,Low,left,60.0,3.822911616868849,1.0,26.0,High,5.0
277,Low,right,60.0,0.21585955572726467,0.0,27.0,High,5.0
278,Low,left,60.0,1.8529459598665714,1.0,28.0,High,5.0
279,Low,left,60.0,6.7660392223200985,1.0,29.0,High,5.0
280,Low,left,60.0,-0.6213788650037477,1.0,30.0,High,5.0
281,Low,right,60.0,1.845348105884197,0.0,31.0,High,5.0
282,Low,left,60.0,4.049060293734263,1.0,32.0,High,5.0
283,Low,left,60.0,2.7223247804192656,1.0,33.0,High,5.0
284,Low,left,60.0,5.304603372198349,0.0,34.0,High,5.0
285,Low,left,60.0,2.225966186009371,1.0,35.0,High,5.0
286,Low,right,60.0,2.779260965514579,1.0,36.0,High,5.0
287,Low,left,60.0,-1.6119465207323798,0.0,37.0,High,5.0
288,Low,right,60.0,3.581489350712259,0.0,38.0,High,5.0
289,Low,right,60.0,1.5079508923348133,1.0,39.0,High,5.0
290,Low,left,60.0,2.095702741970372,0.0,40.0,High,5.0
291,Low,right,60.0,-0.5133391899417088,0.0,41.0,High,5.0
292,Low,right,60.0,6.957118241092042,1.0,42.0,High,5.0
293,Low,right,60.0,5.740454842966491,0.0,43.0,High,5.0
294,Low,right,60.0,0.04295978076298912,1.0,44.0,High,5.0
295,Low,left,60.0,0.14432453727767447,0.0,45.0,High,5.0
296,Low,right,60.0,3.5810799189321396,1.0,46.0,High,5.0
297,Low,right,60.0,-0.32839130725941845,0.0,47.0,High,5.0
298,Low,left,60.0,2.393975722122006,1.0,48.0,High,5.0
299,Low,left,60.0,2.6807701180718397,0.0,49.0,High,5.0
300,High,left,60.0,-0.507680282536628,1.0,0.0,High,6.0
301,High,left,60.0,2.490424131980269,0.0,1.0,High,6.0
302,High,right,60.0,-0.9888188810689367,0.0,2.0,High,6.0
303,High,left,60.0,2.6561474454428495,0.0,3.0,High,6.0
304,High,left,60.0,0.6735552131983273,1.0,4.0,High,6.0
305,High,left,60.0,3.3576551488602417,0.0,5.0,High,6.0
306,High,right,60.0,-3.138426988178735,1.0,6.0,High,6.0
307,High,right,60.0,3.0705106253286636,0.0,7.0,High,6.0
308,High,left,60.0,2.8530341865986095,0.0,8.0,High,6.0
309,High,right,60.0,2.1283555124778015,0.0,9.0,High,6.0
310,High,right,60.0,0.3899350400155621,1.0,10.0,High,6.0
311,High,left,60.0,4.387189713492713,0.0,11.0,High,6.0
312,High,left,60.0,2.254933609695343,1.0,12.0,High,6.0
313,High,left,60.0,0.20933756620715638,0.0,13.0,High,6.0
314,High,right,60.0,-2.6737597527882433,0.0,14.0,High,6.0
315,High,left,60.0,4.24031401835489,1.0,15.0,High,6.0
316,High,right,60.0,-0.11314262760780114,0.0,16.0,High,6.0
317,High,right,60.0,-2.662832685828674,0.0,17.0,High,6.0
318,High,right,60.0,1.2670298080905047,0.0,18.0,High,6.0
319,High,left,60.0,3.327525064748845,1.0,19.0,High,6.0
320,High,right,60.0,4.4455734188246545,1.0,20.0,High,6.0
321,High,left,60.0,-0.030150241806564004,1.0,21.0,High,6.0
322,High,left,60.0,0.25155209085821495,0.0,22.0,High,6.0
323,High,left,60.0,2.9183579943646225,1.0,23.0,High,6.0
324,High,right,60.0,1.6796589826377661,1.0,24.0,High,6.0
325,High,left,60.0,2.3943991727387006,0.0,25.0,High,6.0
326,High,right,60.0,0.46748096136951034,1.0,26.0,High,6.0
327,High,left,60.0,1.3787968269494284,0.0,27.0,High,6.0
328,High,right,60.0,6.129128530174716,1.0,28.0,High,6.0
329,High,left,60.0,1.4771153726927313,0.0,29.0,High,6.0
330,High,left,60.0,2.6509865577861325,1.0,30.0,High,6.0
331,High,left,60.0,1.8911064909948019,1.0,31.0,High,6.0
332,High,right,60.0,2.5384664521121802,1.0,32.0,High,6.0
333,High,right,60.0,0.9897939267676127,1.0,33.0,High,6.0
334,High,right,60.0,1.2123856998039853,0.0,34.0,High,6.0
335,High,left,60.0,3.9172619020328088,0.0,35.0,High,6.0
336,High,right,60.0,1.6682746717282289,0.0,36.0,High,6.0
337,High,right,60.0,-2.3504635077600047,1.0,37.0,High,6.0
338,High,left,60.0,1.4704820934919869,0.0,38.0,High,6.0
339,High,right,60.0,0.6286647730487354,0.0,39.0,High,6.0
340,High,right,60.0,-0.9131621130009664,1.0,40.0,High,6.0
341,High,left,60.0,0.8838775717389598,0.0,41.0,High,6.0
342,High,left,60.0,3.4823150767919904,1.0,42.0,High,6.0
343,High,left,60.0,1.7400988793824443,1.0,43.0,High,6.0
344,High,left,60.0,1.6007338943724179,0.0,44.0,High,6.0
345,High,left,60.0,2.899819758823761,1.0,45.0,High,6.0
346,High,left,60.0,5.965995900388176,0.0,46.0,High,6.0
347,High,right,60.0,4.802056121615021,1.0,47.0,High,6.0
348,High,left,60.0,3.7018718166662756,1.0,48.0,High,6.0
349,High,right,60.0,4.752876361748182,1.0,49.0,High,6.0
350,Low,left,60.0,2.1361017531016,1.0,0.0,Low,7.0
351,Low,right,60.0,-1.259590680590323,1.0,1.0,Low,7.0
352,Low,right,60.0,2.2141062206744424,1.0,2.0,Low,7.0
353,Low,right,60.0,4.2219503772873574,0.0,3.0,Low,7.0
354,Low,left,60.0,-3.6450890137809044,1.0,4.0,Low,7.0
355,Low,right,60.0,3.266293219386428,0.0,5.0,Low,7.0
356,Low,right,60.0,-1.3708076926682593,0.0,6.0,Low,7.0
357,Low,left,60.0,2.0988987981633933,1.0,7.0,Low,7.0
358,Low,left,60.0,3.2922602016041895,1.0,8.0,Low,7.0
359,Low,left,60.0,-0.8417117692395188,0.0,9.0,Low,7.0
360,Low,left,60.0,-0.04689155250214183,0.0,10.0,Low,7.0
361,Low,right,60.0,4.719988485861252,1.0,11.0,Low,7.0
362,Low,left,60.0,4.55257564817001,0.0,12.0,Low,7.0
363,Low,left,60.0,4.3737927251068704,0.0,13.0,Low,7.0
364,Low,left,60.0,-0.5436366116848179,0.0,14.0,Low,7.0
365,Low,left,60.0,3.7138146300043995,0.0,15.0,Low,7.0
366,Low,left,60.0,-0.1749225172340454,0.0,16.0,Low,7.0
367,Low,left,60.0,1.2172627316705555,0.0,17.0,Low,7.0
368,Low,right,60.0,1.0885122929993947,0.0,18.0,Low,7.0
369,Low,left,60.0,1.5893126024715893,1.0,19.0,Low,7.0
370,Low,right,60.0,3.720845827906915,1.0,20.0,Low,7.0
371,Low,left,60.0,6.454816852605477,0.0,21.0,Low,7.0
372,Low,right,60.0,3.5403858549332936,1.0,22.0,Low,7.0
373,Low,right,60.0,0.9568882822774752,1.0,23.0,Low,7.0
374,Low,left,60.0,3.1530035113763306,0.0,24.0,Low,7.0
375,Low,left,60.0,7.42643377005558,0.0,25.0,Low,7.0
376,Low,left,60.0,0.9411918064367593,1.0,26.0,Low,7.0
377,Low,left,60.0,3.945536891730118,0.0,27.0,Low,7.0
378,Low,left,60.0,-2.009087847289102,1.0,28.0,Low,7.0
379,Low,right,60.0,0.20662838542678497,1.0,29.0,Low,7.0
380,Low,right,60.0,4.9045723351637776,0.0,30.0,Low,7.0
381,Low,right,60.0,3.1344962074520217,1.0,31.0,Low,7.0
382,Low,right,60.0,1.295346949924649,1.0,32.0,Low,7.0
383,Low,left,60.0,0.5721536189939203,0.0,33.0,Low,7.0
384,Low,right,60.0,4.119268878329168,0.0,34.0,Low,7.0
385,Low,right,60.0,-0.9362999776153753,0.0,35.0,Low,7.0
386,Low,left,60.0,2.5130313746821598,1.0,36.0,Low,7.0
387,Low,left,60.0,4.713984589377064,1.0,37.0,Low,7.0
388,Low,left,60.0,-0.8519309754785755,0.0,38.0,Low,7.0
389,Low,right,60.0,1.835494431282062,0.0,39.0,Low,7.0
390,Low,left,60.0,0.11077505756981965,1.0,40.0,Low,7.0
391,Low,left,60.0,1.9014993073696178,1.0,41.0,Low,7.0
392,Low,right,60.0,6.851411936246125,1.0,42.0,Low,7.0
393,Low,left,60.0,2.610607055600407,0.0,43.0,Low,7.0
394,Low,right,60.0,4.455145394518486,0.0,44.0,Low,7.0
395,Low,right,60.0,0.6492715564336476,1.0,45.0,Low,7.0
396,Low,left,60.0,-0.5238200042099672,1.0,46.0,Low,7.0
397,Low,left,60.0,4.254085953805167,0.0,47.0,Low,7.0
398,Low,right,60.0,3.7006047881055046,1.0,48.0,Low,7.0
399,Low,left,60.0,2.565184795144608,1.0,49.0,Low,7.0
400,High,right,90.0,6.185100209298911,0.0,0.0,Low,8.0
401,High,left,90.0,2.0033837856982553,0.0,1.0,Low,8.0
402,High,right,90.0,1.5185084621680098,1.0,2.0,Low,8.0
403,High,left,90.0,3.1851784893969657,1.0,3.0,Low,8.0
404,High,left,90.0,1.4174351851980407,1.0,4.0,Low,8.0
405,High,right,90.0,0.15248606933128395,0.0,5.0,Low,8.0
406,High,left,90.0,3.9064659653759337,0.0,6.0,Low,8.0
407,High,right,90.0,2.4874933063998044,0.0,7.0,Low,8.0
408,High,right,90.0,0.7351832578632138,0.0,8.0,Low,8.0
409,High,left,90.0,1.4146888022231012,1.0,9.0,Low,8.0
410,High,left,90.0,1.483088870713189,0.0,10.0,Low,8.0
411,High,right,90.0,0.8484555172192938,1.0,11.0,Low,8.0
412,High,right,90.0,3.3319992997252594,1.0,12.0,Low,8.0
413,High,left,90.0,3.7864527042136187,1.0,13.0,Low,8.0
414,High,right,90.0,1.5225441632715766,0.0,14.0,Low,8.0
415,High,left,90.0,1.8111435651741212,0.0,15.0,Low,8.0
416,High,right,90.0,2.469338784295343,0.0,16.0,Low,8.0
417,High,left,90.0,-0.18049232605058418,0.0,17.0,Low,8.0
418,High,left,90.0,3.9442315228516347,0.0,18.0,Low,8.0
419,High,right,90.0,2.2026821402891703,0.0,19.0,Low,8.0
420,High,left,90.0,1.502192611912745,1.0,20.0,Low,8.0
421,High,left,90.0,4.188859419407327,1.0,21.0,Low,8.0
422,High,right,90.0,0.45648233739078536,0.0,22.0,Low,8.0
423,High,left,90.0,2.543906235392045,1.0,23.0,Low,8.0
424,High,right,90.0,3.4236024534348535,0.0,24.0,Low,8.0
425,High,left,90.0,1.3008606060676262,1.0,25.0,Low,8.0
426,High,right,90.0,6.367132317960241,0.0,26.0,Low,8.0
427,High,right,90.0,-3.460575428336923,1.0,27.0,Low,8.0
428,High,left,90.0,1.5841326999226903,0.0,28.0,Low,8.0
429,High,left,90.0,4.869898329079216,1.0,29.0,Low,8.0
430,High,left,90.0,-0.7421798661144374,0.0,30.0,Low,8.0
431,High,left,90.0,3.488935774611914,1.0,31.0,Low,8.0
432,High,left,90.0,-1.307300189733708,0.0,32.0,Low,8.0
433,High,left,90.0,2.414358845165273,0.0,33.0,Low,8.0
434,High,left,90.0,3.170630756829496,1.0,34.0,Low,8.0
435,High,right,90.0,-0.559814003003257,0.0,35.0,Low,8.0
436,High,left,90.0,2.0866291998922573,1.0,36.0,Low,8.0
437,High,left,90.0,3.5383317768866265,0.0,37.0,Low,8.0
438,High,left,90.0,2.93985451626335,1.0,38.0,Low,8.0
439,High,left,90.0,-0.9212535996515143,0.0,39.0,Low,8.0
440,High,left,90.0,3.7361616043962504,0.0,40.0,Low,8.0
441,High,left,90.0,1.847706135873245,1.0,41.0,Low,8.0
442,High,right,90.0,0.7033691474201273,0.0,42.0,Low,8.0
443,High,left,90.0,1.1582804816966452,0.0,43.0,Low,8.0
444,High,left,90.0,4.3025039351592955,0.0,44.0,Low,8.0
445,High,left,90.0,-1.08860330817537,1.0,45.0,Low,8.0
446,High,left,90.0,-0.8346743581663638,1.0,46.0,Low,8.0
447,High,left,90.0,5.605810490328107,1.0,47.0,Low,8.0
448,High,left,90.0,3.3968244861692014,0.0,48.0,Low,8.0
449,High,right,90.0,3.4801585727434836,0.0,49.0,Low,8.0
450,Low,right,90.0,3.68148666490609,1.0,0.0,Low,9.0
451,Low,right,90.0,2.0336215747258937,1.0,1.0,Low,9.0
452,Low,right,90.0,3.5460454475921797,1.0,2.0,Low,9.0
453,Low,right,90.0,1.9966506318945452,1.0,3.0,Low,9.0
454,Low,left,90.0,2.110443549594434,0.0,4.0,Low,9.0
455,Low,left,90.0,-1.9153084862050427,0.0,5.0,Low,9.0
456,Low,right,90.0,3.3227325704577915,0.0,6.0,Low,9.0
457,Low,right,90.0,4.977474479698639,0.0,7.0,Low,9.0
458,Low,right,90.0,3.880053616738035,0.0,8.0,Low,9.0
459,Low,left,90.0,3.0864440635790404,1.0,9.0,Low,9.0
460,Low,right,90.0,4.883039295981885,1.0,10.0,Low,9.0
461,Low,left,90.0,9.010834363621006,0.0,11.0,Low,9.0
462,Low,right,90.0,2.8471745794211882,0.0,12.0,Low,9.0
463,Low,right,90.0,2.2161295547228357,0.0,13.0,Low,9.0
464,Low,right,90.0,1.5526864718030398,1.0,14.0,Low,9.0
465,Low,left,90.0,3.282612549814885,1.0,15.0,Low,9.0
466,Low,left,90.0,-2.1428150698438015,0.0,16.0,Low,9.0
467,Low,right,90.0,-2.113143118099372,1.0,17.0,Low,9.0
468,Low,left,90.0,2.287644988386366,1.0,18.0,Low,9.0
469,Low,right,90.0,3.0514934618476426,0.0,19.0,Low,9.0
470,Low,right,90.0,1.4674057503576368,1.0,20.0,Low,9.0
471,Low,right,90.0,3.653086797493188,0.0,21.0,Low,9.0
472,Low,right,90.0,3.805595253009396,1.0,22.0,Low,9.0
473,Low,left,90.0,-0.09381783010654487,1.0,23.0,Low,9.0
474,Low,right,90.0,3.3826300763684487,0.0,24.0,Low,9.0
475,Low,right,90.0,1.184056063237394,0.0,25.0,Low,9.0
476,Low,right,90.0,2.5285522106817204,1.0,26.0,Low,9.0
477,Low,left,90.0,-0.39447704002633177,1.0,27.0,Low,9.0
478,Low,left,90.0,-0.44030903536732824,0.0,28.0,Low,9.0
479,Low,right,90.0,1.4207155093149404,1.0,29.0,Low,9.0
480,Low,left,90.0,-0.38527268016016425,0.0,30.0,Low,9.0
481,Low,left,90.0,2.0334436279650365,1.0,31.0,Low,9.0
482,Low,right,90.0,3.304709586319585,0.0,32.0,Low,9.0
483,Low,right,90.0,0.35450175118150584,1.0,33.0,Low,9.0
484,Low,left,90.0,-3.565135073633488,0.0,34.0,Low,9.0
485,Low,left,90.0,-2.636753822827059,0.0,35.0,Low,9.0
486,Low,left,90.0,3.5716247129033776,0.0,36.0,Low,9.0
487,Low,right,90.0,3.6795030979703447,0.0,37.0,Low,9.0
488,Low,right,90.0,1.9898676174696144,0.0,38.0,Low,9.0
489,Low,left,90.0,-0.6285064242169165,1.0,39.0,Low,9.0
490,Low,left,90.0,3.2296415201010125,0.0,40.0,Low,9.0
491,Low,left,90.0,4.140661813140031,1.0,41.0,Low,9.0
492,Low,right,90.0,-0.5680386222115659,0.0,42.0,Low,9.0
493,Low,right,90.0,2.537338332534845,1.0,43.0,Low,9.0
494,Low,left,90.0,1.5720352538479774,0.0,44.0,Low,9.0
495,Low,right,90.0,0.49802029009797577,1.0,45.0,Low,9.0
496,Low,left,90.0,2.2538942087556024,0.0,46.0,Low,9.0
497,Low,right,90.0,5.047511548894671,1.0,47.0,Low,9.0
498,Low,left,90.0,-0.3159855048369058,1.0,48.0,Low,9.0
499,Low,right,90.0,1.5663857786242277,1.0,49.0,Low,9.0
500,High,left,90.0,-1.8639490601439241,1.0,0.0,High,10.0
501,High,left,90.0,3.198818897926288,0.0,1.0,High,10.0
502,High,right,90.0,2.9801341762092965,1.0,2.0,High,10.0
503,High,right,90.0,1.545904476772907,1.0,3.0,High,10.0
504,High,left,90.0,3.6116577203235467,1.0,4.0,High,10.0
505,High,left,90.0,5.555103309766414,0.0,5.0,High,10.0
506,High,right,90.0,1.0153723758124111,1.0,6.0,High,10.0
507,High,right,90.0,0.3893699961431062,0.0,7.0,High,10.0
508,High,right,90.0,2.0268260986545794,0.0,8.0,High,10.0
509,High,right,90.0,1.426255056717952,1.0,9.0,High,10.0
510,High,left,90.0,-3.5973438698010156,0.0,10.0,High,10.0
511,High,left,90.0,2.8600754687807637,1.0,11.0,High,10.0
512,High,right,90.0,-0.3012928127913539,1.0,12.0,High,10.0
513,High,left,90.0,0.2120207754911687,0.0,13.0,High,10.0
514,High,left,90.0,1.6804042059735829,1.0,14.0,High,10.0
515,High,right,90.0,4.114108395936623,0.0,15.0,High,10.0
516,High,right,90.0,-2.228832378934261,1.0,16.0,High,10.0
517,High,right,90.0,2.1004803162072436,1.0,17.0,High,10.0
518,High,right,90.0,4.9806700795735885,0.0,18.0,High,10.0
519,High,right,90.0,1.502130047437653,0.0,19.0,High,10.0
520,High,right,90.0,6.34599169358505,1.0,20.0,High,10.0
521,High,right,90.0,1.8777304723616073,1.0,21.0,High,10.0
522,High,right,90.0,4.3312849027994655,1.0,22.0,High,10.0
523,High,left,90.0,1.8536542617319367,1.0,23.0,High,10.0
524,High,right,90.0,0.43216522039186445,0.0,24.0,High,10.0
525,High,left,90.0,-0.34166958345401555,1.0,25.0,High,10.0
526,High,right,90.0,3.992735202273537,1.0,26.0,High,10.0
527,High,left,90.0,4.807392298862289,0.0,27.0,High,10.0
528,High,right,90.0,1.9110698243474622,1.0,28.0,High,10.0
529,High,left,90.0,4.662622530203089,1.0,29.0,High,10.0
530,High,left,90.0,5.198493948926481,0.0,30.0,High,10.0
531,High,left,90.0,3.645482388102704,0.0,31.0,High,10.0
532,High,right,90.0,1.7984188162406223,0.0,32.0,High,10.0
533,High,right,90.0,5.882508413552581,0.0,33.0,High,10.0
534,High,left,90.0,1.3984689910477606,1.0,34.0,High,10.0
535,High,right,90.0,0.5283142855678673,0.0,35.0,High,10.0
536,High,right,90.0,3.2735306001863513,1.0,36.0,High,10.0
537,High,right,90.0,-0.9623159746738832,0.0,37.0,High,10.0
538,High,left,90.0,1.55737741685181,0.0,38.0,High,10.0
539,High,right,90.0,4.334530809451593,1.0,39.0,High,10.0
540,High,right,90.0,-1.858751048454401,1.0,40.0,High,10.0
541,High,left,90.0,1.0690018592219932,1.0,41.0,High,10.0
542,High,right,90.0,-0.1293633652387567,0.0,42.0,High,10.0
543,High,left,90.0,-0.3949800791133993,1.0,43.0,High,10.0
544,High,left,90.0,2.669434041816968,0.0,44.0,High,10.0
545,High,right,90.0,2.2049376882871505,0.0,45.0,High,10.0
546,High,right,90.0,1.9527615575933583,1.0,46.0,High,10.0
547,High,left,90.0,1.8412630345905114,0.0,47.0,High,10.0
548,High,left,90.0,2.0273451981975783,0.0,48.0,High,10.0
549,High,left,90.0,2.1238091257215435,0.0,49.0,High,10.0
550,Low,right,90.0,3.3567934072873493,0.0,0.0,High,11.0
551,Low,left,90.0,1.8085082751232704,1.0,1.0,High,11.0
552,Low,right,90.0,-0.16630337629247371,0.0,2.0,High,11.0
553,Low,right,90.0,4.483169466615776,1.0,3.0,High,11.0
554,Low,right,90.0,6.26325819503762,0.0,4.0,High,11.0
555,Low,left,90.0,-3.131198634083417,0.0,5.0,High,11.0
556,Low,right,90.0,0.03263345149351471,0.0,6.0,High,11.0
557,Low,right,90.0,-0.5488663825222935,0.0,7.0,High,11.0
558,Low,right,90.0,1.2900237540627617,1.0,8.0,High,11.0
559,Low,right,90.0,2.3288052035078417,0.0,9.0,High,11.0
560,Low,left,90.0,1.1874214713526516,0.0,10.0,High,11.0
561,Low,right,90.0,4.854008482401844,0.0,11.0,High,11.0
562,Low,right,90.0,3.5954159894205375,0.0,12.0,High,11.0
563,Low,left,90.0,1.8970019133862195,0.0,13.0,High,11.0
564,Low,right,90.0,2.4521500323832406,0.0,14.0,High,11.0
565,Low,left,90.0,3.0327168954881323,0.0,15.0,High,11.0
566,Low,right,90.0,2.2824787073211885,1.0,16.0,High,11.0
567,Low,left,90.0,2.8414323290447334,1.0,17.0,High,11.0
568,Low,left,90.0,-1.8319527680022882,1.0,18.0,High,11.0
569,Low,left,90.0,1.7395340212269037,1.0,19.0,High,11.0
570,Low,right,90.0,-1.5965310432152306,1.0,20.0,High,11.0
571,Low,right,90.0,0.7657791622547063,0.0,21.0,High,11.0
572,Low,right,90.0,-3.1150784398272475,0.0,22.0,High,11.0
573,Low,left,90.0,3.686852795448387,1.0,23.0,High,11.0
574,Low,left,90.0,2.947057528192683,0.0,24.0,High,11.0
575,Low,left,90.0,3.1786561243518223,0.0,25.0,High,11.0
576,Low,right,90.0,3.8205403194592753,1.0,26.0,High,11.0
577,Low,right,90.0,1.0046001736061079,1.0,27.0,High,11.0
578,Low,left,90.0,1.738517751851083,0.0,28.0,High,11.0
579,Low,left,90.0,1.6970211330916138,0.0,29.0,High,11.0
580,Low,left,90.0,3.802467971897463,0.0,30.0,High,11.0
581,Low,right,90.0,1.5177435011638774,1.0,31.0,High,11.0
582,Low,left,90.0,4.396503414732257,0.0,32.0,High,11.0
583,Low,right,90.0,2.9014142759112502,1.0,33.0,High,11.0
584,Low,right,90.0,1.0429461439888503,1.0,34.0,High,11.0
585,Low,right,90.0,3.7921290830851557,1.0,35.0,High,11.0
586,Low,right,90.0,6.509993298493406,1.0,36.0,High,11.0
587,Low,left,90.0,4.961366769827484,0.0,37.0,High,11.0
588,Low,right,90.0,3.5281515073778675,0.0,38.0,High,11.0
589,Low,right,90.0,1.5551638987333776,0.0,39.0,High,11.0
590,Low,left,90.0,2.623301417686344,0.0,40.0,High,11.0
591,Low,right,90.0,1.6565298966914443,1.0,41.0,High,11.0
592,Low,left,90.0,1.7285201804796069,0.0,42.0,High,11.0
593,Low,right,90.0,0.45702831789801945,1.0,43.0,High,11.0
594,Low,right,90.0,2.207105611178033,0.0,44.0,High,11.0
595,Low,left,90.0,1.865515239800395,0.0,45.0,High,11.0
596,Low,left,90.0,2.654120045369754,1.0,46.0,High,11.0
597,Low,left,90.0,0.3554672147811495,1.0,47.0,High,11.0
598,Low,left,90.0,2.547397501651595,1.0,48.0,High,11.0
599,Low,left,90.0,0.7240262959155778,1.0,49.0,High,11.0
