,Arousal,KeyPressed,LearningTime,RT,Response,TrialNumber,Valence,nBlock
0,High,right,30.0,1.7600348311821152,1.0,0.0,Low,0.0
1,High,left,30.0,2.437172165344587,0.0,1.0,Low,0.0
2,High,right,30.0,1.751755556896189,0.0,2.0,Low,0.0
3,High,left,30.0,2.4852386819467913,1.0,3.0,Low,0.0
4,High,right,30.0,0.6166627067455182,1.0,4.0,Low,0.0
5,High,right,30.0,2.4340494068848653,0.0,5.0,Low,0.0
6,High,left,30.0,-1.5852721999050405,0.0,6.0,Low,0.0
7,High,left,30.0,3.039922744257773,0.0,7.0,Low,0.0
8,High,right,30.0,6.111346602848844,1.0,8.0,Low,0.0
9,High,right,30.0,-0.3833079208461645,0.0,9.0,Low,0.0
10,High,right,30.0,0.036549481839360354,0.0,10.0,Low,0.0
11,High,left,30.0,3.3328139009539086,0.0,11.0,Low,0.0
12,High,right,30.0,4.186306875038007,0.0,12.0,Low,0.0
13,High,right,30.0,-0.7518229835512655,1.0,13.0,Low,0.0
14,High,right,30.0,6.159325095477072,1.0,14.0,Low,0.0
15,High,right,30.0,2.187224358629698,0.0,15.0,Low,0.0
16,High,right,30.0,1.462963389860739,1.0,16.0,Low,0.0
17,High,left,30.0,0.4944352569775994,1.0,17.0,Low,0.0
18,High,right,30.0,0.14923857023819087,1.0,18.0,Low,0.0
19,High,left,30.0,0.3969652731598352,1.0,19.0,Low,0.0
20,High,right,30.0,0.8982599615221325,1.0,20.0,Low,0.0
21,High,right,30.0,0.950732936645743,0.0,21.0,Low,0.0
22,High,left,30.0,1.4731391059550325,1.0,22.0,Low,0.0
23,High,left,30.0,2.3094103039047233,0.0,23.0,Low,0.0
24,High,right,30.0,2.0507323023042865,0.0,24.0,Low,0.0
25,High,left,30.0,-0.5837269876804396,0.0,25.0,Low,0.0
26,High,left,30.0,1.0401969802833755,0.0,26.0,Low,0.0
27,High,left,30.0,2.4331854715721333,0.0,27.0,Low,0.0
28,High,left,30.0,1.629504420188594,0.0,28.0,Low,0.0
29,High,right,30.0,1.8000463346121556,0.0,29.0,Low,0.0
30,High,right,30.0,3.1366262193890533,0.0,30.0,Low,0.0
31,High,right,30.0,2.813296045583354,1.0,31.0,Low,0.0
32,High,right,30.0,2.382668936838254,1.0,32.0,Low,0.0
33,High,right,30.0,5.1245713042269125,0.0,33.0,Low,0.0
34,High,left,30.0,4.886243598276744,1.0,34.0,Low,0.0
35,High,right,30.0,1.8616785547910921,1.0,35.0,Low,0.0
36,High,right,30.0,2.7255503205233937,0.0,36.0,Low,0.0
37,High,right,30.0,-0.6328798984187276,0.0,37.0,Low,0.0
38,High,left,30.0,1.479875799860632,0.0,38.0,Low,0.0
39,High,left,30.0,1.6512828763938778,1.0,39.0,Low,0.0
40,High,right,30.0,6.219894369543903,1.0,40.0,Low,0.0
41,High,right,30.0,-1.2202263189626354,0.0,41.0,Low,0.0
42,High,right,30.0,2.1615660318908736,1.0,42.0,Low,0.0
43,High,left,30.0,1.8366327335753159,0.0,43.0,Low,0.0
44,High,right,30.0,3.1811036217333637,1.0,44.0,Low,0.0
45,High,left,30.0,3.8070710574346447,1.0,45.0,Low,0.0
46,High,right,30.0,4.253418064061471,0.0,46.0,Low,0.0
47,High,left,30.0,1.8297186500299656,1.0,47.0,Low,0.0
48,High,right,30.0,-1.7935624901350988,0.0,48.0,Low,0.0
49,High,right,30.0,5.397585605074897,0.0,49.0,Low,0.0
50,Low,left,30.0,1.42709362851462,1.0,0.0,High,1.0
51,Low,right,30.0,2.1037887661201955,1.0,1.0,High,1.0
52,Low,left,30.0,1.4087122366403724,1.0,2.0,High,1.0
53,Low,left,30.0,1.2899126565082248,1.0,3.0,High,1.0
54,Low,right,30.0,5.24488218478948,1.0,4.0,High,1.0
55,Low,left,30.0,5.118809519087819,1.0,5.0,High,1.0
56,Low,right,30.0,4.831881831880663,0.0,6.0,High,1.0
57,Low,right,30.0,3.2566625590584892,0.0,7.0,High,1.0
58,Low,left,30.0,-0.7899082844648722,1.0,8.0,High,1.0
59,Low,right,30.0,0.37855915814132013,0.0,9.0,High,1.0
60,Low,left,30.0,4.809228201348208,1.0,10.0,High,1.0
61,Low,left,30.0,2.3417003765031024,0.0,11.0,High,1.0
62,Low,left,30.0,1.383066824374859,1.0,12.0,High,1.0
63,Low,right,30.0,1.5039710933911437,0.0,13.0,High,1.0
64,Low,left,30.0,7.357909986231361,0.0,14.0,High,1.0
65,Low,right,30.0,0.861375813336124,1.0,15.0,High,1.0
66,Low,right,30.0,3.6919097807235266,1.0,16.0,High,1.0
67,Low,right,30.0,5.560231828323538,1.0,17.0,High,1.0
68,Low,left,30.0,4.787824182263703,1.0,18.0,High,1.0
69,Low,left,30.0,1.3345396104312517,0.0,19.0,High,1.0
70,Low,left,30.0,2.1805890017144556,1.0,20.0,High,1.0
71,Low,left,30.0,2.4644390638062754,1.0,21.0,High,1.0
72,Low,right,30.0,-2.544679150301123,1.0,22.0,High,1.0
73,Low,left,30.0,5.070089240144496,0.0,23.0,High,1.0
74,Low,left,30.0,5.8513419898226005,0.0,24.0,High,1.0
75,Low,left,30.0,2.689248646724163,1.0,25.0,High,1.0
76,Low,right,30.0,1.370191848045729,1.0,26.0,High,1.0
77,Low,left,30.0,4.538109442255482,1.0,27.0,High,1.0
78,Low,right,30.0,0.3908868834609345,1.0,28.0,High,1.0
79,Low,left,30.0,-2.2411016804604986,0.0,29.0,High,1.0
80,Low,left,30.0,2.74910691314671,0.0,30.0,High,1.0
81,Low,left,30.0,1.6613095719493503,1.0,31.0,High,1.0
82,Low,right,30.0,3.615676113779495,0.0,32.0,High,1.0
83,Low,left,30.0,2.5297268498059275,0.0,33.0,High,1.0
84,Low,right,30.0,1.4938405387399956,0.0,34.0,High,1.0
85,Low,right,30.0,4.619467266412867,1.0,35.0,High,1.0
86,Low,left,30.0,3.1311361769738775,1.0,36.0,High,1.0
87,Low,right,30.0,1.9507168321388388,0.0,37.0,High,1.0
88,Low,left,30.0,1.2365714161031804,1.0,38.0,High,1.0
89,Low,right,30.0,4.514627267277821,0.0,39.0,High,1.0
90,Low,right,30.0,1.2429831652959504,0.0,40.0,High,1.0
91,Low,left,30.0,5.655888903964614,0.0,41.0,High,1.0
92,Low,left,30.0,2.1551634743322463,0.0,42.0,High,1.0
93,Low,right,30.0,3.0399850715678163,0.0,43.0,High,1.0
94,Low,right,30.0,3.910818063090202,0.0,44.0,High,1.0
95,Low,left,30.0,4.104787207769338,1.0,45.0,High,1.0
96,Low,right,30.0,2.4062619439912756,0.0,46.0,High,1.0
97,Low,right,30.0,1.8539230329531415,0.0,47.0,High,1.0
98,Low,right,30.0,3.307067836156243,1.0,48.0,High,1.0
99,Low,right,30.0,2.063543269574076,0.0,49.0,High,1.0
100,High,left,30.0,1.06264854050132,0.0,0.0,High,2.0
101,High,left,30.0,5.4875771822814885,1.0,1.0,High,2.0
102,High,left,30.0,4.379602955056249,1.0,2.0,High,2.0
103,High,left,30.0,1.9526354198743494,0.0,3.0,High,2.0
104,High,right,30.0,-0.09025939965721519,0.0,4.0,High,2.0
105,High,right,30.0,-2.732036138774389,1.0,5.0,High,2.0
106,High,right,30.0,2.128930512137671,1.0,6.0,High,2.0
107,High,left,30.0,0.5802180140468838,0.0,7.0,High,2.0
108,High,left,30.0,-1.0313246504192692,0.0,8.0,High,2.0
109,High,left,30.0,-0.6672162914747393,0.0,9.0,High,2.0
110,High,left,30.0,3.1624572130834916,1.0,10.0,High,2.0
111,High,right,30.0,2.0241640997798815,1.0,11.0,High,2.0
112,High,right,30.0,3.8594266837246733,0.0,12.0,High,2.0
113,High,left,30.0,0.0745360499573291,0.0,13.0,High,2.0
114,High,left,30.0,4.579159981310581,0.0,14.0,High,2.0
115,High,left,30.0,1.9555004144901496,1.0,15.0,High,2.0
116,High,right,30.0,-3.085771506434705,0.0,16.0,High,2.0
117,High,right,30.0,1.7768351482411822,0.0,17.0,High,2.0
118,High,right,30.0,2.6278628378943365,0.0,18.0,High,2.0
119,High,left,30.0,1.0657529138108284,0.0,19.0,High,2.0
120,High,right,30.0,-1.6917384349591744,1.0,20.0,High,2.0
121,High,left,30.0,-1.4432365046722038,1.0,21.0,High,2.0
122,High,right,30.0,-0.32198615619559323,0.0,22.0,High,2.0
123,High,left,30.0,0.8770743367116298,0.0,23.0,High,2.0
124,High,right,30.0,5.30118925586721,1.0,24.0,High,2.0
125,High,left,30.0,0.8100537849190541,0.0,25.0,High,2.0
126,High,left,30.0,0.6853330460753682,1.0,26.0,High,2.0
127,High,left,30.0,-0.9856596319030473,0.0,27.0,High,2.0
128,High,right,30.0,2.456135329261331,1.0,28.0,High,2.0
129,High,right,30.0,0.9817889294655392,1.0,29.0,High,2.0
130,High,right,30.0,2.098914435467769,0.0,30.0,High,2.0
131,High,left,30.0,2.230284236749977,0.0,31.0,High,2.0
132,High,left,30.0,-0.7372533442778932,0.0,32.0,High,2.0
133,High,right,30.0,2.848744126181619,1.0,33.0,High,2.0
134,High,left,30.0,-0.28810235044641086,1.0,34.0,High,2.0
135,High,left,30.0,2.868199143826181,1.0,35.0,High,2.0
136,High,left,30.0,3.6298612104084302,1.0,36.0,High,2.0
137,High,right,30.0,5.259296923651384,0.0,37.0,High,2.0
138,High,left,30.0,2.4282045254038427,1.0,38.0,High,2.0
139,High,right,30.0,5.099719275576337,1.0,39.0,High,2.0
140,High,right,30.0,-0.6385478518385925,0.0,40.0,High,2.0
141,High,left,30.0,0.5851200822497271,1.0,41.0,High,2.0
142,High,right,30.0,1.4649599608059583,1.0,42.0,High,2.0
143,High,left,30.0,-0.5167222913747362,1.0,43.0,High,2.0
144,High,left,30.0,4.040503932005549,0.0,44.0,High,2.0
145,High,left,30.0,4.420680360248246,1.0,45.0,High,2.0
146,High,right,30.0,3.662889915048561,1.0,46.0,High,2.0
147,High,right,30.0,2.9986910008415615,1.0,47.0,High,2.0
148,High,left,30.0,-2.238134515430209,0.0,48.0,High,2.0
149,High,left,30.0,1.6366476474293201,0.0,49.0,High,2.0
150,Low,right,60.0,3.9298903798206792,0.0,0.0,High,3.0
151,Low,left,60.0,0.2499553311183056,0.0,1.0,High,3.0
152,Low,right,60.0,0.6323612482020561,0.0,2.0,High,3.0
153,Low,left,60.0,3.695023958134014,1.0,3.0,High,3.0
154,Low,left,60.0,2.6435397311562183,0.0,4.0,High,3.0
155,Low,left,60.0,3.8098751072900363,0.0,5.0,High,3.0
156,Low,right,60.0,2.7102287352935353,1.0,6.0,High,3.0
157,Low,left,60.0,-0.16976976880466643,1.0,7.0,High,3.0
158,Low,left,60.0,2.7524915354719988,0.0,8.0,High,3.0
159,Low,left,60.0,3.9966239007340176,0.0,9.0,High,3.0
160,Low,left,60.0,-0.17429381383824127,0.0,10.0,High,3.0
161,Low,left,60.0,1.1247379222994152,1.0,11.0,High,3.0
162,Low,left,60.0,0.7130444356248631,1.0,12.0,High,3.0
163,Low,right,60.0,-0.710240747280785,1.0,13.0,High,3.0
164,Low,right,60.0,2.3064372319753956,1.0,14.0,High,3.0
165,Low,left,60.0,3.956480912514587,1.0,15.0,High,3.0
166,Low,left,60.0,3.0799585077046263,0.0,16.0,High,3.0
167,Low,left,60.0,-0.9321430887022304,1.0,17.0,High,3.0
168,Low,right,60.0,0.7188769491301112,1.0,18.0,High,3.0
169,Low,left,60.0,3.1787099976687205,1.0,19.0,High,3.0
170,Low,right,60.0,0.35971897605524017,0.0,20.0,High,3.0
171,Low,left,60.0,3.1100643970402673,0.0,21.0,High,3.0
172,Low,right,60.0,1.3711075409277296,0.0,22.0,High,3.0
173,Low,left,60.0,4.113173996365911,0.0,23.0,High,3.0
174,Low,left,60.0,0.6665886635219677,0.0,24.0,High,3.0
175,Low,left,60.0,1.0095438386467617,1.0,25.0,High,3.0
176,Low,right,60.0,3.7550945693648945,0.0,26.0,High,3.0
177,Low,right,60.0,4.299874769120938,0.0,27.0,High,3.0
178,Low,right,60.0,1.3987247444428013,1.0,28.0,High,3.0
179,Low,right,60.0,1.7260581020204744,1.0,29.0,High,3.0
180,Low,right,60.0,5.3774000521172844,0.0,30.0,High,3.0
181,Low,right,60.0,1.622585305783859,0.0,31.0,High,3.0
182,Low,left,60.0,2.033518080943502,0.0,32.0,High,3.0
183,Low,right,60.0,2.732727441546551,1.0,33.0,High,3.0
184,Low,right,60.0,4.124123022215261,1.0,34.0,High,3.0
185,Low,left,60.0,3.921106626724822,0.0,35.0,High,3.0
186,Low,right,60.0,0.5867910744824794,0.0,36.0,High,3.0
187,Low,right,60.0,2.822964162853968,1.0,37.0,High,3.0
188,Low,right,60.0,4.970015460928286,1.0,38.0,High,3.0
189,Low,right,60.0,3.610158625079628,0.0,39.0,High,3.0
190,Low,right,60.0,2.5168447353521666,0.0,40.0,High,3.0
191,Low,left,60.0,-0.05723800573033566,1.0,41.0,High,3.0
192,Low,right,60.0,1.6510356993582584,1.0,42.0,High,3.0
193,Low,left,60.0,3.6972406589148425,0.0,43.0,High,3.0
194,Low,left,60.0,-0.5294154880329138,0.0,44.0,High,3.0
195,Low,right,60.0,2.5727318099804797,0.0,45.0,High,3.0
196,Low,right,60.0,1.3740485655022916,0.0,46.0,High,3.0
197,Low,right,60.0,3.7886119389644053,0.0,47.0,High,3.0
198,Low,right,60.0,1.7096687230028071,0.0,48.0,High,3.0
199,Low,right,60.0,-0.16759799843641954,1.0,49.0,High,3.0
200,High,left,60.0,2.216965490181301,0.0,0.0,Low,4.0
201,High,left,60.0,3.1389423028383545,1.0,1.0,Low,4.0
202,High,left,60.0,2.357237030746011,0.0,2.0,Low,4.0
203,High,left,60.0,1.7751091154932737,1.0,3.0,Low,4.0
204,High,left,60.0,3.7757950908423443,1.0,4.0,Low,4.0
205,High,right,60.0,1.3885887358241131,0.0,5.0,Low,4.0
206,High,left,60.0,1.8469244735598986,1.0,6.0,Low,4.0
207,High,left,60.0,3.6294981295607682,0.0,7.0,Low,4.0
208,High,right,60.0,1.0578321535450221,0.0,8.0,Low,4.0
209,High,left,60.0,5.700312680432397,1.0,9.0,Low,4.0
210,High,left,60.0,-2.6827040248934697,0.0,10.0,Low,4.0
211,High,right,60.0,4.628780266593936,0.0,11.0,Low,4.0
212,High,right,60.0,0.6048762037566944,1.0,12.0,Low,4.0
213,High,right,60.0,1.6732829649177778,0.0,13.0,Low,4.0
214,High,left,60.0,1.9479115755304208,1.0,14.0,Low,4.0
215,High,right,60.0,1.1211456980705794,0.0,15.0,Low,4.0
216,High,right,60.0,0.8890842478360601,0.0,16.0,Low,4.0
217,High,right,60.0,1.813934318285464,1.0,17.0,Low,4.0
218,High,left,60.0,-0.13946006742995687,0.0,18.0,Low,4.0
219,High,left,60.0,0.578680309389477,0.0,19.0,Low,4.0
220,High,left,60.0,3.515258586543446,0.0,20.0,Low,4.0
221,High,right,60.0,1.6093365976768,0.0,21.0,Low,4.0
222,High,left,60.0,5.396446152856948,1.0,22.0,Low,4.0
223,High,right,60.0,1.331853048775227,1.0,23.0,Low,4.0
224,High,right,60.0,-0.591918975560505,1.0,24.0,Low,4.0
225,High,right,60.0,4.419261168606273,1.0,25.0,Low,4.0
226,High,left,60.0,0.5347913704942477,1.0,26.0,Low,4.0
227,High,right,60.0,2.069728503066933,0.0,27.0,Low,4.0
228,High,left,60.0,1.6225880222914186,0.0,28.0,Low,4.0
229,High,right,60.0,3.3201530969139714,0.0,29.0,Low,4.0
230,High,right,60.0,3.0809879189878284,0.0,30.0,Low,4.0
231,High,left,60.0,5.997206672834347,0.0,31.0,Low,4.0
232,High,left,60.0,-0.397493657796113,1.0,32.0,Low,4.0
233,High,left,60.0,2.3264108563142565,1.0,33.0,Low,4.0
234,High,right,60.0,-0.36130316212691627,0.0,34.0,Low,4.0
235,High,left,60.0,-0.15535972486512906,1.0,35.0,Low,4.0
236,High,right,60.0,2.4457235797011005,1.0,36.0,Low,4.0
237,High,right,60.0,1.7906194529310862,0.0,37.0,Low,4.0
238,High,right,60.0,3.7239704850715976,1.0,38.0,Low,4.0
239,High,right,60.0,-0.8740378576399164,0.0,39.0,Low,4.0
240,High,right,60.0,3.2720314298622,1.0,40.0,Low,4.0
241,High,left,60.0,1.2877506958988238,1.0,41.0,Low,4.0
242,High,right,60.0,4.057587899921807,0.0,42.0,Low,4.0
243,High,right,60.0,3.648169994087421,0.0,43.0,Low,4.0
244,High,left,60.0,3.7988608735789215,1.0,44.0,Low,4.0
245,High,left,60.0,-2.3670487784177268,1.0,45.0,Low,4.0
246,High,right,60.0,3.3924669648031323,0.0,46.0,Low,4.0
247,High,left,60.0,3.803625447380153,1.0,47.0,Low,4.0
248,High,left,60.0,2.212769886812397,1.0,48.0,Low,4.0
249,High,right,60.0,5.048555884783439,1.0,49.0,Low,4.0
250,Low,right,90.0,0.015141371055396036,1.0,0.0,High,5.0
251,Low,right,90.0,3.91404785129755,0.0,1.0,High,5.0
252,Low,right,90.0,5.204476820373966,1.0,2.0,High,5.0
253,Low,left,90.0,1.5383318732796827,1.0,3.0,High,5.0
254,Low,left,90.0,3.822795013846331,1.0,4.0,High,5.0
255,Low,right,90.0,3.008733555130417,1.0,5.0,High,5.0
256,Low,right,90.0,0.2801407410385659,0.0,6.0,High,5.0
257,Low,right,90.0,4.787635120973563,1.0,7.0,High,5.0
258,Low,left,90.0,0.9989853213820198,1.0,8.0,High,5.0
259,Low,right,90.0,2.5032788127859495,0.0,9.0,High,5.0
260,Low,left,90.0,1.7575673083068242,1.0,10.0,High,5.0
261,Low,right,90.0,1.3410913216489677,1.0,11.0,High,5.0
262,Low,left,90.0,3.35503444842712,1.0,12.0,High,5.0
263,Low,left,90.0,0.051492570157438244,1.0,13.0,High,5.0
264,Low,right,90.0,3.1867598033418734,1.0,14.0,High,5.0
265,Low,left,90.0,4.718400286495721,0.0,15.0,High,5.0
266,Low,left,90.0,0.055205678639446365,1.0,16.0,High,5.0
267,Low,left,90.0,4.908815068685845,1.0,17.0,High,5.0
268,Low,right,90.0,1.7567382426186142,1.0,18.0,High,5.0
269,Low,left,90.0,2.8488790559848014,1.0,19.0,High,5.0
270,Low,right,90.0,7.989384014087355,1.0,20.0,High,5.0
271,Low,left,90.0,2.6899214031663408,0.0,21.0,High,5.0
272,Low,left,90.0,3.8158074497462766,1.0,22.0,High,5.0
273,Low,left,90.0,1.065076559380123,0.0,23.0,High,5.0
274,Low,right,90.0,2.64553236325799,1.0,24.0,High,5.0
275,Low,left,90.0,4.64069316974357,0.0,25.0,High,5.0
276,Low,right,90.0,1.7157298939513783,0.0,26.0,High,5.0
277,Low,left,90.0,1.2929322153662413,0.0,27.0,High,5.0
278,Low,right,90.0,1.0578353608193485,1.0,28.0,High,5.0
279,Low,left,90.0,1.7136175632107635,0.0,29.0,High,5.0
280,Low,left,90.0,0.6974442205074511,0.0,30.0,High,5.0
281,Low,left,90.0,0.8798474906444524,1.0,31.0,High,5.0
282,Low,right,90.0,3.329567375908505,0.0,32.0,High,5.0
283,Low,left,90.0,2.625810412546025,0.0,33.0,High,5.0
284,Low,left,90.0,0.21603305122580663,0.0,34.0,High,5.0
285,Low,right,90.0,-2.6327120664886454,1.0,35.0,High,5.0
286,Low,left,90.0,1.3731615161125141,0.0,36.0,High,5.0
287,Low,left,90.0,3.3309286541690604,0.0,37.0,High,5.0
288,Low,left,90.0,1.3491754916104968,0.0,38.0,High,5.0
289,Low,left,90.0,3.3192376588394192,1.0,39.0,High,5.0
290,Low,right,90.0,1.2140508985570277,1.0,40.0,High,5.0
291,Low,right,90.0,6.585323376374912,0.0,41.0,High,5.0
292,Low,left,90.0,6.099192968103816,0.0,42.0,High,5.0
293,Low,left,90.0,0.7924145938195752,1.0,43.0,High,5.0
294,Low,left,90.0,0.3355984435069028,1.0,44.0,High,5.0
295,Low,left,90.0,2.476514570669611,0.0,45.0,High,5.0
296,Low,left,90.0,-1.5117104176448282,0.0,46.0,High,5.0
297,Low,right,90.0,4.982509678831393,1.0,47.0,High,5.0
298,Low,right,90.0,-1.3435786911177119,0.0,48.0,High,5.0
299,Low,left,90.0,4.838536274039381,0.0,49.0,High,5.0
300,High,right,60.0,2.387531930543915,1.0,0.0,High,6.0
301,High,left,60.0,2.3272228403164084,0.0,1.0,High,6.0
302,High,right,60.0,3.389985749925537,1.0,2.0,High,6.0
303,High,left,60.0,1.2644415447134045,1.0,3.0,High,6.0
304,High,left,60.0,4.684670056869875,1.0,4.0,High,6.0
305,High,left,60.0,5.435698670645439,0.0,5.0,High,6.0
306,High,left,60.0,2.2467316892132856,1.0,6.0,High,6.0
307,High,left,60.0,0.40776785009783456,0.0,7.0,High,6.0
308,High,left,60.0,2.148853087992941,0.0,8.0,High,6.0
309,High,left,60.0,1.3825075964546452,1.0,9.0,High,6.0
310,High,right,60.0,1.7016293568264458,1.0,10.0,High,6.0
311,High,left,60.0,1.4777045641246096,0.0,11.0,High,6.0
312,High,left,60.0,2.0203012826567317,1.0,12.0,High,6.0
313,High,right,60.0,1.1551596355780538,1.0,13.0,High,6.0
314,High,left,60.0,-0.48717631226768043,1.0,14.0,High,6.0
315,High,right,60.0,-0.4993131084427589,1.0,15.0,High,6.0
316,High,right,60.0,1.764634378923543,1.0,16.0,High,6.0
317,High,left,60.0,-2.0213816388452055,1.0,17.0,High,6.0
318,High,right,60.0,1.183342552330051,1.0,18.0,High,6.0
319,High,right,60.0,1.45017484134256,0.0,19.0,High,6.0
320,High,left,60.0,3.0473135828813,1.0,20.0,High,6.0
321,High,left,60.0,1.854381113198177,0.0,21.0,High,6.0
322,High,right,60.0,0.9752586742650489,1.0,22.0,High,6.0
323,High,right,60.0,-1.0906829377164862,1.0,23.0,High,6.0
324,High,left,60.0,3.8116822205614076,0.0,24.0,High,6.0
325,High,left,60.0,2.3953378203197615,0.0,25.0,High,6.0
326,High,right,60.0,-3.6392890993240377,1.0,26.0,High,6.0
327,High,right,60.0,3.3253930924412716,1.0,27.0,High,6.0
328,High,left,60.0,1.6962051190999503,0.0,28.0,High,6.0
329,High,right,60.0,-0.8027927896816887,0.0,29.0,High,6.0
330,High,left,60.0,1.7616664861848252,0.0,30.0,High,6.0
331,High,left,60.0,0.13786678965690746,1.0,31.0,High,6.0
332,High,right,60.0,-0.48807674121961453,1.0,32.0,High,6.0
333,High,right,60.0,3.371723719135815,1.0,33.0,High,6.0
334,High,left,60.0,1.9608490186459258,0.0,34.0,High,6.0
335,High,left,60.0,3.0744470171677465,0.0,35.0,High,6.0
336,High,right,60.0,0.841368836287276,0.0,36.0,High,6.0
337,High,left,60.0,5.884813503358069,1.0,37.0,High,6.0
338,High,right,60.0,1.2174911853166894,0.0,38.0,High,6.0
339,High,left,60.0,-0.16095137619510114,1.0,39.0,High,6.0
340,High,left,60.0,5.075572242171537,1.0,40.0,High,6.0
341,High,right,60.0,1.733232721621078,1.0,41.0,High,6.0
342,High,right,60.0,4.425770219703715,0.0,42.0,High,6.0
343,High,right,60.0,1.748357982807044,0.0,43.0,High,6.0
344,High,right,60.0,2.5300876397706173,0.0,44.0,High,6.0
345,High,right,60.0,4.26566988722685,1.0,45.0,High,6.0
346,High,right,60.0,0.5866400301949639,0.0,46.0,High,6.0
347,High,right,60.0,2.851310951830266,1.0,47.0,High,6.0
348,High,right,60.0,1.7268418990198489,0.0,48.0,High,6.0
349,High,right,60.0,2.052384067184694,1.0,49.0,High,6.0
350,Low,right,30.0,-1.0196069190233268,0.0,0.0,Low,7.0
351,Low,right,30.0,0.6635459729527239,0.0,1.0,Low,7.0
352,Low,left,30.0,3.276073701059385,1.0,2.0,Low,7.0
353,Low,left,30.0,1.7231449058009836,0.0,3.0,Low,7.0
354,Low,right,30.0,1.9945468575571583,0.0,4.0,Low,7.0
355,Low,right,30.0,4.67881947067153,0.0,5.0,Low,7.0
356,Low,left,30.0,-0.7239224179000627,0.0,6.0,Low,7.0
357,Low,right,30.0,1.0653417035449366,0.0,7.0,Low,7.0
358,Low,right,30.0,3.6124388184408582,1.0,8.0,Low,7.0
359,Low,right,30.0,1.1341261580901436,1.0,9.0,Low,7.0
360,Low,right,30.0,4.723221212102807,0.0,10.0,Low,7.0
361,Low,right,30.0,2.4464212071913995,0.0,11.0,Low,7.0
362,Low,left,30.0,2.3848953423587282,1.0,12.0,Low,7.0
363,Low,left,30.0,2.2545383578760374,1.0,13.0,Low,7.0
364,Low,right,30.0,-2.932469427280747,1.0,14.0,Low,7.0
365,Low,left,30.0,5.461370813500344,0.0,15.0,Low,7.0
366,Low,left,30.0,1.8977735800422098,1.0,16.0,Low,7.0
367,Low,left,30.0,3.3147043318471408,0.0,17.0,Low,7.0
368,Low,left,30.0,2.7349006843639883,0.0,18.0,Low,7.0
369,Low,left,30.0,2.4997489701135227,0.0,19.0,Low,7.0
370,Low,left,30.0,2.0836840398340906,0.0,20.0,Low,7.0
371,Low,right,30.0,-0.32891454774346673,1.0,21.0,Low,7.0
372,Low,right,30.0,1.9731812707030518,1.0,22.0,Low,7.0
373,Low,right,30.0,0.8556048841504231,0.0,23.0,Low,7.0
374,Low,right,30.0,-0.31859243198153964,0.0,24.0,Low,7.0
375,Low,left,30.0,3.246738644245661,0.0,25.0,Low,7.0
376,Low,right,30.0,2.1908596020923254,1.0,26.0,Low,7.0
377,Low,right,30.0,1.8676292532889551,0.0,27.0,Low,7.0
378,Low,right,30.0,2.39060756665074,1.0,28.0,Low,7.0
379,Low,right,30.0,3.908104479779639,0.0,29.0,Low,7.0
380,Low,left,30.0,-1.034194033162077,0.0,30.0,Low,7.0
381,Low,right,30.0,2.863790198674648,0.0,31.0,Low,7.0
382,Low,left,30.0,2.5289510194743303,1.0,32.0,Low,7.0
383,Low,right,30.0,-0.34749363693935886,0.0,33.0,Low,7.0
384,Low,right,30.0,2.496130381528214,0.0,34.0,Low,7.0
385,Low,left,30.0,2.6717919571218403,1.0,35.0,Low,7.0
386,Low,right,30.0,1.3344288238873423,1.0,36.0,Low,7.0
387,Low,right,30.0,0.10483571229677713,0.0,37.0,Low,7.0
388,Low,left,30.0,-0.41160364393396587,0.0,38.0,Low,7.0
389,Low,right,30.0,2.289472912064552,1.0,39.0,Low,7.0
390,Low,left,30.0,0.028493514440069312,0.0,40.0,Low,7.0
391,Low,right,30.0,3.1720277706241875,1.0,41.0,Low,7.0
392,Low,left,30.0,4.119321494217047,0.0,42.0,Low,7.0
393,Low,right,30.0,-0.7870864134417728,1.0,43.0,Low,7.0
394,Low,right,30.0,1.8825467428692078,1.0,44.0,Low,7.0
395,Low,right,30.0,4.223995187638918,0.0,45.0,Low,7.0
396,Low,right,30.0,-1.6867857242777446,1.0,46.0,Low,7.0
397,Low,left,30.0,1.0549895607760345,1.0,47.0,Low,7.0
398,Low,left,30.0,7.0697619474355,1.0,48.0,Low,7.0
399,Low,right,30.0,2.4257320889060976,1.0,49.0,Low,7.0
400,High,right,90.0,0.219933145638731,1.0,0.0,High,8.0
401,High,left,90.0,1.603746368880401,0.0,1.0,High,8.0
402,High,left,90.0,4.842877388511829,0.0,2.0,High,8.0
403,High,left,90.0,0.8270287743507899,0.0,3.0,High,8.0
404,High,right,90.0,4.163831837386942,0.0,4.0,High,8.0
405,High,left,90.0,1.5468496356163912,0.0,5.0,High,8.0
406,High,right,90.0,2.580978838809315,1.0,6.0,High,8.0
407,High,right,90.0,-0.617271515265037,1.0,7.0,High,8.0
408,High,left,90.0,-0.26849960394544703,0.0,8.0,High,8.0
409,High,right,90.0,2.6760346852539287,1.0,9.0,High,8.0
410,High,left,90.0,1.2650813337345033,1.0,10.0,High,8.0
411,High,right,90.0,3.953438345515741,1.0,11.0,High,8.0
412,High,right,90.0,5.00346983416526,0.0,12.0,High,8.0
413,High,left,90.0,4.5118702184301664,1.0,13.0,High,8.0
414,High,left,90.0,0.6114805661800173,1.0,14.0,High,8.0
415,High,right,90.0,1.5191273929663398,0.0,15.0,High,8.0
416,High,right,90.0,3.1154068809663875,0.0,16.0,High,8.0
417,High,left,90.0,1.7664739392761633,0.0,17.0,High,8.0
418,High,left,90.0,4.635722692959615,1.0,18.0,High,8.0
419,High,right,90.0,2.5875015896748237,1.0,19.0,High,8.0
420,High,left,90.0,3.378282840605668,1.0,20.0,High,8.0
421,High,left,90.0,2.6789826334320526,0.0,21.0,High,8.0
422,High,right,90.0,2.796442675335218,0.0,22.0,High,8.0
423,High,left,90.0,3.268627380472071,0.0,23.0,High,8.0
424,High,right,90.0,1.0007006664635758,0.0,24.0,High,8.0
425,High,right,90.0,3.598961626487764,0.0,25.0,High,8.0
426,High,left,90.0,4.913746281897052,1.0,26.0,High,8.0
427,High,left,90.0,1.7945257054097368,0.0,27.0,High,8.0
428,High,left,90.0,3.542466360279505,0.0,28.0,High,8.0
429,High,left,90.0,-0.7457228232065076,0.0,29.0,High,8.0
430,High,left,90.0,2.450318174121798,0.0,30.0,High,8.0
431,High,left,90.0,-0.9616202086369441,0.0,31.0,High,8.0
432,High,right,90.0,-1.5337392783543082,1.0,32.0,High,8.0
433,High,right,90.0,4.088747313135629,0.0,33.0,High,8.0
434,High,left,90.0,3.0363326847986216,1.0,34.0,High,8.0
435,High,right,90.0,1.0016984007902183,0.0,35.0,High,8.0
436,High,left,90.0,4.499881760995661,0.0,36.0,High,8.0
437,High,left,90.0,1.3392425241291925,0.0,37.0,High,8.0
438,High,right,90.0,3.538720618411322,1.0,38.0,High,8.0
439,High,right,90.0,5.014639804981559,1.0,39.0,High,8.0
440,High,left,90.0,1.1877075517467894,0.0,40.0,High,8.0
441,High,left,90.0,0.8037947634024936,0.0,41.0,High,8.0
442,High,right,90.0,4.918765968899161,0.0,42.0,High,8.0
443,High,left,90.0,4.042062604142367,0.0,43.0,High,8.0
444,High,right,90.0,3.692204950020782,0.0,44.0,High,8.0
445,High,right,90.0,1.8531705726122094,1.0,45.0,High,8.0
446,High,left,90.0,5.44140268506874,0.0,46.0,High,8.0
447,High,left,90.0,1.9666238823474407,0.0,47.0,High,8.0
448,High,right,90.0,0.6435096324520292,0.0,48.0,High,8.0
449,High,right,90.0,5.175472187169765,0.0,49.0,High,8.0
450,Low,right,60.0,1.5305666980069563,1.0,0.0,Low,9.0
451,Low,right,60.0,0.17237756153515438,0.0,1.0,Low,9.0
452,Low,left,60.0,0.43452278625348106,1.0,2.0,Low,9.0
453,Low,left,60.0,3.4855122563998275,1.0,3.0,Low,9.0
454,Low,left,60.0,3.0387453752824856,0.0,4.0,Low,9.0
455,Low,left,60.0,3.347929242860645,1.0,5.0,Low,9.0
456,Low,right,60.0,1.811592928720813,0.0,6.0,Low,9.0
457,Low,left,60.0,-0.659040659257395,1.0,7.0,Low,9.0
458,Low,left,60.0,-0.46817084378309515,0.0,8.0,Low,9.0
459,Low,left,60.0,-0.29142161583874326,1.0,9.0,Low,9.0
460,Low,left,60.0,5.28979886168027,1.0,10.0,Low,9.0
461,Low,right,60.0,-0.16935518871815214,1.0,11.0,Low,9.0
462,Low,left,60.0,-0.2610936175373415,0.0,12.0,Low,9.0
463,Low,left,60.0,1.2866387294898698,1.0,13.0,Low,9.0
464,Low,right,60.0,0.45360701726953345,0.0,14.0,Low,9.0
465,Low,right,60.0,2.7516181127892163,1.0,15.0,Low,9.0
466,Low,right,60.0,1.1635351797665965,0.0,16.0,Low,9.0
467,Low,right,60.0,8.536393710068365,1.0,17.0,Low,9.0
468,Low,left,60.0,2.0305648334231723,0.0,18.0,Low,9.0
469,Low,left,60.0,3.1699038914783215,0.0,19.0,Low,9.0
470,Low,left,60.0,4.702454313706199,1.0,20.0,Low,9.0
471,Low,left,60.0,4.791679331003523,0.0,21.0,Low,9.0
472,Low,left,60.0,1.8482039840427884,0.0,22.0,Low,9.0
473,Low,right,60.0,0.2129686613729267,0.0,23.0,Low,9.0
474,Low,right,60.0,4.135455291379492,0.0,24.0,Low,9.0
475,Low,right,60.0,2.828305775829432,0.0,25.0,Low,9.0
476,Low,right,60.0,7.740713308291294,1.0,26.0,Low,9.0
477,Low,left,60.0,0.9878691239870507,1.0,27.0,Low,9.0
478,Low,right,60.0,1.9182219371095641,0.0,28.0,Low,9.0
479,Low,left,60.0,2.097152309013764,0.0,29.0,Low,9.0
480,Low,left,60.0,1.0496848641440168,0.0,30.0,Low,9.0
481,Low,right,60.0,3.761393093154312,1.0,31.0,Low,9.0
482,Low,right,60.0,-1.2254260196342421,1.0,32.0,Low,9.0
483,Low,left,60.0,1.958781703827304,1.0,33.0,Low,9.0
484,Low,left,60.0,-2.1428932112368058,0.0,34.0,Low,9.0
485,Low,left,60.0,0.30695538072827855,1.0,35.0,Low,9.0
486,Low,right,60.0,-0.5471533247613181,0.0,36.0,Low,9.0
487,Low,right,60.0,4.484581569868591,0.0,37.0,Low,9.0
488,Low,right,60.0,-2.024097861453039,0.0,38.0,Low,9.0
489,Low,left,60.0,3.277878724494177,0.0,39.0,Low,9.0
490,Low,left,60.0,0.8259347937206745,1.0,40.0,Low,9.0
491,Low,right,60.0,3.5630159370008445,1.0,41.0,Low,9.0
492,Low,right,60.0,-0.14808089004519864,1.0,42.0,Low,9.0
493,Low,right,60.0,3.046325434065576,0.0,43.0,Low,9.0
494,Low,left,60.0,-0.012747329041688404,0.0,44.0,Low,9.0
495,Low,left,60.0,2.6414805483857293,0.0,45.0,Low,9.0
496,Low,left,60.0,4.038214527976784,0.0,46.0,Low,9.0
497,Low,left,60.0,0.5072132213794442,0.0,47.0,Low,9.0
498,Low,left,60.0,3.027961955209591,0.0,48.0,Low,9.0
499,Low,right,60.0,1.2580125802807245,1.0,49.0,Low,9.0
500,High,right,90.0,6.727101513576125,1.0,0.0,Low,10.0
501,High,right,90.0,3.9107436551901946,1.0,1.0,Low,10.0
502,High,right,90.0,1.6288933023043732,1.0,2.0,Low,10.0
503,High,right,90.0,5.056773559632198,1.0,3.0,Low,10.0
504,High,left,90.0,2.1578902377641382,0.0,4.0,Low,10.0
505,High,right,90.0,3.7617553049371564,0.0,5.0,Low,10.0
506,High,right,90.0,0.6574259101531643,1.0,6.0,Low,10.0
507,High,left,90.0,6.046904826773485,1.0,7.0,Low,10.0
508,High,left,90.0,4.380191540499107,1.0,8.0,Low,10.0
509,High,left,90.0,-0.41944654839760154,0.0,9.0,Low,10.0
510,High,right,90.0,3.4668468817348055,1.0,10.0,Low,10.0
511,High,right,90.0,1.6417192638056342,1.0,11.0,Low,10.0
512,High,left,90.0,2.054405496024999,0.0,12.0,Low,10.0
513,High,left,90.0,2.640262956811592,1.0,13.0,Low,10.0
514,High,right,90.0,2.0663559769358355,1.0,14.0,Low,10.0
515,High,left,90.0,4.188469905886791,1.0,15.0,Low,10.0
516,High,right,90.0,3.3883174393759687,0.0,16.0,Low,10.0
517,High,right,90.0,0.4889782893838104,0.0,17.0,Low,10.0
518,High,left,90.0,1.6300307001718235,0.0,18.0,Low,10.0
519,High,right,90.0,1.6751596357084655,1.0,19.0,Low,10.0
520,High,right,90.0,-0.9220208067208127,0.0,20.0,Low,10.0
521,High,left,90.0,-0.345953420431776,0.0,21.0,Low,10.0
522,High,right,90.0,3.450435241701157,0.0,22.0,Low,10.0
523,High,right,90.0,3.2474282883716303,1.0,23.0,Low,10.0
524,High,left,90.0,2.898561307485734,0.0,24.0,Low,10.0
525,High,right,90.0,1.7415460239105227,0.0,25.0,Low,10.0
526,High,left,90.0,4.880005071584863,1.0,26.0,Low,10.0
527,High,right,90.0,1.1303999787071966,0.0,27.0,Low,10.0
528,High,left,90.0,1.6578218184609745,0.0,28.0,Low,10.0
529,High,left,90.0,1.6457962852246526,0.0,29.0,Low,10.0
530,High,right,90.0,3.0187554788744113,1.0,30.0,Low,10.0
531,High,right,90.0,0.6633502967722,0.0,31.0,Low,10.0
532,High,left,90.0,4.280680728888251,0.0,32.0,Low,10.0
533,High,left,90.0,1.3886885284571102,0.0,33.0,Low,10.0
534,High,right,90.0,4.859734651977562,1.0,34.0,Low,10.0
535,High,left,90.0,2.24196368193323,1.0,35.0,Low,10.0
536,High,right,90.0,4.632221898980937,1.0,36.0,Low,10.0
537,High,left,90.0,2.591700372477652,0.0,37.0,Low,10.0
538,High,right,90.0,3.6531750015543887,1.0,38.0,Low,10.0
539,High,left,90.0,6.088918351314545,1.0,39.0,Low,10.0
540,High,left,90.0,3.2853081772596893,0.0,40.0,Low,10.0
541,High,right,90.0,4.564538352286295,0.0,41.0,Low,10.0
542,High,left,90.0,1.2664388340766108,1.0,42.0,Low,10.0
543,High,right,90.0,0.3567740704422473,0.0,43.0,Low,10.0
544,High,right,90.0,2.1004177716341426,1.0,44.0,Low,10.0
545,High,left,90.0,1.0206645513712758,1.0,45.0,Low,10.0
546,High,right,90.0,1.3465819884077423,0.0,46.0,Low,10.0
547,High,left,90.0,1.0590358106325206,1.0,47.0,Low,10.0
548,High,right,90.0,4.312968948812541,0.0,48.0,Low,10.0
549,High,right,90.0,1.184640013963568,1.0,49.0,Low,10.0
550,Low,left,90.0,2.211064491858316,0.0,0.0,Low,11.0
551,Low,left,90.0,3.3225768130161555,1.0,1.0,Low,11.0
552,Low,right,90.0,-1.1429274312991626,1.0,2.0,Low,11.0
553,Low,left,90.0,2.781793361614507,0.0,3.0,Low,11.0
554,Low,left,90.0,2.3114209963475805,1.0,4.0,Low,11.0
555,Low,left,90.0,3.8812245179637177,0.0,5.0,Low,11.0
556,Low,right,90.0,2.2897657915437555,1.0,6.0,Low,11.0
557,Low,left,90.0,3.4968653811146977,1.0,7.0,Low,11.0
558,Low,left,90.0,3.539080535088357,0.0,8.0,Low,11.0
559,Low,left,90.0,0.3157786750709817,1.0,9.0,Low,11.0
560,Low,right,90.0,1.7728167103374055,1.0,10.0,Low,11.0
561,Low,right,90.0,0.4677881941234223,0.0,11.0,Low,11.0
562,Low,right,90.0,1.7898889744383597,1.0,12.0,Low,11.0
563,Low,right,90.0,3.1167252596825756,0.0,13.0,Low,11.0
564,Low,left,90.0,2.3704621224046893,0.0,14.0,Low,11.0
565,Low,right,90.0,2.6976483144131116,1.0,15.0,Low,11.0
566,Low,right,90.0,3.036747340498974,0.0,16.0,Low,11.0
567,Low,right,90.0,2.3931606763025566,1.0,17.0,Low,11.0
568,Low,right,90.0,2.1971931125999986,0.0,18.0,Low,11.0
569,Low,left,90.0,-0.7950801287179758,0.0,19.0,Low,11.0
570,Low,left,90.0,5.520458968843064,1.0,20.0,Low,11.0
571,Low,right,90.0,4.186592627227513,1.0,21.0,Low,11.0
572,Low,left,90.0,-0.5422672353008595,1.0,22.0,Low,11.0
573,Low,left,90.0,1.225194433292674,1.0,23.0,Low,11.0
574,Low,right,90.0,3.8759399409985393,0.0,24.0,Low,11.0
575,Low,left,90.0,-1.4566278174891836,1.0,25.0,Low,11.0
576,Low,right,90.0,3.9222245934756725,1.0,26.0,Low,11.0
577,Low,right,90.0,3.037261624938636,0.0,27.0,Low,11.0
578,Low,left,90.0,-0.11343086102126665,1.0,28.0,Low,11.0
579,Low,right,90.0,1.9101474247529249,1.0,29.0,Low,11.0
580,Low,left,90.0,-0.294177793295773,0.0,30.0,Low,11.0
581,Low,left,90.0,1.4165086991709692,0.0,31.0,Low,11.0
582,Low,left,90.0,3.3540760267067338,1.0,32.0,Low,11.0
583,Low,right,90.0,6.071361537909443,0.0,33.0,Low,11.0
584,Low,right,90.0,6.696028941180051,0.0,34.0,Low,11.0
585,Low,right,90.0,3.6540487518845337,1.0,35.0,Low,11.0
586,Low,left,90.0,4.702028527932012,0.0,36.0,Low,11.0
587,Low,right,90.0,2.2086931836050248,0.0,37.0,Low,11.0
588,Low,right,90.0,1.0083896960238834,0.0,38.0,Low,11.0
589,Low,right,90.0,-0.5993137403141271,1.0,39.0,Low,11.0
590,Low,left,90.0,-0.41675119094104507,1.0,40.0,Low,11.0
591,Low,right,90.0,3.0763057299777,1.0,41.0,Low,11.0
592,Low,left,90.0,0.44011397237504435,1.0,42.0,Low,11.0
593,Low,right,90.0,2.5498393363882306,1.0,43.0,Low,11.0
594,Low,right,90.0,0.3385565577183227,0.0,44.0,Low,11.0
595,Low,right,90.0,0.5145697374790705,1.0,45.0,Low,11.0
596,Low,right,90.0,3.4158736714637494,1.0,46.0,Low,11.0
597,Low,right,90.0,1.550359108723463,0.0,47.0,Low,11.0
598,Low,right,90.0,1.6771012589547374,0.0,48.0,Low,11.0
599,Low,right,90.0,0.7416200045308725,1.0,49.0,Low,11.0
