,Arousal,KeyPressed,LearningTime,RT,Response,TrialNumber,Valence,nBlock
0,High,right,30.0,-0.9649125033187245,0.0,0.0,Low,0.0
1,High,left,30.0,1.690989414549119,0.0,1.0,Low,0.0
2,High,left,30.0,2.752807603650146,0.0,2.0,Low,0.0
3,High,right,30.0,1.6711503862627617,0.0,3.0,Low,0.0
4,High,left,30.0,1.8234135442499535,0.0,4.0,Low,0.0
5,High,left,30.0,-3.1776398664832284,1.0,5.0,Low,0.0
6,High,left,30.0,-2.5373213586760057,0.0,6.0,Low,0.0
7,High,right,30.0,0.8659579231783696,0.0,7.0,Low,0.0
8,High,left,30.0,-1.8894107062282306,0.0,8.0,Low,0.0
9,High,left,30.0,-0.9046654071263549,1.0,9.0,Low,0.0
10,High,left,30.0,1.4275274842558054,1.0,10.0,Low,0.0
11,High,right,30.0,2.137980371927015,0.0,11.0,Low,0.0
12,High,right,30.0,-1.841633804831811,0.0,12.0,Low,0.0
13,High,right,30.0,2.9320393208721627,0.0,13.0,Low,0.0
14,High,right,30.0,1.9845476681452618,0.0,14.0,Low,0.0
15,High,left,30.0,0.897002852020919,0.0,15.0,Low,0.0
16,High,left,30.0,-0.7264513394241754,0.0,16.0,Low,0.0
17,High,left,30.0,1.790754296741523,0.0,17.0,Low,0.0
18,High,right,30.0,4.224527983395651,1.0,18.0,Low,0.0
19,High,right,30.0,2.6492559295142053,0.0,19.0,Low,0.0
20,High,right,30.0,4.3431707180194685,0.0,20.0,Low,0.0
21,High,left,30.0,-1.2802992970263074,0.0,21.0,Low,0.0
22,High,left,30.0,2.344365541143805,1.0,22.0,Low,0.0
23,High,left,30.0,2.4555143770633663,1.0,23.0,Low,0.0
24,High,left,30.0,1.7004737963519783,1.0,24.0,Low,0.0
25,High,left,30.0,0.28183695468509584,1.0,25.0,Low,0.0
26,High,left,30.0,6.942720416205752,1.0,26.0,Low,0.0
27,High,right,30.0,1.5722313905287797,1.0,27.0,Low,0.0
28,High,left,30.0,2.276425893271939,0.0,28.0,Low,0.0
29,High,left,30.0,-1.3675913952474064,1.0,29.0,Low,0.0
30,High,right,30.0,3.6245630215508022,1.0,30.0,Low,0.0
31,High,right,30.0,6.742178307835993,1.0,31.0,Low,0.0
32,High,left,30.0,1.0513206446168675,1.0,32.0,Low,0.0
33,High,left,30.0,4.084918351251092,0.0,33.0,Low,0.0
34,High,right,30.0,4.692884503866436,0.0,34.0,Low,0.0
35,High,right,30.0,3.6147361452042786,1.0,35.0,Low,0.0
36,High,left,30.0,1.2437565011241352,1.0,36.0,Low,0.0
37,High,right,30.0,1.331428950883683,1.0,37.0,Low,0.0
38,High,right,30.0,3.6102337952577743,0.0,38.0,Low,0.0
39,High,right,30.0,3.4388153726959914,1.0,39.0,Low,0.0
40,High,left,30.0,6.821397944274687,0.0,40.0,Low,0.0
41,High,right,30.0,-1.5943532391344932,1.0,41.0,Low,0.0
42,High,left,30.0,2.429844345726851,1.0,42.0,Low,0.0
43,High,right,30.0,1.2809260985461457,1.0,43.0,Low,0.0
44,High,left,30.0,3.421194367472369,0.0,44.0,Low,0.0
45,High,left,30.0,4.056444667734368,0.0,45.0,Low,0.0
46,High,right,30.0,2.9515166579053673,0.0,46.0,Low,0.0
47,High,left,30.0,1.7129127763636398,1.0,47.0,Low,0.0
48,High,left,30.0,1.6601741009776019,1.0,48.0,Low,0.0
49,High,right,30.0,0.2719264452346706,0.0,49.0,Low,0.0
50,Low,right,30.0,4.703122068259284,0.0,0.0,High,1.0
51,Low,left,30.0,1.7961926036054092,0.0,1.0,High,1.0
52,Low,right,30.0,4.477140815846976,0.0,2.0,High,1.0
53,Low,right,30.0,1.3044526598734698,0.0,3.0,High,1.0
54,Low,left,30.0,2.1698203794977506,1.0,4.0,High,1.0
55,Low,right,30.0,0.747864060916861,0.0,5.0,High,1.0
56,Low,right,30.0,1.819559473038772,1.0,6.0,High,1.0
57,Low,right,30.0,0.03533719835367499,0.0,7.0,High,1.0
58,Low,left,30.0,-3.6972110348687357,0.0,8.0,High,1.0
59,Low,right,30.0,4.8849505688070956,1.0,9.0,High,1.0
60,Low,right,30.0,2.3490463206172083,1.0,10.0,High,1.0
61,Low,right,30.0,4.338790523472501,1.0,11.0,High,1.0
62,Low,right,30.0,2.7792697984157178,0.0,12.0,High,1.0
63,Low,right,30.0,-1.7384361997477926,0.0,13.0,High,1.0
64,Low,left,30.0,2.262223548544559,1.0,14.0,High,1.0
65,Low,right,30.0,-0.6214141657816128,0.0,15.0,High,1.0
66,Low,right,30.0,0.8558287377961808,1.0,16.0,High,1.0
67,Low,left,30.0,2.8717898879407997,1.0,17.0,High,1.0
68,Low,left,30.0,-0.016291410809683216,1.0,18.0,High,1.0
69,Low,right,30.0,-0.22079588519214655,0.0,19.0,High,1.0
70,Low,right,30.0,2.2301347374435694,1.0,20.0,High,1.0
71,Low,right,30.0,0.46024008621721313,0.0,21.0,High,1.0
72,Low,left,30.0,-1.4948478730853991,0.0,22.0,High,1.0
73,Low,right,30.0,3.306249477854694,1.0,23.0,High,1.0
74,Low,left,30.0,-1.253585515579998,1.0,24.0,High,1.0
75,Low,left,30.0,1.3714693459772747,0.0,25.0,High,1.0
76,Low,right,30.0,2.0483343924690054,1.0,26.0,High,1.0
77,Low,right,30.0,1.5766050670686782,1.0,27.0,High,1.0
78,Low,left,30.0,1.049080743965915,1.0,28.0,High,1.0
79,Low,right,30.0,2.1302209958821177,1.0,29.0,High,1.0
80,Low,right,30.0,1.3213323875655458,0.0,30.0,High,1.0
81,Low,right,30.0,0.06364757108274421,0.0,31.0,High,1.0
82,Low,right,30.0,4.38716912837457,1.0,32.0,High,1.0
83,Low,left,30.0,5.16543552635422,1.0,33.0,High,1.0
84,Low,left,30.0,1.874202925291699,1.0,34.0,High,1.0
85,Low,right,30.0,5.246960425264874,1.0,35.0,High,1.0
86,Low,left,30.0,-0.9072305197120096,1.0,36.0,High,1.0
87,Low,left,30.0,0.5713450910392333,1.0,37.0,High,1.0
88,Low,left,30.0,4.842202767073527,0.0,38.0,High,1.0
89,Low,left,30.0,3.247488461308765,0.0,39.0,High,1.0
90,Low,left,30.0,2.711437051930743,1.0,40.0,High,1.0
91,Low,right,30.0,3.978081160090634,1.0,41.0,High,1.0
92,Low,right,30.0,0.5885994333425457,0.0,42.0,High,1.0
93,Low,left,30.0,4.273627850694044,1.0,43.0,High,1.0
94,Low,right,30.0,1.6908746181978367,1.0,44.0,High,1.0
95,Low,left,30.0,4.019551864669703,1.0,45.0,High,1.0
96,Low,right,30.0,2.881407435831868,1.0,46.0,High,1.0
97,Low,left,30.0,5.8852779580902865,1.0,47.0,High,1.0
98,Low,left,30.0,1.58845797200566,1.0,48.0,High,1.0
99,Low,left,30.0,2.189104120806106,0.0,49.0,High,1.0
100,High,right,30.0,-0.6395313631002164,0.0,0.0,High,2.0
101,High,right,30.0,3.5475961957556787,0.0,1.0,High,2.0
102,High,right,30.0,0.20681419887940589,0.0,2.0,High,2.0
103,High,right,30.0,2.7854331296599026,1.0,3.0,High,2.0
104,High,right,30.0,5.011925105037083,0.0,4.0,High,2.0
105,High,right,30.0,0.32341210351813743,0.0,5.0,High,2.0
106,High,left,30.0,4.896133774488169,1.0,6.0,High,2.0
107,High,right,30.0,-1.465077385884733,1.0,7.0,High,2.0
108,High,right,30.0,0.38292135908787994,0.0,8.0,High,2.0
109,High,left,30.0,1.4383380415574105,0.0,9.0,High,2.0
110,High,left,30.0,1.47903764263113,1.0,10.0,High,2.0
111,High,left,30.0,2.14652606591651,1.0,11.0,High,2.0
112,High,right,30.0,-0.3777789580777391,0.0,12.0,High,2.0
113,High,right,30.0,-1.576616638826779,1.0,13.0,High,2.0
114,High,right,30.0,1.9538149918097398,1.0,14.0,High,2.0
115,High,right,30.0,2.7419299849436767,0.0,15.0,High,2.0
116,High,left,30.0,0.562870798462602,0.0,16.0,High,2.0
117,High,right,30.0,3.807165144245486,0.0,17.0,High,2.0
118,High,right,30.0,3.5551512648626566,0.0,18.0,High,2.0
119,High,left,30.0,1.56135928055271,1.0,19.0,High,2.0
120,High,right,30.0,-0.2889170585334626,0.0,20.0,High,2.0
121,High,right,30.0,2.0776419349298973,0.0,21.0,High,2.0
122,High,left,30.0,3.268665792456673,1.0,22.0,High,2.0
123,High,left,30.0,-0.47495557597503213,1.0,23.0,High,2.0
124,High,right,30.0,0.9537895514785744,1.0,24.0,High,2.0
125,High,left,30.0,1.5147892404117476,0.0,25.0,High,2.0
126,High,right,30.0,1.6334429153025234,0.0,26.0,High,2.0
127,High,right,30.0,3.5765741479973983,0.0,27.0,High,2.0
128,High,right,30.0,-0.4654790144766019,0.0,28.0,High,2.0
129,High,left,30.0,4.496478425920642,0.0,29.0,High,2.0
130,High,left,30.0,1.0401954026837648,0.0,30.0,High,2.0
131,High,right,30.0,2.26271107941423,1.0,31.0,High,2.0
132,High,left,30.0,-1.3596428635411295,1.0,32.0,High,2.0
133,High,left,30.0,0.2772323233397904,1.0,33.0,High,2.0
134,High,right,30.0,4.293855516443739,0.0,34.0,High,2.0
135,High,left,30.0,3.298514373639465,1.0,35.0,High,2.0
136,High,right,30.0,0.654173646368702,1.0,36.0,High,2.0
137,High,right,30.0,-0.4893300038921711,1.0,37.0,High,2.0
138,High,right,30.0,3.6381626291528217,1.0,38.0,High,2.0
139,High,left,30.0,1.300601352784144,0.0,39.0,High,2.0
140,High,left,30.0,-1.4836783357153829,0.0,40.0,High,2.0
141,High,right,30.0,1.3514542110964827,0.0,41.0,High,2.0
142,High,left,30.0,-0.30064439561499734,1.0,42.0,High,2.0
143,High,right,30.0,3.8335054788988963,1.0,43.0,High,2.0
144,High,right,30.0,-0.05197085483378672,0.0,44.0,High,2.0
145,High,left,30.0,0.08389946647255786,0.0,45.0,High,2.0
146,High,left,30.0,-0.7384788014516865,0.0,46.0,High,2.0
147,High,left,30.0,3.8442493914726876,1.0,47.0,High,2.0
148,High,right,30.0,1.7361390497869422,1.0,48.0,High,2.0
149,High,left,30.0,2.5979209865223467,0.0,49.0,High,2.0
150,Low,left,60.0,0.08926697667079964,1.0,0.0,High,3.0
151,Low,right,60.0,1.001714028411034,1.0,1.0,High,3.0
152,Low,left,60.0,-0.08351303899004359,1.0,2.0,High,3.0
153,Low,right,60.0,3.697047355086974,1.0,3.0,High,3.0
154,Low,right,60.0,3.5446602492296004,1.0,4.0,High,3.0
155,Low,right,60.0,1.8009461162871307,1.0,5.0,High,3.0
156,Low,left,60.0,0.03338142922798659,0.0,6.0,High,3.0
157,Low,left,60.0,0.023042691295318996,1.0,7.0,High,3.0
158,Low,right,60.0,0.594652848793476,1.0,8.0,High,3.0
159,Low,right,60.0,4.440000566565461,0.0,9.0,High,3.0
160,Low,left,60.0,3.226242558293696,0.0,10.0,High,3.0
161,Low,left,60.0,1.3389644848895637,1.0,11.0,High,3.0
162,Low,left,60.0,3.690857915348479,1.0,12.0,High,3.0
163,Low,left,60.0,-0.5556582792573848,0.0,13.0,High,3.0
164,Low,left,60.0,-1.0059878673904081,1.0,14.0,High,3.0
165,Low,right,60.0,1.9119726613972436,1.0,15.0,High,3.0
166,Low,right,60.0,-0.8013930818755948,0.0,16.0,High,3.0
167,Low,right,60.0,1.1361046807092154,0.0,17.0,High,3.0
168,Low,left,60.0,5.441805829857192,1.0,18.0,High,3.0
169,Low,left,60.0,-0.7397025440875629,1.0,19.0,High,3.0
170,Low,right,60.0,2.209581727360138,1.0,20.0,High,3.0
171,Low,right,60.0,1.7727326253419688,0.0,21.0,High,3.0
172,Low,left,60.0,3.9139951270535542,0.0,22.0,High,3.0
173,Low,left,60.0,3.0167906661674406,1.0,23.0,High,3.0
174,Low,right,60.0,-0.3596695511765706,0.0,24.0,High,3.0
175,Low,right,60.0,2.277344927505753,0.0,25.0,High,3.0
176,Low,left,60.0,0.09412753825882758,0.0,26.0,High,3.0
177,Low,left,60.0,2.3976257333807007,0.0,27.0,High,3.0
178,Low,right,60.0,-0.26324674032573303,0.0,28.0,High,3.0
179,Low,right,60.0,-0.03955990707263424,0.0,29.0,High,3.0
180,Low,right,60.0,2.4250796853826757,0.0,30.0,High,3.0
181,Low,left,60.0,1.5138850976599976,1.0,31.0,High,3.0
182,Low,left,60.0,1.6914777693485077,1.0,32.0,High,3.0
183,Low,right,60.0,4.338955987736248,0.0,33.0,High,3.0
184,Low,right,60.0,5.268237757739795,1.0,34.0,High,3.0
185,Low,right,60.0,2.695702696584573,0.0,35.0,High,3.0
186,Low,left,60.0,4.07555418785772,0.0,36.0,High,3.0
187,Low,right,60.0,-0.7055174810094214,1.0,37.0,High,3.0
188,Low,right,60.0,0.7624902845634418,0.0,38.0,High,3.0
189,Low,left,60.0,2.145876473600027,1.0,39.0,High,3.0
190,Low,left,60.0,1.6427673636243885,1.0,40.0,High,3.0
191,Low,left,60.0,3.411744866392257,1.0,41.0,High,3.0
192,Low,right,60.0,4.499409805505158,1.0,42.0,High,3.0
193,Low,left,60.0,-0.14329584123718453,1.0,43.0,High,3.0
194,Low,left,60.0,2.079464897124855,0.0,44.0,High,3.0
195,Low,left,60.0,2.931058241306815,1.0,45.0,High,3.0
196,Low,right,60.0,1.4531566321549816,1.0,46.0,High,3.0
197,Low,left,60.0,1.2547558539371726,0.0,47.0,High,3.0
198,Low,right,60.0,1.211428888123383,0.0,48.0,High,3.0
199,Low,left,60.0,0.2026120448771942,1.0,49.0,High,3.0
200,High,right,60.0,-2.550625885892015,0.0,0.0,Low,4.0
201,High,left,60.0,1.5681894369332865,0.0,1.0,Low,4.0
202,High,left,60.0,5.535437001038606,0.0,2.0,Low,4.0
203,High,right,60.0,1.3152613625670326,1.0,3.0,Low,4.0
204,High,left,60.0,5.196065920423435,0.0,4.0,Low,4.0
205,High,right,60.0,2.75817283176693,1.0,5.0,Low,4.0
206,High,right,60.0,4.648482448012686,0.0,6.0,Low,4.0
207,High,right,60.0,0.8820270866275223,0.0,7.0,Low,4.0
208,High,left,60.0,3.2052658048297213,1.0,8.0,Low,4.0
209,High,right,60.0,5.192437906961701,1.0,9.0,Low,4.0
210,High,left,60.0,1.5226066366765059,0.0,10.0,Low,4.0
211,High,left,60.0,0.32524265635235916,0.0,11.0,Low,4.0
212,High,left,60.0,1.7849726273775195,0.0,12.0,Low,4.0
213,High,right,60.0,-0.4349676779112861,1.0,13.0,Low,4.0
214,High,right,60.0,2.598490180878142,1.0,14.0,Low,4.0
215,High,right,60.0,5.19730607643301,0.0,15.0,Low,4.0
216,High,right,60.0,1.0060296946506437,0.0,16.0,Low,4.0
217,High,left,60.0,1.6915118230302166,0.0,17.0,Low,4.0
218,High,left,60.0,-0.4105597225356483,0.0,18.0,Low,4.0
219,High,left,60.0,1.899563542549663,0.0,19.0,Low,4.0
220,High,right,60.0,5.847465512023561,1.0,20.0,Low,4.0
221,High,left,60.0,-0.8070660304646116,0.0,21.0,Low,4.0
222,High,left,60.0,5.363166303660403,1.0,22.0,Low,4.0
223,High,right,60.0,2.6292991158324552,0.0,23.0,Low,4.0
224,High,right,60.0,1.075661221796727,1.0,24.0,Low,4.0
225,High,right,60.0,5.358046527536358,1.0,25.0,Low,4.0
226,High,left,60.0,-0.4223024137009883,1.0,26.0,Low,4.0
227,High,left,60.0,0.019353182662295243,0.0,27.0,Low,4.0
228,High,right,60.0,3.429861334498246,0.0,28.0,Low,4.0
229,High,right,60.0,-0.6990006624967693,1.0,29.0,Low,4.0
230,High,left,60.0,-1.6889105925240933,0.0,30.0,Low,4.0
231,High,left,60.0,0.9214920295724045,1.0,31.0,Low,4.0
232,High,left,60.0,0.29457451272981094,0.0,32.0,Low,4.0
233,High,left,60.0,0.7828373716753174,0.0,33.0,Low,4.0
234,High,left,60.0,1.488063660557137,1.0,34.0,Low,4.0
235,High,left,60.0,3.3134041153561555,0.0,35.0,Low,4.0
236,High,right,60.0,1.5434729961871314,1.0,36.0,Low,4.0
237,High,right,60.0,0.25782723129419094,1.0,37.0,Low,4.0
238,High,right,60.0,5.21964733903113,1.0,38.0,Low,4.0
239,High,right,60.0,2.6861758783501513,1.0,39.0,Low,4.0
240,High,right,60.0,0.10577651717862357,0.0,40.0,Low,4.0
241,High,left,60.0,2.9937440973230247,1.0,41.0,Low,4.0
242,High,left,60.0,1.5345438611411093,1.0,42.0,Low,4.0
243,High,right,60.0,-1.1556727240501927,1.0,43.0,Low,4.0
244,High,right,60.0,-1.4576138341137526,0.0,44.0,Low,4.0
245,High,right,60.0,4.018293017681848,1.0,45.0,Low,4.0
246,High,left,60.0,1.9337168769896553,1.0,46.0,Low,4.0
247,High,left,60.0,6.035251382476577,0.0,47.0,Low,4.0
248,High,left,60.0,0.9825541167330125,0.0,48.0,Low,4.0
249,High,left,60.0,1.3952551483658868,1.0,49.0,Low,4.0
250,Low,left,30.0,0.8920625103199147,1.0,0.0,Low,5.0
251,Low,left,30.0,-0.19703006644335375,0.0,1.0,Low,5.0
252,Low,left,30.0,5.2855250222026715,0.0,2.0,Low,5.0
253,Low,left,30.0,5.002584972513323,0.0,3.0,Low,5.0
254,Low,right,30.0,3.62169797825024,0.0,4.0,Low,5.0
255,Low,left,30.0,1.4503282231580814,1.0,5.0,Low,5.0
256,Low,right,30.0,5.551178418493329,0.0,6.0,Low,5.0
257,Low,right,30.0,1.9483664805333534,1.0,7.0,Low,5.0
258,Low,left,30.0,1.6139622699777347,0.0,8.0,Low,5.0
259,Low,left,30.0,1.9984305626046066,0.0,9.0,Low,5.0
260,Low,left,30.0,-0.1309192097117735,1.0,10.0,Low,5.0
261,Low,right,30.0,1.412478029395308,1.0,11.0,Low,5.0
262,Low,left,30.0,1.0908781255328983,0.0,12.0,Low,5.0
263,Low,right,30.0,3.8402606463673425,1.0,13.0,Low,5.0
264,Low,left,30.0,2.397350993494517,1.0,14.0,Low,5.0
265,Low,left,30.0,-1.6132077274010084,1.0,15.0,Low,5.0
266,Low,left,30.0,-0.023540919696866336,0.0,16.0,Low,5.0
267,Low,right,30.0,3.529552676961828,1.0,17.0,Low,5.0
268,Low,left,30.0,3.2083903357390717,0.0,18.0,Low,5.0
269,Low,right,30.0,1.036927873118736,0.0,19.0,Low,5.0
270,Low,left,30.0,1.5444491545998027,0.0,20.0,Low,5.0
271,Low,right,30.0,-0.547695795843731,1.0,21.0,Low,5.0
272,Low,right,30.0,1.7290801899305577,1.0,22.0,Low,5.0
273,Low,right,30.0,-0.5072970520071545,1.0,23.0,Low,5.0
274,Low,right,30.0,-0.42932076285892373,0.0,24.0,Low,5.0
275,Low,right,30.0,-0.31247951697822063,0.0,25.0,Low,5.0
276,Low,right,30.0,5.264503768540884,1.0,26.0,Low,5.0
277,Low,left,30.0,1.0645143392732765,0.0,27.0,Low,5.0
278,Low,right,30.0,-0.26854995720159236,1.0,28.0,Low,5.0
279,Low,left,30.0,0.7310636955234071,1.0,29.0,Low,5.0
280,Low,left,30.0,-0.9595501730283282,0.0,30.0,Low,5.0
281,Low,right,30.0,0.6935689156217835,0.0,31.0,Low,5.0
282,Low,right,30.0,0.003113606908704769,0.0,32.0,Low,5.0
283,Low,left,30.0,3.3703201811498698,1.0,33.0,Low,5.0
284,Low,left,30.0,4.45062870700573,0.0,34.0,Low,5.0
285,Low,left,30.0,1.8948385652919195,1.0,35.0,Low,5.0
286,Low,left,30.0,6.602996766129348,1.0,36.0,Low,5.0
287,Low,right,30.0,0.9662672841731671,1.0,37.0,Low,5.0
288,Low,left,30.0,1.073273894074068,1.0,38.0,Low,5.0
289,Low,left,30.0,2.1183435838986497,0.0,39.0,Low,5.0
290,Low,left,30.0,0.9975877249439457,1.0,40.0,Low,5.0
291,Low,left,30.0,3.0683814780478,1.0,41.0,Low,5.0
292,Low,right,30.0,3.102049030432449,0.0,42.0,Low,5.0
293,Low,left,30.0,-2.549532276584292,1.0,43.0,Low,5.0
294,Low,right,30.0,3.9318986905523783,1.0,44.0,Low,5.0
295,Low,right,30.0,2.864275265495752,0.0,45.0,Low,5.0
296,Low,right,30.0,2.7898780804834464,0.0,46.0,Low,5.0
297,Low,left,30.0,-2.981167023237018,0.0,47.0,Low,5.0
298,Low,right,30.0,-2.880001602105842,1.0,48.0,Low,5.0
299,Low,right,30.0,1.2655266908064782,1.0,49.0,Low,5.0
300,High,right,60.0,3.127435351353991,1.0,0.0,High,6.0
301,High,right,60.0,0.6888066723307307,0.0,1.0,High,6.0
302,High,right,60.0,0.531851673094734,1.0,2.0,High,6.0
303,High,left,60.0,1.4907047936805256,1.0,3.0,High,6.0
304,High,left,60.0,-0.12312930143608725,0.0,4.0,High,6.0
305,High,right,60.0,3.6186692281631028,0.0,5.0,High,6.0
306,High,left,60.0,4.4451798440953185,1.0,6.0,High,6.0
307,High,right,60.0,2.07668650204327,0.0,7.0,High,6.0
308,High,right,60.0,1.4111612908335913,1.0,8.0,High,6.0
309,High,left,60.0,2.2372507153797154,0.0,9.0,High,6.0
310,High,right,60.0,2.1449964871039815,1.0,10.0,High,6.0
311,High,right,60.0,4.060834632276222,1.0,11.0,High,6.0
312,High,left,60.0,0.33074625853090867,1.0,12.0,High,6.0
313,High,right,60.0,0.7205988731056882,0.0,13.0,High,6.0
314,High,left,60.0,1.6586257197020031,0.0,14.0,High,6.0
315,High,right,60.0,-2.37245006179579,1.0,15.0,High,6.0
316,High,left,60.0,1.8762870805903689,1.0,16.0,High,6.0
317,High,right,60.0,1.291025172999034,1.0,17.0,High,6.0
318,High,right,60.0,0.25359930540549214,0.0,18.0,High,6.0
319,High,right,60.0,2.3111937448987243,1.0,19.0,High,6.0
320,High,left,60.0,-1.2652093047203703,1.0,20.0,High,6.0
321,High,left,60.0,4.634344028491144,0.0,21.0,High,6.0
322,High,right,60.0,2.5152674388277148,0.0,22.0,High,6.0
323,High,left,60.0,2.6805956870942884,1.0,23.0,High,6.0
324,High,right,60.0,2.056137634680604,1.0,24.0,High,6.0
325,High,left,60.0,0.35663704593894474,1.0,25.0,High,6.0
326,High,left,60.0,2.9859866807415156,0.0,26.0,High,6.0
327,High,right,60.0,-0.10242834003300283,0.0,27.0,High,6.0
328,High,right,60.0,-1.449919447958579,0.0,28.0,High,6.0
329,High,left,60.0,4.582232994910781,0.0,29.0,High,6.0
330,High,right,60.0,4.422425917260106,0.0,30.0,High,6.0
331,High,right,60.0,-0.014962234282353215,0.0,31.0,High,6.0
332,High,right,60.0,5.295072839848418,1.0,32.0,High,6.0
333,High,right,60.0,2.1375413436148767,1.0,33.0,High,6.0
334,High,right,60.0,4.914215048709697,1.0,34.0,High,6.0
335,High,left,60.0,2.906551938338878,1.0,35.0,High,6.0
336,High,left,60.0,2.336277001397494,1.0,36.0,High,6.0
337,High,right,60.0,3.8558805701443557,1.0,37.0,High,6.0
338,High,right,60.0,0.26688361155578155,1.0,38.0,High,6.0
339,High,right,60.0,3.097007024543079,1.0,39.0,High,6.0
340,High,left,60.0,1.9495400753963532,0.0,40.0,High,6.0
341,High,left,60.0,1.930866514313025,1.0,41.0,High,6.0
342,High,left,60.0,3.134619133562188,0.0,42.0,High,6.0
343,High,left,60.0,-0.6592078844094149,1.0,43.0,High,6.0
344,High,left,60.0,1.0119399041126047,0.0,44.0,High,6.0
345,High,right,60.0,2.9353567402075424,1.0,45.0,High,6.0
346,High,right,60.0,-1.663781986227109,0.0,46.0,High,6.0
347,High,left,60.0,1.7388038871940632,0.0,47.0,High,6.0
348,High,left,60.0,2.708266512508446,0.0,48.0,High,6.0
349,High,right,60.0,1.9631986413781368,1.0,49.0,High,6.0
350,Low,right,60.0,0.435829443984727,1.0,0.0,Low,7.0
351,Low,right,60.0,-0.06199110493712068,0.0,1.0,Low,7.0
352,Low,left,60.0,1.576947969003962,0.0,2.0,Low,7.0
353,Low,left,60.0,1.4738090330984583,0.0,3.0,Low,7.0
354,Low,left,60.0,0.6553272780682939,0.0,4.0,Low,7.0
355,Low,left,60.0,4.573367894331086,1.0,5.0,Low,7.0
356,Low,left,60.0,2.8576935836848607,1.0,6.0,Low,7.0
357,Low,right,60.0,2.9354249405216657,1.0,7.0,Low,7.0
358,Low,left,60.0,0.42107442382227434,1.0,8.0,Low,7.0
359,Low,right,60.0,3.538955308053926,1.0,9.0,Low,7.0
360,Low,left,60.0,-3.8295723078110155,1.0,10.0,Low,7.0
361,Low,right,60.0,3.190093254121039,1.0,11.0,Low,7.0
362,Low,right,60.0,0.3870981799167119,1.0,12.0,Low,7.0
363,Low,right,60.0,3.8028494901108925,1.0,13.0,Low,7.0
364,Low,right,60.0,5.21981818442645,0.0,14.0,Low,7.0
365,Low,right,60.0,-0.7569694343856437,1.0,15.0,Low,7.0
366,Low,left,60.0,0.19226309211137926,0.0,16.0,Low,7.0
367,Low,left,60.0,-1.174665519490897,0.0,17.0,Low,7.0
368,Low,left,60.0,2.6096559547732556,1.0,18.0,Low,7.0
369,Low,right,60.0,1.7348949798472968,1.0,19.0,Low,7.0
370,Low,right,60.0,5.624465115105776,0.0,20.0,Low,7.0
371,Low,left,60.0,1.6168698698470665,0.0,21.0,Low,7.0
372,Low,left,60.0,-0.6839991505465899,1.0,22.0,Low,7.0
373,Low,right,60.0,-1.210077595449845,1.0,23.0,Low,7.0
374,Low,left,60.0,1.0878807115667943,1.0,24.0,Low,7.0
375,Low,left,60.0,2.2349829545661364,1.0,25.0,Low,7.0
376,Low,left,60.0,0.4956118270028942,1.0,26.0,Low,7.0
377,Low,left,60.0,2.928770293757988,0.0,27.0,Low,7.0
378,Low,left,60.0,2.5966103881305536,1.0,28.0,Low,7.0
379,Low,left,60.0,2.8642691045229385,0.0,29.0,Low,7.0
380,Low,right,60.0,-0.054732520561042275,0.0,30.0,Low,7.0
381,Low,left,60.0,0.8660917193386894,1.0,31.0,Low,7.0
382,Low,right,60.0,4.043619508769483,0.0,32.0,Low,7.0
383,Low,left,60.0,0.9213802322293667,1.0,33.0,Low,7.0
384,Low,right,60.0,4.237455660210692,0.0,34.0,Low,7.0
385,Low,right,60.0,2.364119556727015,0.0,35.0,Low,7.0
386,Low,left,60.0,-0.6055343145956593,0.0,36.0,Low,7.0
387,Low,right,60.0,-0.865081804677857,0.0,37.0,Low,7.0
388,Low,left,60.0,-1.8040882519795454,1.0,38.0,Low,7.0
389,Low,right,60.0,0.22855602318811252,1.0,39.0,Low,7.0
390,Low,left,60.0,5.670160828804692,1.0,40.0,Low,7.0
391,Low,left,60.0,3.621632399248452,0.0,41.0,Low,7.0
392,Low,right,60.0,1.103090353534474,0.0,42.0,Low,7.0
393,Low,left,60.0,3.5563892573401192,0.0,43.0,Low,7.0
394,Low,right,60.0,5.698252043090461,0.0,44.0,Low,7.0
395,Low,left,60.0,0.7678821993050597,0.0,45.0,Low,7.0
396,Low,left,60.0,1.9419345155089376,0.0,46.0,Low,7.0
397,Low,left,60.0,-2.849460122277696,0.0,47.0,Low,7.0
398,Low,right,60.0,2.594950758152958,1.0,48.0,Low,7.0
399,Low,right,60.0,4.1617681787371925,1.0,49.0,Low,7.0
400,High,right,90.0,0.7251289681805551,1.0,0.0,High,8.0
401,High,left,90.0,0.8249114544602149,0.0,1.0,High,8.0
402,High,right,90.0,5.994506071883656,1.0,2.0,High,8.0
403,High,right,90.0,0.08201091565359864,1.0,3.0,High,8.0
404,High,left,90.0,1.6931628350973793,1.0,4.0,High,8.0
405,High,right,90.0,2.9791499145077056,1.0,5.0,High,8.0
406,High,right,90.0,3.6947442823129037,0.0,6.0,High,8.0
407,High,left,90.0,1.3581875467487963,1.0,7.0,High,8.0
408,High,right,90.0,1.4886195048682644,1.0,8.0,High,8.0
409,High,left,90.0,3.2686329529368114,0.0,9.0,High,8.0
410,High,left,90.0,2.0256643402119154,1.0,10.0,High,8.0
411,High,right,90.0,6.536194221461759,1.0,11.0,High,8.0
412,High,left,90.0,6.248182882899632,0.0,12.0,High,8.0
413,High,left,90.0,3.6267705775917776,1.0,13.0,High,8.0
414,High,left,90.0,0.33644339480148044,0.0,14.0,High,8.0
415,High,left,90.0,-0.24616588183974764,1.0,15.0,High,8.0
416,High,left,90.0,3.137180851467345,0.0,16.0,High,8.0
417,High,left,90.0,2.157177459097469,1.0,17.0,High,8.0
418,High,left,90.0,-0.39059280495628323,0.0,18.0,High,8.0
419,High,right,90.0,3.4814651096899896,1.0,19.0,High,8.0
420,High,right,90.0,1.5861563487931774,1.0,20.0,High,8.0
421,High,right,90.0,0.6401745793247715,0.0,21.0,High,8.0
422,High,right,90.0,0.9690944754482302,1.0,22.0,High,8.0
423,High,right,90.0,3.4076383571270425,0.0,23.0,High,8.0
424,High,left,90.0,-0.5062353726429274,0.0,24.0,High,8.0
425,High,right,90.0,1.6041422300427115,0.0,25.0,High,8.0
426,High,right,90.0,2.9672274456155483,1.0,26.0,High,8.0
427,High,left,90.0,3.789528360526295,1.0,27.0,High,8.0
428,High,right,90.0,2.9682162093809374,1.0,28.0,High,8.0
429,High,right,90.0,3.6820594645703206,0.0,29.0,High,8.0
430,High,right,90.0,2.3715000647316975,0.0,30.0,High,8.0
431,High,right,90.0,-0.39343044427301876,0.0,31.0,High,8.0
432,High,left,90.0,-0.7457827650617062,0.0,32.0,High,8.0
433,High,left,90.0,1.9822745325657674,0.0,33.0,High,8.0
434,High,left,90.0,3.9231266355796723,1.0,34.0,High,8.0
435,High,right,90.0,3.7770782125186626,1.0,35.0,High,8.0
436,High,left,90.0,1.280053045304755,1.0,36.0,High,8.0
437,High,right,90.0,-0.12662982840783799,1.0,37.0,High,8.0
438,High,right,90.0,2.090165750592983,1.0,38.0,High,8.0
439,High,right,90.0,2.8843611797088466,1.0,39.0,High,8.0
440,High,left,90.0,1.2749312262881147,0.0,40.0,High,8.0
441,High,left,90.0,2.6667696707107558,1.0,41.0,High,8.0
442,High,left,90.0,5.880874073306212,0.0,42.0,High,8.0
443,High,left,90.0,2.921858745665462,1.0,43.0,High,8.0
444,High,left,90.0,3.0741043150892837,0.0,44.0,High,8.0
445,High,left,90.0,1.5974221129459847,1.0,45.0,High,8.0
446,High,left,90.0,3.810812180873171,0.0,46.0,High,8.0
447,High,right,90.0,3.5269054004347455,0.0,47.0,High,8.0
448,High,left,90.0,1.7138802322243958,1.0,48.0,High,8.0
449,High,right,90.0,0.6073130283771111,1.0,49.0,High,8.0
450,Low,left,90.0,1.2665436320628158,1.0,0.0,Low,9.0
451,Low,left,90.0,1.0088575285976584,1.0,1.0,Low,9.0
452,Low,right,90.0,4.943406872171758,0.0,2.0,Low,9.0
453,Low,left,90.0,0.9205882252465384,0.0,3.0,Low,9.0
454,Low,right,90.0,4.383686337914822,0.0,4.0,Low,9.0
455,Low,left,90.0,-0.7042659587438576,0.0,5.0,Low,9.0
456,Low,right,90.0,1.6074454813941057,0.0,6.0,Low,9.0
457,Low,right,90.0,2.784294814340477,1.0,7.0,Low,9.0
458,Low,left,90.0,3.8117227468931274,1.0,8.0,Low,9.0
459,Low,right,90.0,3.909276919730882,1.0,9.0,Low,9.0
460,Low,left,90.0,3.623375906337895,0.0,10.0,Low,9.0
461,Low,left,90.0,-0.11967855031118413,1.0,11.0,Low,9.0
462,Low,right,90.0,1.0009624381605096,0.0,12.0,Low,9.0
463,Low,left,90.0,0.2033601601561284,0.0,13.0,Low,9.0
464,Low,right,90.0,3.9321057152007386,0.0,14.0,Low,9.0
465,Low,right,90.0,-1.2600167699501204,0.0,15.0,Low,9.0
466,Low,right,90.0,3.549508145693203,1.0,16.0,Low,9.0
467,Low,right,90.0,3.2460579999888775,0.0,17.0,Low,9.0
468,Low,right,90.0,-0.1614745168726115,1.0,18.0,Low,9.0
469,Low,right,90.0,0.6453701663615778,0.0,19.0,Low,9.0
470,Low,left,90.0,1.8194593295054942,1.0,20.0,Low,9.0
471,Low,right,90.0,0.3934079906622334,1.0,21.0,Low,9.0
472,Low,right,90.0,-1.956024724000742,1.0,22.0,Low,9.0
473,Low,right,90.0,3.7866548560801148,1.0,23.0,Low,9.0
474,Low,left,90.0,-0.42727628553393515,1.0,24.0,Low,9.0
475,Low,left,90.0,0.10262060096232895,1.0,25.0,Low,9.0
476,Low,right,90.0,1.492540781714386,1.0,26.0,Low,9.0
477,Low,left,90.0,3.6935622758518365,0.0,27.0,Low,9.0
478,Low,right,90.0,2.8173308635453562,1.0,28.0,Low,9.0
479,Low,right,90.0,4.573313082901667,1.0,29.0,Low,9.0
480,Low,right,90.0,2.120958491262452,1.0,30.0,Low,9.0
481,Low,right,90.0,2.0138984814936207,0.0,31.0,Low,9.0
482,Low,right,90.0,-1.3451209078688118,1.0,32.0,Low,9.0
483,Low,left,90.0,3.8536908189702883,1.0,33.0,Low,9.0
484,Low,right,90.0,-0.04614222551028524,0.0,34.0,Low,9.0
485,Low,right,90.0,3.654407094366738,1.0,35.0,Low,9.0
486,Low,right,90.0,3.170995422461497,0.0,36.0,Low,9.0
487,Low,right,90.0,-1.0770994844049517,1.0,37.0,Low,9.0
488,Low,left,90.0,-0.6867098303053534,0.0,38.0,Low,9.0
489,Low,right,90.0,2.816297754800261,1.0,39.0,Low,9.0
490,Low,left,90.0,1.2545590896591925,1.0,40.0,Low,9.0
491,Low,left,90.0,-0.38662522935403,0.0,41.0,Low,9.0
492,Low,left,90.0,-1.4828020168368372,1.0,42.0,Low,9.0
493,Low,left,90.0,1.7998015508652536,0.0,43.0,Low,9.0
494,Low,left,90.0,2.388005382833989,0.0,44.0,Low,9.0
495,Low,left,90.0,0.30174328108841797,0.0,45.0,Low,9.0
496,Low,right,90.0,3.6282303222180983,0.0,46.0,Low,9.0
497,Low,right,90.0,6.614282972806849,1.0,47.0,Low,9.0
498,Low,left,90.0,-0.0334740718661366,1.0,48.0,Low,9.0
499,Low,right,90.0,4.319580749668841,0.0,49.0,Low,9.0
500,High,left,90.0,4.5600614780319795,1.0,0.0,Low,10.0
501,High,right,90.0,4.281011733966478,1.0,1.0,Low,10.0
502,High,left,90.0,3.122909512588131,0.0,2.0,Low,10.0
503,High,right,90.0,-1.1559802258806435,0.0,3.0,Low,10.0
504,High,right,90.0,3.0183842410406596,0.0,4.0,Low,10.0
505,High,right,90.0,2.4665823767583213,0.0,5.0,Low,10.0
506,High,left,90.0,-0.4972491567870285,1.0,6.0,Low,10.0
507,High,right,90.0,2.4767522546008793,1.0,7.0,Low,10.0
508,High,left,90.0,1.297996121747648,1.0,8.0,Low,10.0
509,High,left,90.0,8.62721794856645,0.0,9.0,Low,10.0
510,High,left,90.0,2.5298309293286034,0.0,10.0,Low,10.0
511,High,right,90.0,1.5204866124366796,0.0,11.0,Low,10.0
512,High,right,90.0,1.4649334431411016,1.0,12.0,Low,10.0
513,High,left,90.0,3.185514718359607,0.0,13.0,Low,10.0
514,High,right,90.0,-0.25645504233849437,1.0,14.0,Low,10.0
515,High,right,90.0,-0.6239066863882701,1.0,15.0,Low,10.0
516,High,right,90.0,2.402417286895814,1.0,16.0,Low,10.0
517,High,left,90.0,-0.6043761656563731,0.0,17.0,Low,10.0
518,High,left,90.0,0.26200712281759797,0.0,18.0,Low,10.0
519,High,left,90.0,5.455315992438494,0.0,19.0,Low,10.0
520,High,right,90.0,2.78856540236516,1.0,20.0,Low,10.0
521,High,left,90.0,3.1782439944893106,0.0,21.0,Low,10.0
522,High,left,90.0,0.5774593928552083,0.0,22.0,Low,10.0
523,High,left,90.0,1.4020731992799007,1.0,23.0,Low,10.0
524,High,left,90.0,-0.4298554628225202,1.0,24.0,Low,10.0
525,High,left,90.0,5.538162214919758,1.0,25.0,Low,10.0
526,High,right,90.0,0.41001351310851386,1.0,26.0,Low,10.0
527,High,right,90.0,1.1371457783555003,1.0,27.0,Low,10.0
528,High,right,90.0,1.5612881194038397,1.0,28.0,Low,10.0
529,High,right,90.0,-0.43769792613980285,1.0,29.0,Low,10.0
530,High,left,90.0,0.508533009952951,1.0,30.0,Low,10.0
531,High,left,90.0,2.941033231487138,0.0,31.0,Low,10.0
532,High,right,90.0,3.874764933159698,1.0,32.0,Low,10.0
533,High,left,90.0,-1.2491354889206177,1.0,33.0,Low,10.0
534,High,left,90.0,1.5856442866734421,0.0,34.0,Low,10.0
535,High,right,90.0,4.2842317430877515,0.0,35.0,Low,10.0
536,High,right,90.0,0.8250358046364201,0.0,36.0,Low,10.0
537,High,left,90.0,1.1331621767913238,1.0,37.0,Low,10.0
538,High,right,90.0,1.9719052676545308,1.0,38.0,Low,10.0
539,High,left,90.0,-3.225053529606122,1.0,39.0,Low,10.0
540,High,right,90.0,2.5562395937395808,0.0,40.0,Low,10.0
541,High,right,90.0,1.6284228568558698,0.0,41.0,Low,10.0
542,High,right,90.0,3.2658305035075497,1.0,42.0,Low,10.0
543,High,left,90.0,3.778279803769583,0.0,43.0,Low,10.0
544,High,right,90.0,-1.3999636551669887,0.0,44.0,Low,10.0
545,High,left,90.0,2.589792110906873,0.0,45.0,Low,10.0
546,High,left,90.0,-0.6099181302528909,0.0,46.0,Low,10.0
547,High,left,90.0,2.455348800681322,0.0,47.0,Low,10.0
548,High,left,90.0,1.7218150934701222,1.0,48.0,Low,10.0
549,High,right,90.0,0.5495247767275431,1.0,49.0,Low,10.0
550,Low,left,90.0,2.7179944727808865,0.0,0.0,High,11.0
551,Low,left,90.0,2.4084190855959777,0.0,1.0,High,11.0
552,Low,left,90.0,-4.208240208948109,0.0,2.0,High,11.0
553,Low,left,90.0,0.5323024425201948,1.0,3.0,High,11.0
554,Low,right,90.0,3.440069380949031,0.0,4.0,High,11.0
555,Low,right,90.0,1.4900589071947943,1.0,5.0,High,11.0
556,Low,left,90.0,0.3642497091368131,1.0,6.0,High,11.0
557,Low,right,90.0,3.831783575967681,1.0,7.0,High,11.0
558,Low,right,90.0,2.1613791648503855,1.0,8.0,High,11.0
559,Low,right,90.0,1.4235462682894964,1.0,9.0,High,11.0
560,Low,left,90.0,1.630060686854258,1.0,10.0,High,11.0
561,Low,right,90.0,2.2732245047060613,1.0,11.0,High,11.0
562,Low,right,90.0,-0.9479839433226069,0.0,12.0,High,11.0
563,Low,right,90.0,0.14258948673926364,0.0,13.0,High,11.0
564,Low,right,90.0,1.0239043469634819,0.0,14.0,High,11.0
565,Low,right,90.0,6.7851660413628085,1.0,15.0,High,11.0
566,Low,left,90.0,4.728150613285955,1.0,16.0,High,11.0
567,Low,left,90.0,2.619280529393613,1.0,17.0,High,11.0
568,Low,left,90.0,-2.5448703616251427,0.0,18.0,High,11.0
569,Low,left,90.0,0.008835192292581784,1.0,19.0,High,11.0
570,Low,left,90.0,0.8702292389605772,0.0,20.0,High,11.0
571,Low,right,90.0,0.5801867973393791,1.0,21.0,High,11.0
572,Low,right,90.0,2.180962940124301,0.0,22.0,High,11.0
573,Low,right,90.0,5.013129472542629,1.0,23.0,High,11.0
574,Low,right,90.0,0.009059495330843381,1.0,24.0,High,11.0
575,Low,right,90.0,4.068741314992004,0.0,25.0,High,11.0
576,Low,right,90.0,5.161824993609146,1.0,26.0,High,11.0
577,Low,right,90.0,3.388342015204014,1.0,27.0,High,11.0
578,Low,right,90.0,0.4343286565128751,0.0,28.0,High,11.0
579,Low,left,90.0,-1.9078364407469866,1.0,29.0,High,11.0
580,Low,right,90.0,7.071627938025704,0.0,30.0,High,11.0
581,Low,right,90.0,1.980248256755936,1.0,31.0,High,11.0
582,Low,right,90.0,2.8922639141889155,0.0,32.0,High,11.0
583,Low,left,90.0,2.8987231621751546,0.0,33.0,High,11.0
584,Low,left,90.0,1.2929002817569801,1.0,34.0,High,11.0
585,Low,right,90.0,3.2785737946536972,0.0,35.0,High,11.0
586,Low,left,90.0,4.681901945721229,0.0,36.0,High,11.0
587,Low,right,90.0,1.353866668067833,1.0,37.0,High,11.0
588,Low,right,90.0,4.368739544303411,1.0,38.0,High,11.0
589,Low,right,90.0,1.7804821098939494,1.0,39.0,High,11.0
590,Low,left,90.0,3.223973896231272,1.0,40.0,High,11.0
591,Low,right,90.0,1.947290024058731,1.0,41.0,High,11.0
592,Low,left,90.0,3.1818353560342425,1.0,42.0,High,11.0
593,Low,right,90.0,-0.5099820825969594,0.0,43.0,High,11.0
594,Low,left,90.0,6.365170674723595,1.0,44.0,High,11.0
595,Low,left,90.0,2.936181558272716,1.0,45.0,High,11.0
596,Low,right,90.0,1.747642537763166,1.0,46.0,High,11.0
597,Low,right,90.0,-0.7461839654051718,0.0,47.0,High,11.0
598,Low,left,90.0,2.6735502701638914,1.0,48.0,High,11.0
599,Low,right,90.0,1.3602351941451305,0.0,49.0,High,11.0
