,Arousal,KeyPressed,LearningTime,RT,Response,TrialNumber,Valence,nBlock
0,High,left,30.0,3.3083939150482777,1.0,0.0,High,0.0
1,High,right,30.0,-0.009843514644888529,1.0,1.0,High,0.0
2,High,left,30.0,0.6219210467540004,0.0,2.0,High,0.0
3,High,right,30.0,-1.4313109526110024,0.0,3.0,High,0.0
4,High,right,30.0,5.118690379426132,0.0,4.0,High,0.0
5,High,left,30.0,1.3439685909244683,0.0,5.0,High,0.0
6,High,right,30.0,3.425582146752382,1.0,6.0,High,0.0
7,High,right,30.0,-0.7032632609786547,1.0,7.0,High,0.0
8,High,right,30.0,0.9986493932151748,0.0,8.0,High,0.0
9,High,right,30.0,-1.1434517763727587,1.0,9.0,High,0.0
10,High,left,30.0,4.255407464011767,1.0,10.0,High,0.0
11,High,right,30.0,3.5576803919121,1.0,11.0,High,0.0
12,High,left,30.0,1.115595330061811,0.0,12.0,High,0.0
13,High,right,30.0,2.6266632250837083,1.0,13.0,High,0.0
14,High,right,30.0,1.1486688011491046,1.0,14.0,High,0.0
15,High,right,30.0,1.4007403641725742,1.0,15.0,High,0.0
16,High,right,30.0,3.588257621332558,0.0,16.0,High,0.0
17,High,right,30.0,5.494817023994622,1.0,17.0,High,0.0
18,High,right,30.0,7.102881548546316,1.0,18.0,High,0.0
19,High,left,30.0,4.899465350332023,1.0,19.0,High,0.0
20,High,left,30.0,3.318798218626602,1.0,20.0,High,0.0
21,High,right,30.0,4.943972834977023,1.0,21.0,High,0.0
22,High,left,30.0,4.290987980386214,0.0,22.0,High,0.0
23,High,left,30.0,1.5564766715100466,1.0,23.0,High,0.0
24,High,right,30.0,-1.211816379410414,1.0,24.0,High,0.0
25,High,left,30.0,-0.54292075603782,0.0,25.0,High,0.0
26,High,left,30.0,2.205611420677635,0.0,26.0,High,0.0
27,High,left,30.0,-2.5552246957049856,0.0,27.0,High,0.0
28,High,left,30.0,4.34205880811651,0.0,28.0,High,0.0
29,High,right,30.0,3.8484937304774824,1.0,29.0,High,0.0
30,High,left,30.0,-0.29422096080566806,1.0,30.0,High,0.0
31,High,right,30.0,0.7986044653511857,0.0,31.0,High,0.0
32,High,left,30.0,2.43133103901448,1.0,32.0,High,0.0
33,High,left,30.0,2.667876445509223,0.0,33.0,High,0.0
34,High,right,30.0,0.3469551287846868,1.0,34.0,High,0.0
35,High,right,30.0,5.117980650499948,0.0,35.0,High,0.0
36,High,left,30.0,2.830344162800837,1.0,36.0,High,0.0
37,High,right,30.0,0.6569300288859492,1.0,37.0,High,0.0
38,High,left,30.0,-1.4490332695563195,0.0,38.0,High,0.0
39,High,left,30.0,0.10301956250805278,0.0,39.0,High,0.0
40,High,right,30.0,3.959019552887906,0.0,40.0,High,0.0
41,High,right,30.0,0.5442149699966043,0.0,41.0,High,0.0
42,High,left,30.0,1.4367441724396772,1.0,42.0,High,0.0
43,High,right,30.0,-1.088607663735461,0.0,43.0,High,0.0
44,High,right,30.0,3.959179799911137,1.0,44.0,High,0.0
45,High,left,30.0,3.939812829859409,0.0,45.0,High,0.0
46,High,left,30.0,5.079719705894032,1.0,46.0,High,0.0
47,High,left,30.0,-1.041267724662899,1.0,47.0,High,0.0
48,High,right,30.0,4.896496935005431,1.0,48.0,High,0.0
49,High,right,30.0,2.457660095772,0.0,49.0,High,0.0
50,Low,left,30.0,6.823455465861398,0.0,0.0,High,1.0
51,Low,left,30.0,-2.711708596723999,0.0,1.0,High,1.0
52,Low,right,30.0,2.657626892749389,1.0,2.0,High,1.0
53,Low,right,30.0,1.0231757156453825,1.0,3.0,High,1.0
54,Low,left,30.0,1.9158378317923341,0.0,4.0,High,1.0
55,Low,right,30.0,4.393986688678655,0.0,5.0,High,1.0
56,Low,left,30.0,0.47109948646128763,0.0,6.0,High,1.0
57,Low,right,30.0,0.2731465950936294,0.0,7.0,High,1.0
58,Low,right,30.0,2.569921246711366,0.0,8.0,High,1.0
59,Low,right,30.0,2.5606941295446597,0.0,9.0,High,1.0
60,Low,left,30.0,1.512610241997915,1.0,10.0,High,1.0
61,Low,left,30.0,2.216801029542697,1.0,11.0,High,1.0
62,Low,right,30.0,10.308459569585699,0.0,12.0,High,1.0
63,Low,right,30.0,3.072763524215749,1.0,13.0,High,1.0
64,Low,right,30.0,2.9297438432348892,1.0,14.0,High,1.0
65,Low,left,30.0,2.4496859103608672,0.0,15.0,High,1.0
66,Low,left,30.0,0.8534242626393095,1.0,16.0,High,1.0
67,Low,right,30.0,0.014642061482246893,0.0,17.0,High,1.0
68,Low,right,30.0,1.5549673189815403,1.0,18.0,High,1.0
69,Low,right,30.0,3.334486148399381,1.0,19.0,High,1.0
70,Low,left,30.0,-0.5199921579966711,1.0,20.0,High,1.0
71,Low,right,30.0,-0.5031811035243594,1.0,21.0,High,1.0
72,Low,left,30.0,0.5877176605993419,0.0,22.0,High,1.0
73,Low,left,30.0,3.1663034161963823,0.0,23.0,High,1.0
74,Low,right,30.0,0.7380678571755562,1.0,24.0,High,1.0
75,Low,right,30.0,2.1523986162377855,0.0,25.0,High,1.0
76,Low,right,30.0,2.3863343396602694,0.0,26.0,High,1.0
77,Low,left,30.0,-0.17591964049225606,1.0,27.0,High,1.0
78,Low,left,30.0,2.6932154562166772,0.0,28.0,High,1.0
79,Low,right,30.0,4.143061371320207,1.0,29.0,High,1.0
80,Low,left,30.0,3.2728259698856466,0.0,30.0,High,1.0
81,Low,left,30.0,1.1254007226218194,0.0,31.0,High,1.0
82,Low,right,30.0,2.1719720582063036,0.0,32.0,High,1.0
83,Low,right,30.0,1.9744211555221631,1.0,33.0,High,1.0
84,Low,left,30.0,1.4162146196922198,0.0,34.0,High,1.0
85,Low,right,30.0,3.7150442118388245,1.0,35.0,High,1.0
86,Low,right,30.0,3.8900290509324997,1.0,36.0,High,1.0
87,Low,left,30.0,2.5425070214991896,0.0,37.0,High,1.0
88,Low,right,30.0,0.6985455693914535,1.0,38.0,High,1.0
89,Low,left,30.0,3.692036755432724,1.0,39.0,High,1.0
90,Low,right,30.0,5.813816439290436,1.0,40.0,High,1.0
91,Low,left,30.0,0.26475197330868017,1.0,41.0,High,1.0
92,Low,left,30.0,1.8125507027264212,1.0,42.0,High,1.0
93,Low,right,30.0,5.347191400944161,1.0,43.0,High,1.0
94,Low,right,30.0,2.255721738444521,1.0,44.0,High,1.0
95,Low,right,30.0,-0.15751803253454577,1.0,45.0,High,1.0
96,Low,right,30.0,3.9633911404992794,1.0,46.0,High,1.0
97,Low,right,30.0,3.962925511337744,1.0,47.0,High,1.0
98,Low,right,30.0,1.8315422289360797,0.0,48.0,High,1.0
99,Low,right,30.0,1.2179719819857089,1.0,49.0,High,1.0
100,High,left,60.0,-0.40242494379666693,0.0,0.0,High,2.0
101,High,left,60.0,2.5714531033720385,0.0,1.0,High,2.0
102,High,right,60.0,4.807515527026963,0.0,2.0,High,2.0
103,High,right,60.0,1.024106836691055,1.0,3.0,High,2.0
104,High,right,60.0,2.1928271281450087,0.0,4.0,High,2.0
105,High,right,60.0,-2.408971359216049,1.0,5.0,High,2.0
106,High,right,60.0,2.2949184399343845,1.0,6.0,High,2.0
107,High,left,60.0,0.27820513187169094,1.0,7.0,High,2.0
108,High,left,60.0,7.494841449205573,1.0,8.0,High,2.0
109,High,left,60.0,0.6860399662717329,0.0,9.0,High,2.0
110,High,left,60.0,1.9282442209858421,1.0,10.0,High,2.0
111,High,left,60.0,2.8514757379534297,1.0,11.0,High,2.0
112,High,left,60.0,3.428848643643141,0.0,12.0,High,2.0
113,High,right,60.0,5.807179125361309,0.0,13.0,High,2.0
114,High,left,60.0,1.5594388355789532,1.0,14.0,High,2.0
115,High,left,60.0,2.699205705484413,1.0,15.0,High,2.0
116,High,left,60.0,4.0883553472135565,0.0,16.0,High,2.0
117,High,right,60.0,4.305733236790957,0.0,17.0,High,2.0
118,High,left,60.0,2.093483977480159,1.0,18.0,High,2.0
119,High,right,60.0,1.41558292633932,0.0,19.0,High,2.0
120,High,right,60.0,2.335291592619302,0.0,20.0,High,2.0
121,High,left,60.0,3.2907989312295505,1.0,21.0,High,2.0
122,High,right,60.0,0.8376322426966145,0.0,22.0,High,2.0
123,High,right,60.0,2.190270081058316,1.0,23.0,High,2.0
124,High,right,60.0,4.058144230883149,1.0,24.0,High,2.0
125,High,left,60.0,1.9713129684498691,0.0,25.0,High,2.0
126,High,left,60.0,0.8995133044370736,1.0,26.0,High,2.0
127,High,left,60.0,8.605616160344841,1.0,27.0,High,2.0
128,High,right,60.0,0.4875553791731171,1.0,28.0,High,2.0
129,High,right,60.0,3.809488563664368,1.0,29.0,High,2.0
130,High,right,60.0,6.014331497711916,1.0,30.0,High,2.0
131,High,left,60.0,5.9364647994716435,1.0,31.0,High,2.0
132,High,left,60.0,0.40658680134472136,0.0,32.0,High,2.0
133,High,left,60.0,1.8002832983438088,0.0,33.0,High,2.0
134,High,left,60.0,2.1579818745756176,1.0,34.0,High,2.0
135,High,left,60.0,3.145067569419119,1.0,35.0,High,2.0
136,High,left,60.0,1.3323185958615589,0.0,36.0,High,2.0
137,High,right,60.0,1.9490699297910408,1.0,37.0,High,2.0
138,High,right,60.0,-0.001590992741645536,0.0,38.0,High,2.0
139,High,left,60.0,0.9555271993613171,1.0,39.0,High,2.0
140,High,left,60.0,-1.1007262832467073,0.0,40.0,High,2.0
141,High,right,60.0,2.6174732257862816,1.0,41.0,High,2.0
142,High,right,60.0,0.37720733491718517,0.0,42.0,High,2.0
143,High,right,60.0,0.31222196679136616,1.0,43.0,High,2.0
144,High,left,60.0,1.3877940058200613,0.0,44.0,High,2.0
145,High,left,60.0,4.35494986462524,0.0,45.0,High,2.0
146,High,right,60.0,4.373890786568322,0.0,46.0,High,2.0
147,High,right,60.0,0.1483595964953206,1.0,47.0,High,2.0
148,High,right,60.0,-0.5157751559303221,0.0,48.0,High,2.0
149,High,right,60.0,2.9205872696979363,0.0,49.0,High,2.0
150,Low,left,60.0,7.0584348495954625,1.0,0.0,High,3.0
151,Low,left,60.0,1.5599246749191602,0.0,1.0,High,3.0
152,Low,left,60.0,3.183361804495201,1.0,2.0,High,3.0
153,Low,right,60.0,2.1206744108320548,0.0,3.0,High,3.0
154,Low,left,60.0,1.9586529507182537,0.0,4.0,High,3.0
155,Low,left,60.0,-2.1578204137380643,0.0,5.0,High,3.0
156,Low,right,60.0,4.63650452213059,1.0,6.0,High,3.0
157,Low,left,60.0,0.7877264666123416,1.0,7.0,High,3.0
158,Low,left,60.0,1.056683126371728,1.0,8.0,High,3.0
159,Low,left,60.0,-1.7192214229892622,1.0,9.0,High,3.0
160,Low,left,60.0,7.088880760461318,0.0,10.0,High,3.0
161,Low,left,60.0,2.1554348340134357,1.0,11.0,High,3.0
162,Low,left,60.0,0.9439064649830307,1.0,12.0,High,3.0
163,Low,right,60.0,0.6646161982853558,1.0,13.0,High,3.0
164,Low,left,60.0,-0.5524251640641573,1.0,14.0,High,3.0
165,Low,left,60.0,1.779142307651703,0.0,15.0,High,3.0
166,Low,left,60.0,0.4917714315159123,1.0,16.0,High,3.0
167,Low,right,60.0,1.7651704220556084,1.0,17.0,High,3.0
168,Low,right,60.0,3.753410852866371,0.0,18.0,High,3.0
169,Low,left,60.0,4.491316788699885,1.0,19.0,High,3.0
170,Low,right,60.0,-0.3672943035909846,0.0,20.0,High,3.0
171,Low,right,60.0,0.0809793550301725,1.0,21.0,High,3.0
172,Low,left,60.0,0.38916693759276866,1.0,22.0,High,3.0
173,Low,left,60.0,3.953043227509978,1.0,23.0,High,3.0
174,Low,left,60.0,1.7949877558774663,1.0,24.0,High,3.0
175,Low,left,60.0,1.827218992604299,1.0,25.0,High,3.0
176,Low,right,60.0,-0.14755081446617302,0.0,26.0,High,3.0
177,Low,left,60.0,2.950563471662962,0.0,27.0,High,3.0
178,Low,right,60.0,0.5483018802331968,0.0,28.0,High,3.0
179,Low,right,60.0,3.0345081542859513,1.0,29.0,High,3.0
180,Low,right,60.0,0.7978984131874491,1.0,30.0,High,3.0
181,Low,right,60.0,-0.6096064460613329,0.0,31.0,High,3.0
182,Low,left,60.0,-2.04020538060224,1.0,32.0,High,3.0
183,Low,right,60.0,-0.14566035394374977,1.0,33.0,High,3.0
184,Low,right,60.0,-0.6356610019353726,0.0,34.0,High,3.0
185,Low,right,60.0,5.103783670655567,1.0,35.0,High,3.0
186,Low,left,60.0,-0.0947640521348716,0.0,36.0,High,3.0
187,Low,right,60.0,3.6996709086871924,0.0,37.0,High,3.0
188,Low,left,60.0,1.023126858007925,0.0,38.0,High,3.0
189,Low,right,60.0,4.2450518294338195,1.0,39.0,High,3.0
190,Low,left,60.0,0.3923194821946361,0.0,40.0,High,3.0
191,Low,left,60.0,1.1178508080411467,1.0,41.0,High,3.0
192,Low,right,60.0,-0.8361187014606004,1.0,42.0,High,3.0
193,Low,left,60.0,1.8625454456970894,0.0,43.0,High,3.0
194,Low,left,60.0,0.9260810517048735,0.0,44.0,High,3.0
195,Low,right,60.0,4.255637522418189,0.0,45.0,High,3.0
196,Low,left,60.0,2.6052205936918944,1.0,46.0,High,3.0
197,Low,left,60.0,0.2898547554770332,0.0,47.0,High,3.0
198,Low,left,60.0,3.0155084758112656,0.0,48.0,High,3.0
199,Low,left,60.0,4.2796873358829215,0.0,49.0,High,3.0
200,High,left,30.0,4.335271701267359,0.0,0.0,Low,4.0
201,High,left,30.0,5.640520989465643,1.0,1.0,Low,4.0
202,High,right,30.0,4.472770235439274,1.0,2.0,Low,4.0
203,High,left,30.0,2.733829927067138,1.0,3.0,Low,4.0
204,High,right,30.0,1.7343802167077398,0.0,4.0,Low,4.0
205,High,left,30.0,1.936760564653174,0.0,5.0,Low,4.0
206,High,right,30.0,2.352582078367729,1.0,6.0,Low,4.0
207,High,left,30.0,4.1642767099473454,0.0,7.0,Low,4.0
208,High,left,30.0,1.5684776392632025,1.0,8.0,Low,4.0
209,High,right,30.0,2.2971923546870228,1.0,9.0,Low,4.0
210,High,right,30.0,4.783165754677659,0.0,10.0,Low,4.0
211,High,right,30.0,-0.07028534342664972,1.0,11.0,Low,4.0
212,High,left,30.0,1.437917067422242,0.0,12.0,Low,4.0
213,High,left,30.0,1.17080945094524,1.0,13.0,Low,4.0
214,High,left,30.0,4.155556139514127,1.0,14.0,Low,4.0
215,High,left,30.0,1.993613209155959,1.0,15.0,Low,4.0
216,High,right,30.0,4.019660852430123,0.0,16.0,Low,4.0
217,High,left,30.0,-1.1855459706649056,1.0,17.0,Low,4.0
218,High,right,30.0,0.9674043241667349,0.0,18.0,Low,4.0
219,High,right,30.0,2.191231903615957,1.0,19.0,Low,4.0
220,High,right,30.0,2.524136120716219,0.0,20.0,Low,4.0
221,High,left,30.0,0.946691183940449,0.0,21.0,Low,4.0
222,High,right,30.0,4.4384938968793035,0.0,22.0,Low,4.0
223,High,right,30.0,3.0398175712640088,0.0,23.0,Low,4.0
224,High,left,30.0,1.5161800754416646,0.0,24.0,Low,4.0
225,High,right,30.0,3.0978971971953526,0.0,25.0,Low,4.0
226,High,left,30.0,1.022319331259985,1.0,26.0,Low,4.0
227,High,right,30.0,1.352820710114443,0.0,27.0,Low,4.0
228,High,right,30.0,3.401667749319973,0.0,28.0,Low,4.0
229,High,left,30.0,1.4495663616430847,1.0,29.0,Low,4.0
230,High,right,30.0,4.6882794211720995,0.0,30.0,Low,4.0
231,High,right,30.0,5.655054688540098,1.0,31.0,Low,4.0
232,High,left,30.0,-1.6665633982463364,0.0,32.0,Low,4.0
233,High,left,30.0,1.3723766999680551,0.0,33.0,Low,4.0
234,High,left,30.0,1.4354571772760931,1.0,34.0,Low,4.0
235,High,right,30.0,4.222826336123123,1.0,35.0,Low,4.0
236,High,right,30.0,0.08686386748530306,0.0,36.0,Low,4.0
237,High,left,30.0,6.437568174708501,0.0,37.0,Low,4.0
238,High,right,30.0,4.565887926681115,1.0,38.0,Low,4.0
239,High,left,30.0,1.3902403361611166,0.0,39.0,Low,4.0
240,High,right,30.0,-2.352119991285978,1.0,40.0,Low,4.0
241,High,right,30.0,1.0599015114316916,1.0,41.0,Low,4.0
242,High,right,30.0,-0.4293696593129437,1.0,42.0,Low,4.0
243,High,right,30.0,-0.47733915732918675,1.0,43.0,Low,4.0
244,High,left,30.0,2.355637938806645,0.0,44.0,Low,4.0
245,High,right,30.0,1.7418575319953589,1.0,45.0,Low,4.0
246,High,left,30.0,5.440437216999081,1.0,46.0,Low,4.0
247,High,left,30.0,5.330340373378616,0.0,47.0,Low,4.0
248,High,right,30.0,3.2167888649477545,0.0,48.0,Low,4.0
249,High,right,30.0,1.7168120981949326,0.0,49.0,Low,4.0
250,Low,right,30.0,-0.7693793317860611,0.0,0.0,Low,5.0
251,Low,right,30.0,0.4531990745970058,1.0,1.0,Low,5.0
252,Low,left,30.0,1.0310608955853224,0.0,2.0,Low,5.0
253,Low,right,30.0,1.441758386216199,1.0,3.0,Low,5.0
254,Low,left,30.0,4.069834691509806,0.0,4.0,Low,5.0
255,Low,left,30.0,4.0828439922188995,1.0,5.0,Low,5.0
256,Low,right,30.0,0.5975754515854124,0.0,6.0,Low,5.0
257,Low,right,30.0,-2.2576692145077635,0.0,7.0,Low,5.0
258,Low,right,30.0,-0.30491151591713117,1.0,8.0,Low,5.0
259,Low,left,30.0,2.128349094197841,0.0,9.0,Low,5.0
260,Low,left,30.0,4.856202937632089,1.0,10.0,Low,5.0
261,Low,left,30.0,3.663913072421387,1.0,11.0,Low,5.0
262,Low,left,30.0,0.005114862382383789,1.0,12.0,Low,5.0
263,Low,left,30.0,1.1131411390665922,1.0,13.0,Low,5.0
264,Low,left,30.0,3.7829535219311947,0.0,14.0,Low,5.0
265,Low,left,30.0,2.2083531000886683,1.0,15.0,Low,5.0
266,Low,right,30.0,2.95484761372549,0.0,16.0,Low,5.0
267,Low,left,30.0,0.7208383160007525,0.0,17.0,Low,5.0
268,Low,left,30.0,0.9067225266988792,1.0,18.0,Low,5.0
269,Low,left,30.0,1.7755601851824905,1.0,19.0,Low,5.0
270,Low,right,30.0,1.4417323478217674,1.0,20.0,Low,5.0
271,Low,left,30.0,1.6237769037316556,0.0,21.0,Low,5.0
272,Low,right,30.0,-0.5754859337014036,1.0,22.0,Low,5.0
273,Low,right,30.0,-0.09662410433963342,0.0,23.0,Low,5.0
274,Low,right,30.0,2.518570314252269,0.0,24.0,Low,5.0
275,Low,right,30.0,3.7109923494824235,0.0,25.0,Low,5.0
276,Low,left,30.0,5.794266213166404,1.0,26.0,Low,5.0
277,Low,left,30.0,0.4549902170828606,1.0,27.0,Low,5.0
278,Low,right,30.0,1.428003647967174,1.0,28.0,Low,5.0
279,Low,left,30.0,1.154176608345825,1.0,29.0,Low,5.0
280,Low,right,30.0,1.7800571702565677,1.0,30.0,Low,5.0
281,Low,right,30.0,-1.5577033401607543,0.0,31.0,Low,5.0
282,Low,right,30.0,-2.719874278451603,1.0,32.0,Low,5.0
283,Low,left,30.0,3.471312899611823,1.0,33.0,Low,5.0
284,Low,right,30.0,-3.5394839981444695,0.0,34.0,Low,5.0
285,Low,right,30.0,3.131777870478767,1.0,35.0,Low,5.0
286,Low,left,30.0,0.7541670027622387,1.0,36.0,Low,5.0
287,Low,right,30.0,0.026250658881489253,0.0,37.0,Low,5.0
288,Low,left,30.0,4.495769243842082,0.0,38.0,Low,5.0
289,Low,right,30.0,-0.14824732956379316,0.0,39.0,Low,5.0
290,Low,right,30.0,1.771441191452913,0.0,40.0,Low,5.0
291,Low,left,30.0,1.2591478292807314,1.0,41.0,Low,5.0
292,Low,right,30.0,2.457296793984646,1.0,42.0,Low,5.0
293,Low,left,30.0,5.1267520536811855,0.0,43.0,Low,5.0
294,Low,right,30.0,5.600974265463066,0.0,44.0,Low,5.0
295,Low,right,30.0,2.540881205131799,0.0,45.0,Low,5.0
296,Low,left,30.0,1.6745751474194686,1.0,46.0,Low,5.0
297,Low,right,30.0,-0.4239163379271953,0.0,47.0,Low,5.0
298,Low,right,30.0,3.5492519575303136,0.0,48.0,Low,5.0
299,Low,left,30.0,0.02974665101788121,0.0,49.0,Low,5.0
300,High,right,60.0,1.0511337996035321,1.0,0.0,Low,6.0
301,High,left,60.0,3.8138572696236195,1.0,1.0,Low,6.0
302,High,right,60.0,2.402371083015094,1.0,2.0,Low,6.0
303,High,left,60.0,0.7877946836232212,0.0,3.0,Low,6.0
304,High,right,60.0,2.5661495837636696,0.0,4.0,Low,6.0
305,High,left,60.0,3.730185773955236,0.0,5.0,Low,6.0
306,High,right,60.0,-2.5877012102998553,0.0,6.0,Low,6.0
307,High,left,60.0,0.14773692321439058,0.0,7.0,Low,6.0
308,High,left,60.0,1.3491710666784829,1.0,8.0,Low,6.0
309,High,left,60.0,-1.5526089165030632,0.0,9.0,Low,6.0
310,High,left,60.0,4.502400939139955,1.0,10.0,Low,6.0
311,High,right,60.0,3.6241583482871453,0.0,11.0,Low,6.0
312,High,left,60.0,-1.2500662089441448,1.0,12.0,Low,6.0
313,High,right,60.0,0.13529249508138586,1.0,13.0,Low,6.0
314,High,left,60.0,2.9565877732291437,1.0,14.0,Low,6.0
315,High,right,60.0,2.6203604054259055,1.0,15.0,Low,6.0
316,High,right,60.0,-0.11882042091935086,0.0,16.0,Low,6.0
317,High,left,60.0,1.8214420692922149,1.0,17.0,Low,6.0
318,High,left,60.0,2.650281951072002,1.0,18.0,Low,6.0
319,High,left,60.0,2.013271278806089,1.0,19.0,Low,6.0
320,High,right,60.0,0.7521615299022231,1.0,20.0,Low,6.0
321,High,left,60.0,-1.4189455870464633,1.0,21.0,Low,6.0
322,High,right,60.0,-1.4346065780266963,1.0,22.0,Low,6.0
323,High,left,60.0,0.9322244278062093,0.0,23.0,Low,6.0
324,High,left,60.0,2.3332892296145133,0.0,24.0,Low,6.0
325,High,left,60.0,4.780897739082185,0.0,25.0,Low,6.0
326,High,right,60.0,1.0074786426471738,1.0,26.0,Low,6.0
327,High,left,60.0,1.7267992696700913,1.0,27.0,Low,6.0
328,High,left,60.0,0.7073620731899666,0.0,28.0,Low,6.0
329,High,left,60.0,-0.9611081090159632,1.0,29.0,Low,6.0
330,High,left,60.0,1.6683930296485205,1.0,30.0,Low,6.0
331,High,right,60.0,3.4266550184447864,1.0,31.0,Low,6.0
332,High,left,60.0,2.6894131191874435,0.0,32.0,Low,6.0
333,High,right,60.0,4.573057337955049,1.0,33.0,Low,6.0
334,High,left,60.0,4.673241990885636,1.0,34.0,Low,6.0
335,High,left,60.0,0.7062437128558849,1.0,35.0,Low,6.0
336,High,right,60.0,3.4171505021349757,0.0,36.0,Low,6.0
337,High,right,60.0,0.36877682972852854,0.0,37.0,Low,6.0
338,High,right,60.0,2.8891331993881275,0.0,38.0,Low,6.0
339,High,left,60.0,-1.8636433069855156,1.0,39.0,Low,6.0
340,High,left,60.0,0.28758192313980113,1.0,40.0,Low,6.0
341,High,right,60.0,3.539391876029071,1.0,41.0,Low,6.0
342,High,left,60.0,4.060642071057924,1.0,42.0,Low,6.0
343,High,right,60.0,2.8536831523207784,0.0,43.0,Low,6.0
344,High,right,60.0,5.186941971472983,1.0,44.0,Low,6.0
345,High,right,60.0,1.2731752632725253,1.0,45.0,Low,6.0
346,High,right,60.0,-0.40809686426188163,1.0,46.0,Low,6.0
347,High,right,60.0,3.4174797789369653,0.0,47.0,Low,6.0
348,High,right,60.0,-0.9153146519326487,1.0,48.0,Low,6.0
349,High,left,60.0,1.2607013872348554,1.0,49.0,Low,6.0
350,Low,left,60.0,-2.6540708777393553,0.0,0.0,Low,7.0
351,Low,left,60.0,6.107670694928975,0.0,1.0,Low,7.0
352,Low,right,60.0,5.980218515437615,0.0,2.0,Low,7.0
353,Low,right,60.0,2.4972416506316506,0.0,3.0,Low,7.0
354,Low,left,60.0,0.9294167896165274,1.0,4.0,Low,7.0
355,Low,left,60.0,4.0305119422591495,1.0,5.0,Low,7.0
356,Low,right,60.0,1.6378395792493727,0.0,6.0,Low,7.0
357,Low,left,60.0,2.805009380931749,0.0,7.0,Low,7.0
358,Low,left,60.0,1.5085737259504493,0.0,8.0,Low,7.0
359,Low,right,60.0,4.408726032802646,1.0,9.0,Low,7.0
360,Low,right,60.0,1.9699701963438379,0.0,10.0,Low,7.0
361,Low,right,60.0,1.0384814547039998,0.0,11.0,Low,7.0
362,Low,right,60.0,2.5739853529581764,0.0,12.0,Low,7.0
363,Low,right,60.0,3.9693330887906937,1.0,13.0,Low,7.0
364,Low,left,60.0,0.5520205601982399,0.0,14.0,Low,7.0
365,Low,right,60.0,3.8418579308481826,0.0,15.0,Low,7.0
366,Low,left,60.0,3.1401835682905297,0.0,16.0,Low,7.0
367,Low,left,60.0,3.4439364179810377,1.0,17.0,Low,7.0
368,Low,right,60.0,0.08318813371210831,1.0,18.0,Low,7.0
369,Low,right,60.0,0.6260023384829123,1.0,19.0,Low,7.0
370,Low,left,60.0,-0.9855911877245558,0.0,20.0,Low,7.0
371,Low,right,60.0,5.32231057280468,1.0,21.0,Low,7.0
372,Low,left,60.0,1.1074989627835694,1.0,22.0,Low,7.0
373,Low,right,60.0,0.6798656254954394,1.0,23.0,Low,7.0
374,Low,right,60.0,1.3251764997126327,0.0,24.0,Low,7.0
375,Low,left,60.0,-0.023614368818012155,0.0,25.0,Low,7.0
376,Low,right,60.0,-2.228254297377933,1.0,26.0,Low,7.0
377,Low,left,60.0,3.0272270310790717,1.0,27.0,Low,7.0
378,Low,right,60.0,3.3686750948264503,0.0,28.0,Low,7.0
379,Low,right,60.0,1.5474688706110626,1.0,29.0,Low,7.0
380,Low,left,60.0,1.9709481414972545,1.0,30.0,Low,7.0
381,Low,right,60.0,3.1418740108231433,0.0,31.0,Low,7.0
382,Low,right,60.0,4.227277715716662,1.0,32.0,Low,7.0
383,Low,left,60.0,1.719839682319465,1.0,33.0,Low,7.0
384,Low,right,60.0,-0.13382561724075703,1.0,34.0,Low,7.0
385,Low,left,60.0,1.716219536386295,1.0,35.0,Low,7.0
386,Low,left,60.0,5.253963236544025,0.0,36.0,Low,7.0
387,Low,left,60.0,0.6815062032937488,1.0,37.0,Low,7.0
388,Low,left,60.0,3.2781325978826423,0.0,38.0,Low,7.0
389,Low,right,60.0,-1.0623822024255318,0.0,39.0,Low,7.0
390,Low,right,60.0,5.744786970106654,0.0,40.0,Low,7.0
391,Low,right,60.0,-1.7406573276295378,1.0,41.0,Low,7.0
392,Low,left,60.0,6.603753197522076,0.0,42.0,Low,7.0
393,Low,left,60.0,0.3332559789162628,0.0,43.0,Low,7.0
394,Low,right,60.0,3.1280453133025556,0.0,44.0,Low,7.0
395,Low,left,60.0,2.526681336727521,0.0,45.0,Low,7.0
396,Low,right,60.0,1.0073410150492026,1.0,46.0,Low,7.0
397,Low,left,60.0,0.27380262057678184,0.0,47.0,Low,7.0
398,Low,right,60.0,4.86082458065656,0.0,48.0,Low,7.0
399,Low,left,60.0,3.956191779883179,1.0,49.0,Low,7.0
400,High,left,90.0,1.886461531795896,1.0,0.0,Low,8.0
401,High,right,90.0,3.0157006670820925,0.0,1.0,Low,8.0
402,High,left,90.0,3.0973283904272515,1.0,2.0,Low,8.0
403,High,right,90.0,0.5424616281879708,1.0,3.0,Low,8.0
404,High,right,90.0,2.2133085478590235,1.0,4.0,Low,8.0
405,High,right,90.0,1.753646006817202,1.0,5.0,Low,8.0
406,High,left,90.0,0.28141350400912124,0.0,6.0,Low,8.0
407,High,right,90.0,1.4525308610762149,0.0,7.0,Low,8.0
408,High,right,90.0,1.9246978940778732,0.0,8.0,Low,8.0
409,High,left,90.0,3.19916848080234,1.0,9.0,Low,8.0
410,High,left,90.0,3.254293453315684,1.0,10.0,Low,8.0
411,High,left,90.0,4.0130674888156594,0.0,11.0,Low,8.0
412,High,left,90.0,2.8297464471583487,1.0,12.0,Low,8.0
413,High,left,90.0,2.90899026519027,1.0,13.0,Low,8.0
414,High,right,90.0,2.9517426228003028,0.0,14.0,Low,8.0
415,High,left,90.0,6.457028477527035,1.0,15.0,Low,8.0
416,High,left,90.0,3.909516543047834,0.0,16.0,Low,8.0
417,High,right,90.0,0.6065600543259633,1.0,17.0,Low,8.0
418,High,left,90.0,1.4444112765380552,1.0,18.0,Low,8.0
419,High,right,90.0,1.5646691914350963,0.0,19.0,Low,8.0
420,High,left,90.0,0.1263660045799604,0.0,20.0,Low,8.0
421,High,right,90.0,3.4125640440768663,0.0,21.0,Low,8.0
422,High,left,90.0,5.567913670908987,1.0,22.0,Low,8.0
423,High,left,90.0,3.597477946249719,0.0,23.0,Low,8.0
424,High,left,90.0,3.076827719366716,1.0,24.0,Low,8.0
425,High,right,90.0,0.5568097648223773,0.0,25.0,Low,8.0
426,High,right,90.0,2.409324689439812,1.0,26.0,Low,8.0
427,High,left,90.0,1.4409267783401567,0.0,27.0,Low,8.0
428,High,left,90.0,2.5878532700556858,0.0,28.0,Low,8.0
429,High,left,90.0,2.732648930924009,1.0,29.0,Low,8.0
430,High,left,90.0,5.496139566143495,0.0,30.0,Low,8.0
431,High,right,90.0,3.275579783549622,1.0,31.0,Low,8.0
432,High,right,90.0,3.7435003334170642,0.0,32.0,Low,8.0
433,High,left,90.0,1.1478755338752562,1.0,33.0,Low,8.0
434,High,right,90.0,2.0776405148820736,0.0,34.0,Low,8.0
435,High,right,90.0,1.803729021860573,0.0,35.0,Low,8.0
436,High,right,90.0,4.730854355447938,0.0,36.0,Low,8.0
437,High,left,90.0,-0.8326740202767127,1.0,37.0,Low,8.0
438,High,right,90.0,-4.157634088598735,1.0,38.0,Low,8.0
439,High,left,90.0,0.6796840323046425,0.0,39.0,Low,8.0
440,High,right,90.0,-1.900948905976735,0.0,40.0,Low,8.0
441,High,right,90.0,5.673602964401745,0.0,41.0,Low,8.0
442,High,right,90.0,0.06047762770434373,1.0,42.0,Low,8.0
443,High,left,90.0,1.0128956164937735,1.0,43.0,Low,8.0
444,High,right,90.0,1.8200354293014418,1.0,44.0,Low,8.0
445,High,right,90.0,0.6332483464597427,0.0,45.0,Low,8.0
446,High,left,90.0,3.776951893810594,1.0,46.0,Low,8.0
447,High,right,90.0,-1.2309556683093734,0.0,47.0,Low,8.0
448,High,right,90.0,0.8288407836094365,0.0,48.0,Low,8.0
449,High,right,90.0,-0.9234855117104139,0.0,49.0,Low,8.0
450,Low,left,90.0,2.2156615224218306,0.0,0.0,Low,9.0
451,Low,left,90.0,3.0802997157599847,0.0,1.0,Low,9.0
452,Low,left,90.0,3.260284657110268,1.0,2.0,Low,9.0
453,Low,left,90.0,2.3421945310072356,1.0,3.0,Low,9.0
454,Low,left,90.0,1.4412668612315964,1.0,4.0,Low,9.0
455,Low,right,90.0,-0.25159192467006,1.0,5.0,Low,9.0
456,Low,left,90.0,1.1178163222350257,0.0,6.0,Low,9.0
457,Low,left,90.0,2.8500461914407067,1.0,7.0,Low,9.0
458,Low,right,90.0,-0.36553379158676025,1.0,8.0,Low,9.0
459,Low,right,90.0,-3.3786229574821434,0.0,9.0,Low,9.0
460,Low,left,90.0,3.5098186995274054,1.0,10.0,Low,9.0
461,Low,right,90.0,-0.19047451030799456,0.0,11.0,Low,9.0
462,Low,left,90.0,1.7437008178690028,1.0,12.0,Low,9.0
463,Low,right,90.0,3.62666681692734,0.0,13.0,Low,9.0
464,Low,right,90.0,1.7505016514930882,0.0,14.0,Low,9.0
465,Low,left,90.0,0.9194480539753829,1.0,15.0,Low,9.0
466,Low,right,90.0,-1.4552841350112087,1.0,16.0,Low,9.0
467,Low,left,90.0,1.7509036000297051,1.0,17.0,Low,9.0
468,Low,right,90.0,-1.9511441880091396,1.0,18.0,Low,9.0
469,Low,left,90.0,3.034095813644079,1.0,19.0,Low,9.0
470,Low,right,90.0,0.10097637478229649,1.0,20.0,Low,9.0
471,Low,right,90.0,2.407916253354921,0.0,21.0,Low,9.0
472,Low,left,90.0,0.48680088906230523,0.0,22.0,Low,9.0
473,Low,left,90.0,2.2427793226111796,0.0,23.0,Low,9.0
474,Low,right,90.0,4.752814118548908,1.0,24.0,Low,9.0
475,Low,right,90.0,4.035899441287591,1.0,25.0,Low,9.0
476,Low,right,90.0,1.4697550607247791,1.0,26.0,Low,9.0
477,Low,right,90.0,1.3033922297898868,0.0,27.0,Low,9.0
478,Low,left,90.0,2.169650249162564,1.0,28.0,Low,9.0
479,Low,right,90.0,2.596187992938075,1.0,29.0,Low,9.0
480,Low,right,90.0,3.8642110075907232,0.0,30.0,Low,9.0
481,Low,left,90.0,2.6398911217753382,1.0,31.0,Low,9.0
482,Low,right,90.0,3.7526452628411384,0.0,32.0,Low,9.0
483,Low,right,90.0,-0.5684403061138306,0.0,33.0,Low,9.0
484,Low,right,90.0,4.217623543778579,1.0,34.0,Low,9.0
485,Low,left,90.0,-0.5239378915089392,0.0,35.0,Low,9.0
486,Low,right,90.0,3.8796091409824847,0.0,36.0,Low,9.0
487,Low,left,90.0,1.7718447791405532,0.0,37.0,Low,9.0
488,Low,left,90.0,2.3414910665955926,0.0,38.0,Low,9.0
489,Low,left,90.0,0.5276415458988191,0.0,39.0,Low,9.0
490,Low,right,90.0,3.735717533404723,1.0,40.0,Low,9.0
491,Low,right,90.0,1.6107522584951268,0.0,41.0,Low,9.0
492,Low,right,90.0,-0.4786003397377516,1.0,42.0,Low,9.0
493,Low,right,90.0,2.2589399554206904,0.0,43.0,Low,9.0
494,Low,right,90.0,2.0264258831328426,0.0,44.0,Low,9.0
495,Low,right,90.0,2.3205911853826833,1.0,45.0,Low,9.0
496,Low,right,90.0,-1.1474853289082185,0.0,46.0,Low,9.0
497,Low,left,90.0,2.141934162208102,0.0,47.0,Low,9.0
498,Low,right,90.0,-0.29230308057096144,0.0,48.0,Low,9.0
499,Low,left,90.0,2.548567330562822,1.0,49.0,Low,9.0
500,High,right,90.0,2.6923405584081133,1.0,0.0,High,10.0
501,High,left,90.0,0.06966491405824349,1.0,1.0,High,10.0
502,High,right,90.0,3.8251250802121155,1.0,2.0,High,10.0
503,High,right,90.0,-1.396562749342507,1.0,3.0,High,10.0
504,High,right,90.0,1.4245086843895238,1.0,4.0,High,10.0
505,High,right,90.0,-2.4540787080737316,0.0,5.0,High,10.0
506,High,right,90.0,0.6883934514490948,0.0,6.0,High,10.0
507,High,right,90.0,-0.02509580819784074,1.0,7.0,High,10.0
508,High,left,90.0,3.82449151749742,0.0,8.0,High,10.0
509,High,left,90.0,-1.8846323350365757,0.0,9.0,High,10.0
510,High,right,90.0,1.3733597324994715,0.0,10.0,High,10.0
511,High,right,90.0,2.3593353267707555,0.0,11.0,High,10.0
512,High,right,90.0,-2.083750815676969,1.0,12.0,High,10.0
513,High,left,90.0,-1.3182854565137645,1.0,13.0,High,10.0
514,High,right,90.0,-1.303052190375851,1.0,14.0,High,10.0
515,High,left,90.0,4.051576857568686,0.0,15.0,High,10.0
516,High,right,90.0,2.3026572321450525,1.0,16.0,High,10.0
517,High,right,90.0,2.384280140420021,0.0,17.0,High,10.0
518,High,left,90.0,2.5771694333267154,1.0,18.0,High,10.0
519,High,right,90.0,5.071163489166203,0.0,19.0,High,10.0
520,High,left,90.0,3.4666125964579404,1.0,20.0,High,10.0
521,High,left,90.0,3.67273298684521,0.0,21.0,High,10.0
522,High,right,90.0,0.1444761739471916,1.0,22.0,High,10.0
523,High,left,90.0,2.481158513006303,0.0,23.0,High,10.0
524,High,left,90.0,-0.41525686036826914,1.0,24.0,High,10.0
525,High,right,90.0,1.143574483398557,0.0,25.0,High,10.0
526,High,left,90.0,3.470109606082764,0.0,26.0,High,10.0
527,High,left,90.0,2.6899860558191033,0.0,27.0,High,10.0
528,High,right,90.0,5.178817972233878,0.0,28.0,High,10.0
529,High,right,90.0,5.923231205957901,0.0,29.0,High,10.0
530,High,left,90.0,-0.7488981290600627,1.0,30.0,High,10.0
531,High,right,90.0,0.1431590999127288,0.0,31.0,High,10.0
532,High,left,90.0,4.855725587100373,0.0,32.0,High,10.0
533,High,right,90.0,1.1224281250089496,0.0,33.0,High,10.0
534,High,right,90.0,4.700293916429256,0.0,34.0,High,10.0
535,High,right,90.0,-1.5445255187741143,0.0,35.0,High,10.0
536,High,right,90.0,-0.472415421222262,1.0,36.0,High,10.0
537,High,right,90.0,1.3450189709456275,0.0,37.0,High,10.0
538,High,right,90.0,3.982433282197301,0.0,38.0,High,10.0
539,High,right,90.0,3.7898732892165556,0.0,39.0,High,10.0
540,High,right,90.0,1.2567774071242197,0.0,40.0,High,10.0
541,High,right,90.0,5.857489668992751,1.0,41.0,High,10.0
542,High,left,90.0,3.9628540075415666,0.0,42.0,High,10.0
543,High,left,90.0,0.6399984592768073,1.0,43.0,High,10.0
544,High,left,90.0,2.0373016762653986,0.0,44.0,High,10.0
545,High,right,90.0,1.967763810578996,1.0,45.0,High,10.0
546,High,right,90.0,5.687409938009298,0.0,46.0,High,10.0
547,High,right,90.0,0.9944182509029018,1.0,47.0,High,10.0
548,High,right,90.0,1.5281507139937833,0.0,48.0,High,10.0
549,High,right,90.0,3.937508696049358,1.0,49.0,High,10.0
550,Low,right,90.0,0.30684175083455156,1.0,0.0,High,11.0
551,Low,left,90.0,1.5263638646115838,1.0,1.0,High,11.0
552,Low,right,90.0,0.4257464320119533,0.0,2.0,High,11.0
553,Low,left,90.0,0.42836033372964266,1.0,3.0,High,11.0
554,Low,left,90.0,2.3432633872312736,0.0,4.0,High,11.0
555,Low,right,90.0,3.701211650427026,0.0,5.0,High,11.0
556,Low,right,90.0,-0.04879741747769306,0.0,6.0,High,11.0
557,Low,left,90.0,-1.9345146037506589,1.0,7.0,High,11.0
558,Low,left,90.0,-0.09257383196808133,1.0,8.0,High,11.0
559,Low,left,90.0,-0.1767754942136066,0.0,9.0,High,11.0
560,Low,right,90.0,4.102130145610276,0.0,10.0,High,11.0
561,Low,right,90.0,3.417535084398501,1.0,11.0,High,11.0
562,Low,right,90.0,1.1981579528467288,1.0,12.0,High,11.0
563,Low,right,90.0,0.015179881853814692,0.0,13.0,High,11.0
564,Low,right,90.0,2.6367679796174306,0.0,14.0,High,11.0
565,Low,left,90.0,0.07937469233273253,1.0,15.0,High,11.0
566,Low,left,90.0,2.3170426677883516,0.0,16.0,High,11.0
567,Low,left,90.0,1.7725752107534753,1.0,17.0,High,11.0
568,Low,left,90.0,3.8958486079686,1.0,18.0,High,11.0
569,Low,left,90.0,0.3806701742825531,0.0,19.0,High,11.0
570,Low,right,90.0,-0.5063284285821075,1.0,20.0,High,11.0
571,Low,left,90.0,4.079047217664544,0.0,21.0,High,11.0
572,Low,right,90.0,2.8585657770439106,0.0,22.0,High,11.0
573,Low,right,90.0,-2.032281532856887,1.0,23.0,High,11.0
574,Low,right,90.0,2.9338065992595928,0.0,24.0,High,11.0
575,Low,right,90.0,2.83223136107883,0.0,25.0,High,11.0
576,Low,right,90.0,3.157118601000578,0.0,26.0,High,11.0
577,Low,left,90.0,-1.4771477274352165,0.0,27.0,High,11.0
578,Low,right,90.0,1.5883681806854182,1.0,28.0,High,11.0
579,Low,left,90.0,-1.0630418216052293,1.0,29.0,High,11.0
580,Low,right,90.0,-0.6225219637911006,0.0,30.0,High,11.0
581,Low,left,90.0,-2.7271274193210555,1.0,31.0,High,11.0
582,Low,right,90.0,3.4889021140191203,0.0,32.0,High,11.0
583,Low,right,90.0,1.6897295542683066,0.0,33.0,High,11.0
584,Low,right,90.0,4.115818525571745,1.0,34.0,High,11.0
585,Low,right,90.0,-2.0822391669039293,1.0,35.0,High,11.0
586,Low,right,90.0,2.5121846995748194,0.0,36.0,High,11.0
587,Low,right,90.0,-0.2057988318119497,1.0,37.0,High,11.0
588,Low,right,90.0,0.45396179387625213,0.0,38.0,High,11.0
589,Low,left,90.0,1.0206014039624824,1.0,39.0,High,11.0
590,Low,left,90.0,-0.2732804585814681,1.0,40.0,High,11.0
591,Low,left,90.0,2.37265607937955,0.0,41.0,High,11.0
592,Low,left,90.0,1.4888126827913122,1.0,42.0,High,11.0
593,Low,right,90.0,-0.7633991552483197,1.0,43.0,High,11.0
594,Low,right,90.0,2.571063090884329,1.0,44.0,High,11.0
595,Low,left,90.0,3.541038701087191,1.0,45.0,High,11.0
596,Low,right,90.0,0.6306218362974592,1.0,46.0,High,11.0
597,Low,right,90.0,0.559682241778548,0.0,47.0,High,11.0
598,Low,right,90.0,3.5111525749396377,1.0,48.0,High,11.0
599,Low,right,90.0,0.4683703699014383,0.0,49.0,High,11.0
