,Arousal,KeyPressed,LearningTime,RT,Response,TrialNumber,Valence,nBlock
0,High,left,30.0,4.460458340305587,0.0,0.0,Low,0.0
1,High,left,30.0,4.052768314581595,0.0,1.0,Low,0.0
2,High,right,30.0,4.974272984903842,1.0,2.0,Low,0.0
3,High,right,30.0,3.8678992894292485,1.0,3.0,Low,0.0
4,High,left,30.0,3.5492334340002185,0.0,4.0,Low,0.0
5,High,left,30.0,1.9020558674916432,1.0,5.0,Low,0.0
6,High,right,30.0,0.1536416256766837,1.0,6.0,Low,0.0
7,High,left,30.0,-0.14524054497935213,1.0,7.0,Low,0.0
8,High,right,30.0,-0.21843355118405516,1.0,8.0,Low,0.0
9,High,left,30.0,1.6166954653102434,0.0,9.0,Low,0.0
10,High,right,30.0,1.119607911445004,0.0,10.0,Low,0.0
11,High,right,30.0,3.6297864452648545,1.0,11.0,Low,0.0
12,High,left,30.0,1.4059510991237407,0.0,12.0,Low,0.0
13,High,left,30.0,3.4924697328217937,0.0,13.0,Low,0.0
14,High,left,30.0,1.2880158067920537,0.0,14.0,Low,0.0
15,High,left,30.0,-1.614013124821298,1.0,15.0,Low,0.0
16,High,left,30.0,3.2951220028275747,0.0,16.0,Low,0.0
17,High,right,30.0,2.742041012335987,0.0,17.0,Low,0.0
18,High,right,30.0,4.905912683057801,0.0,18.0,Low,0.0
19,High,left,30.0,3.1728416335517373,1.0,19.0,Low,0.0
20,High,right,30.0,3.675648934034628,1.0,20.0,Low,0.0
21,High,left,30.0,2.990498089958881,0.0,21.0,Low,0.0
22,High,left,30.0,3.9538172953180535,1.0,22.0,Low,0.0
23,High,left,30.0,1.2283781027849572,0.0,23.0,Low,0.0
24,High,left,30.0,0.7033800212747303,0.0,24.0,Low,0.0
25,High,left,30.0,2.402554604066017,0.0,25.0,Low,0.0
26,High,right,30.0,0.7348307844818518,1.0,26.0,Low,0.0
27,High,right,30.0,2.7675881680341488,0.0,27.0,Low,0.0
28,High,right,30.0,1.3883168967671375,0.0,28.0,Low,0.0
29,High,left,30.0,2.3104481579704914,1.0,29.0,Low,0.0
30,High,left,30.0,0.021296998449128912,1.0,30.0,Low,0.0
31,High,left,30.0,2.9122365584775514,1.0,31.0,Low,0.0
32,High,left,30.0,3.629621465221125,1.0,32.0,Low,0.0
33,High,right,30.0,5.37274772057874,0.0,33.0,Low,0.0
34,High,right,30.0,4.843746194987544,1.0,34.0,Low,0.0
35,High,right,30.0,0.3709888073379374,1.0,35.0,Low,0.0
36,High,right,30.0,0.6850443822451033,0.0,36.0,Low,0.0
37,High,right,30.0,1.6261004875381786,0.0,37.0,Low,0.0
38,High,right,30.0,-0.09438762299944403,1.0,38.0,Low,0.0
39,High,left,30.0,0.5286429150435111,1.0,39.0,Low,0.0
40,High,right,30.0,1.8084421496199672,1.0,40.0,Low,0.0
41,High,right,30.0,3.9686561028522,0.0,41.0,Low,0.0
42,High,left,30.0,4.391038300166274,0.0,42.0,Low,0.0
43,High,left,30.0,2.052994863632641,0.0,43.0,Low,0.0
44,High,left,30.0,0.931153555999974,0.0,44.0,Low,0.0
45,High,left,30.0,1.571348221130915,0.0,45.0,Low,0.0
46,High,right,30.0,1.0485402929246184,1.0,46.0,Low,0.0
47,High,right,30.0,2.3993108300358754,1.0,47.0,Low,0.0
48,High,left,30.0,2.4114771905632204,1.0,48.0,Low,0.0
49,High,left,30.0,3.1812006701054645,0.0,49.0,Low,0.0
50,Low,left,30.0,3.3639999012473343,1.0,0.0,High,1.0
51,Low,right,30.0,-0.44108574161488834,1.0,1.0,High,1.0
52,Low,left,30.0,-0.2683077619041121,0.0,2.0,High,1.0
53,Low,left,30.0,1.8180473629417335,1.0,3.0,High,1.0
54,Low,right,30.0,4.130398524598741,1.0,4.0,High,1.0
55,Low,right,30.0,1.8689412141849164,0.0,5.0,High,1.0
56,Low,right,30.0,-0.11889444969805285,0.0,6.0,High,1.0
57,Low,right,30.0,0.7936648741123578,1.0,7.0,High,1.0
58,Low,right,30.0,3.988937332397615,0.0,8.0,High,1.0
59,Low,right,30.0,1.4675069328967771,0.0,9.0,High,1.0
60,Low,right,30.0,3.244600251152402,1.0,10.0,High,1.0
61,Low,left,30.0,5.9426808155197,1.0,11.0,High,1.0
62,Low,right,30.0,5.507651730638507,1.0,12.0,High,1.0
63,Low,right,30.0,3.906498231380411,1.0,13.0,High,1.0
64,Low,right,30.0,-0.05022039417706492,0.0,14.0,High,1.0
65,Low,left,30.0,0.6268270478762181,0.0,15.0,High,1.0
66,Low,right,30.0,-0.12955507758253915,1.0,16.0,High,1.0
67,Low,left,30.0,5.758526003510733,0.0,17.0,High,1.0
68,Low,right,30.0,-0.7215334213995326,1.0,18.0,High,1.0
69,Low,right,30.0,3.5432316830785657,1.0,19.0,High,1.0
70,Low,left,30.0,0.49348292463870025,0.0,20.0,High,1.0
71,Low,right,30.0,4.303486805282283,0.0,21.0,High,1.0
72,Low,right,30.0,-0.26299519375010316,0.0,22.0,High,1.0
73,Low,left,30.0,1.2628939151722083,1.0,23.0,High,1.0
74,Low,left,30.0,0.026619378593724097,0.0,24.0,High,1.0
75,Low,left,30.0,2.152051933704046,0.0,25.0,High,1.0
76,Low,right,30.0,2.2184686142708916,1.0,26.0,High,1.0
77,Low,right,30.0,2.031559330049006,1.0,27.0,High,1.0
78,Low,left,30.0,0.02057408145973194,0.0,28.0,High,1.0
79,Low,left,30.0,6.797593555655258,1.0,29.0,High,1.0
80,Low,right,30.0,2.851664652597736,0.0,30.0,High,1.0
81,Low,left,30.0,2.7130044477243906,1.0,31.0,High,1.0
82,Low,right,30.0,1.385296266822901,0.0,32.0,High,1.0
83,Low,left,30.0,2.1577133584760917,0.0,33.0,High,1.0
84,Low,right,30.0,1.0291474270838485,1.0,34.0,High,1.0
85,Low,right,30.0,4.095452636092204,1.0,35.0,High,1.0
86,Low,left,30.0,1.7166349230322466,0.0,36.0,High,1.0
87,Low,right,30.0,3.7242060550840037,0.0,37.0,High,1.0
88,Low,right,30.0,-1.068366423739005,1.0,38.0,High,1.0
89,Low,right,30.0,0.04887840504227148,1.0,39.0,High,1.0
90,Low,left,30.0,2.745295637956481,0.0,40.0,High,1.0
91,Low,right,30.0,-2.0426317599134753,0.0,41.0,High,1.0
92,Low,right,30.0,3.9246740352597183,1.0,42.0,High,1.0
93,Low,left,30.0,2.5033532596903916,1.0,43.0,High,1.0
94,Low,right,30.0,2.206297555259572,0.0,44.0,High,1.0
95,Low,left,30.0,2.6073681952445504,0.0,45.0,High,1.0
96,Low,right,30.0,3.626295567073212,1.0,46.0,High,1.0
97,Low,right,30.0,6.508214806438195,0.0,47.0,High,1.0
98,Low,left,30.0,2.7758939154309847,1.0,48.0,High,1.0
99,Low,right,30.0,-0.3915845479737703,1.0,49.0,High,1.0
100,High,left,60.0,3.0441992808044787,1.0,0.0,Low,2.0
101,High,left,60.0,3.6781270608626,1.0,1.0,Low,2.0
102,High,right,60.0,2.371765005904949,1.0,2.0,Low,2.0
103,High,right,60.0,5.162305109734697,0.0,3.0,Low,2.0
104,High,right,60.0,2.4269925191827695,0.0,4.0,Low,2.0
105,High,right,60.0,1.8988510386150481,0.0,5.0,Low,2.0
106,High,left,60.0,5.547936470961627,0.0,6.0,Low,2.0
107,High,right,60.0,2.2933012611473416,1.0,7.0,Low,2.0
108,High,left,60.0,3.2107531217773966,1.0,8.0,Low,2.0
109,High,right,60.0,0.7661881308461036,0.0,9.0,Low,2.0
110,High,right,60.0,-0.32364459211612906,0.0,10.0,Low,2.0
111,High,left,60.0,0.7807207145849553,1.0,11.0,Low,2.0
112,High,left,60.0,-1.3939396268646738,0.0,12.0,Low,2.0
113,High,right,60.0,6.864652594293645,0.0,13.0,Low,2.0
114,High,left,60.0,3.954716518934579,1.0,14.0,Low,2.0
115,High,right,60.0,3.0595899879644586,1.0,15.0,Low,2.0
116,High,right,60.0,1.5032876585239254,1.0,16.0,Low,2.0
117,High,left,60.0,2.586899077805186,0.0,17.0,Low,2.0
118,High,left,60.0,-1.1886427937797117,1.0,18.0,Low,2.0
119,High,right,60.0,6.368230597235601,0.0,19.0,Low,2.0
120,High,left,60.0,-3.213773553292676,0.0,20.0,Low,2.0
121,High,left,60.0,4.056933161150558,1.0,21.0,Low,2.0
122,High,left,60.0,-2.1803706653523154,0.0,22.0,Low,2.0
123,High,left,60.0,-0.6155871267440727,0.0,23.0,Low,2.0
124,High,left,60.0,0.3294289800858854,0.0,24.0,Low,2.0
125,High,left,60.0,1.6094571013046906,1.0,25.0,Low,2.0
126,High,right,60.0,-0.5355545881091603,1.0,26.0,Low,2.0
127,High,left,60.0,-1.5485529707752899,1.0,27.0,Low,2.0
128,High,right,60.0,1.5900807074963623,0.0,28.0,Low,2.0
129,High,left,60.0,1.4893032598001281,0.0,29.0,Low,2.0
130,High,right,60.0,1.3186185813327447,0.0,30.0,Low,2.0
131,High,left,60.0,-0.1303567587115022,0.0,31.0,Low,2.0
132,High,right,60.0,0.8535448819888259,0.0,32.0,Low,2.0
133,High,right,60.0,0.8080096304167106,1.0,33.0,Low,2.0
134,High,left,60.0,1.7818399743397162,0.0,34.0,Low,2.0
135,High,left,60.0,4.929492755243221,0.0,35.0,Low,2.0
136,High,left,60.0,1.6721397476080748,0.0,36.0,Low,2.0
137,High,left,60.0,3.084185037393159,1.0,37.0,Low,2.0
138,High,right,60.0,1.1755934854231258,1.0,38.0,Low,2.0
139,High,right,60.0,4.339039044067517,1.0,39.0,Low,2.0
140,High,right,60.0,1.5219578072150974,0.0,40.0,Low,2.0
141,High,right,60.0,4.459506253570965,0.0,41.0,Low,2.0
142,High,right,60.0,-0.5274857834966236,0.0,42.0,Low,2.0
143,High,right,60.0,3.578784956728339,1.0,43.0,Low,2.0
144,High,right,60.0,1.7333370293980295,1.0,44.0,Low,2.0
145,High,right,60.0,-0.7773296913982128,1.0,45.0,Low,2.0
146,High,right,60.0,3.648893551656751,0.0,46.0,Low,2.0
147,High,right,60.0,3.044417928917803,0.0,47.0,Low,2.0
148,High,right,60.0,-0.7704994498091264,1.0,48.0,Low,2.0
149,High,right,60.0,1.2763052899179586,1.0,49.0,Low,2.0
150,Low,left,60.0,6.613018788577177,1.0,0.0,High,3.0
151,Low,right,60.0,0.8552946584295542,1.0,1.0,High,3.0
152,Low,right,60.0,2.9773337225120526,0.0,2.0,High,3.0
153,Low,right,60.0,3.023886499239386,0.0,3.0,High,3.0
154,Low,right,60.0,-0.5013941650065927,1.0,4.0,High,3.0
155,Low,right,60.0,4.219777898508583,1.0,5.0,High,3.0
156,Low,left,60.0,2.0213182092311763,0.0,6.0,High,3.0
157,Low,right,60.0,2.833107480941825,1.0,7.0,High,3.0
158,Low,right,60.0,-1.4761070797479214,1.0,8.0,High,3.0
159,Low,left,60.0,-2.802945806441053,1.0,9.0,High,3.0
160,Low,right,60.0,0.9131197398601146,1.0,10.0,High,3.0
161,Low,right,60.0,1.1887088068874425,0.0,11.0,High,3.0
162,Low,right,60.0,6.195397471272118,0.0,12.0,High,3.0
163,Low,left,60.0,0.036552303765524874,1.0,13.0,High,3.0
164,Low,right,60.0,3.2064420919110805,0.0,14.0,High,3.0
165,Low,left,60.0,1.171518698266274,1.0,15.0,High,3.0
166,Low,right,60.0,1.9474360196151959,1.0,16.0,High,3.0
167,Low,left,60.0,2.626685828772121,0.0,17.0,High,3.0
168,Low,right,60.0,0.4535301837243564,0.0,18.0,High,3.0
169,Low,right,60.0,2.0122191530610047,0.0,19.0,High,3.0
170,Low,right,60.0,4.7278175094832395,0.0,20.0,High,3.0
171,Low,right,60.0,2.877310391538598,0.0,21.0,High,3.0
172,Low,right,60.0,2.1064910575260627,1.0,22.0,High,3.0
173,Low,right,60.0,1.3818846710472985,1.0,23.0,High,3.0
174,Low,right,60.0,2.2932501668705747,1.0,24.0,High,3.0
175,Low,left,60.0,1.350038517470349,0.0,25.0,High,3.0
176,Low,left,60.0,2.2416932804688474,1.0,26.0,High,3.0
177,Low,right,60.0,5.7148705732085645,0.0,27.0,High,3.0
178,Low,right,60.0,0.07883733344695365,0.0,28.0,High,3.0
179,Low,left,60.0,-1.1739040267166228,0.0,29.0,High,3.0
180,Low,right,60.0,0.45627504172645683,1.0,30.0,High,3.0
181,Low,left,60.0,5.172966646574615,0.0,31.0,High,3.0
182,Low,left,60.0,1.1064952841383764,1.0,32.0,High,3.0
183,Low,right,60.0,0.7581485899618825,1.0,33.0,High,3.0
184,Low,left,60.0,-1.8331069124612842,0.0,34.0,High,3.0
185,Low,left,60.0,2.2209477315872155,1.0,35.0,High,3.0
186,Low,left,60.0,1.51648132233747,0.0,36.0,High,3.0
187,Low,right,60.0,2.5632365091987146,0.0,37.0,High,3.0
188,Low,right,60.0,3.1964640347847793,1.0,38.0,High,3.0
189,Low,right,60.0,3.074191933953097,0.0,39.0,High,3.0
190,Low,left,60.0,5.305759086499723,0.0,40.0,High,3.0
191,Low,left,60.0,0.5381114862407137,0.0,41.0,High,3.0
192,Low,left,60.0,2.806226963715467,1.0,42.0,High,3.0
193,Low,left,60.0,-0.675533008392327,0.0,43.0,High,3.0
194,Low,left,60.0,2.022921784266887,0.0,44.0,High,3.0
195,Low,right,60.0,6.549259605852049,0.0,45.0,High,3.0
196,Low,left,60.0,3.666233740040915,1.0,46.0,High,3.0
197,Low,right,60.0,1.5083515585519172,0.0,47.0,High,3.0
198,Low,right,60.0,4.573720692930935,0.0,48.0,High,3.0
199,Low,left,60.0,2.120201096623745,1.0,49.0,High,3.0
200,High,left,90.0,1.815814917110777,0.0,0.0,Low,4.0
201,High,right,90.0,1.5173013012446586,1.0,1.0,Low,4.0
202,High,right,90.0,5.777272232649079,0.0,2.0,Low,4.0
203,High,right,90.0,-2.6203244497205422,0.0,3.0,Low,4.0
204,High,right,90.0,-0.1218395407483791,0.0,4.0,Low,4.0
205,High,left,90.0,-0.03638562692312863,1.0,5.0,Low,4.0
206,High,left,90.0,2.631594745552608,1.0,6.0,Low,4.0
207,High,right,90.0,1.7160739360205806,1.0,7.0,Low,4.0
208,High,left,90.0,1.997787993835202,0.0,8.0,Low,4.0
209,High,left,90.0,2.622396452400558,0.0,9.0,Low,4.0
210,High,left,90.0,-0.2592249647471583,1.0,10.0,Low,4.0
211,High,left,90.0,2.880284676039464,0.0,11.0,Low,4.0
212,High,left,90.0,-1.0815274264988344,1.0,12.0,Low,4.0
213,High,right,90.0,-1.5607862779038206,0.0,13.0,Low,4.0
214,High,left,90.0,1.0388659860521379,0.0,14.0,Low,4.0
215,High,right,90.0,3.0432123424297783,0.0,15.0,Low,4.0
216,High,left,90.0,3.432297194348199,1.0,16.0,Low,4.0
217,High,right,90.0,2.815364752512579,0.0,17.0,Low,4.0
218,High,right,90.0,3.633942489146216,1.0,18.0,Low,4.0
219,High,left,90.0,3.132286211560103,0.0,19.0,Low,4.0
220,High,right,90.0,1.4351028019419,0.0,20.0,Low,4.0
221,High,left,90.0,3.6774590495986574,1.0,21.0,Low,4.0
222,High,right,90.0,2.1456665967760022,0.0,22.0,Low,4.0
223,High,right,90.0,2.0145455843885713,0.0,23.0,Low,4.0
224,High,right,90.0,2.18163933900708,0.0,24.0,Low,4.0
225,High,right,90.0,3.0347016748988893,1.0,25.0,Low,4.0
226,High,right,90.0,2.33972237481859,0.0,26.0,Low,4.0
227,High,left,90.0,3.430757181656101,1.0,27.0,Low,4.0
228,High,left,90.0,1.695057353956167,1.0,28.0,Low,4.0
229,High,left,90.0,1.7567839915698262,1.0,29.0,Low,4.0
230,High,left,90.0,-1.8872619448504107,1.0,30.0,Low,4.0
231,High,right,90.0,0.046437871690188315,0.0,31.0,Low,4.0
232,High,left,90.0,0.7936773712067853,1.0,32.0,Low,4.0
233,High,right,90.0,0.6949385151781104,1.0,33.0,Low,4.0
234,High,right,90.0,1.0829550915839405,1.0,34.0,Low,4.0
235,High,right,90.0,3.3489473963522256,0.0,35.0,Low,4.0
236,High,left,90.0,-1.5876224753984691,0.0,36.0,Low,4.0
237,High,left,90.0,4.666443852937956,1.0,37.0,Low,4.0
238,High,left,90.0,3.2100731398670836,0.0,38.0,Low,4.0
239,High,right,90.0,2.654135769032913,0.0,39.0,Low,4.0
240,High,right,90.0,1.962755832975108,1.0,40.0,Low,4.0
241,High,right,90.0,0.2442104385263255,0.0,41.0,Low,4.0
242,High,right,90.0,0.52406903785322,1.0,42.0,Low,4.0
243,High,left,90.0,3.7424793680505184,0.0,43.0,Low,4.0
244,High,right,90.0,3.4865099668349324,1.0,44.0,Low,4.0
245,High,right,90.0,5.9887412338038395,1.0,45.0,Low,4.0
246,High,right,90.0,-0.3198662057253605,1.0,46.0,Low,4.0
247,High,right,90.0,-0.13767334341689885,1.0,47.0,Low,4.0
248,High,left,90.0,1.4556211706344735,0.0,48.0,Low,4.0
249,High,right,90.0,-0.029783205435907734,1.0,49.0,Low,4.0
250,Low,right,90.0,-0.02244146924755297,0.0,0.0,High,5.0
251,Low,right,90.0,4.106625101606111,1.0,1.0,High,5.0
252,Low,right,90.0,0.5978425113844297,0.0,2.0,High,5.0
253,Low,right,90.0,0.31834416605462224,0.0,3.0,High,5.0
254,Low,right,90.0,0.9041046302135265,0.0,4.0,High,5.0
255,Low,left,90.0,5.872729615548841,0.0,5.0,High,5.0
256,Low,left,90.0,2.336334295523325,0.0,6.0,High,5.0
257,Low,right,90.0,2.643041435146655,0.0,7.0,High,5.0
258,Low,left,90.0,-1.0788982378895229,0.0,8.0,High,5.0
259,Low,right,90.0,5.160883381390161,0.0,9.0,High,5.0
260,Low,left,90.0,1.3351326338974265,0.0,10.0,High,5.0
261,Low,right,90.0,2.669404221819451,1.0,11.0,High,5.0
262,Low,left,90.0,2.9871737590670744,1.0,12.0,High,5.0
263,Low,left,90.0,4.354088988041665,1.0,13.0,High,5.0
264,Low,left,90.0,0.7336334033107226,0.0,14.0,High,5.0
265,Low,left,90.0,2.782183372666138,1.0,15.0,High,5.0
266,Low,left,90.0,0.2757516234015216,0.0,16.0,High,5.0
267,Low,right,90.0,7.449829320539708,1.0,17.0,High,5.0
268,Low,left,90.0,2.439167514842796,0.0,18.0,High,5.0
269,Low,left,90.0,5.545667596170394,0.0,19.0,High,5.0
270,Low,right,90.0,-1.2718154281625556,1.0,20.0,High,5.0
271,Low,left,90.0,-0.46193213470007355,0.0,21.0,High,5.0
272,Low,right,90.0,-0.2741473761788842,0.0,22.0,High,5.0
273,Low,right,90.0,-0.3132687180052085,1.0,23.0,High,5.0
274,Low,right,90.0,-1.3028648045798277,0.0,24.0,High,5.0
275,Low,left,90.0,2.793238716133947,1.0,25.0,High,5.0
276,Low,right,90.0,4.3411019171506275,0.0,26.0,High,5.0
277,Low,right,90.0,-0.9605234672963814,1.0,27.0,High,5.0
278,Low,right,90.0,0.37640405928350473,1.0,28.0,High,5.0
279,Low,left,90.0,4.273983545511394,0.0,29.0,High,5.0
280,Low,left,90.0,-1.0989365812086442,0.0,30.0,High,5.0
281,Low,left,90.0,1.1888446014977796,1.0,31.0,High,5.0
282,Low,left,90.0,1.5866435928235112,1.0,32.0,High,5.0
283,Low,left,90.0,2.9546514831959563,0.0,33.0,High,5.0
284,Low,left,90.0,-0.09152413196345721,0.0,34.0,High,5.0
285,Low,left,90.0,1.5483687577425096,0.0,35.0,High,5.0
286,Low,right,90.0,1.0793445267269912,1.0,36.0,High,5.0
287,Low,right,90.0,0.4558846793532445,0.0,37.0,High,5.0
288,Low,right,90.0,2.3398399028220167,0.0,38.0,High,5.0
289,Low,left,90.0,0.4091960368836395,1.0,39.0,High,5.0
290,Low,left,90.0,1.3703988303946917,1.0,40.0,High,5.0
291,Low,right,90.0,2.9891436746165443,1.0,41.0,High,5.0
292,Low,left,90.0,-2.1750096341585,0.0,42.0,High,5.0
293,Low,left,90.0,2.017658376435561,0.0,43.0,High,5.0
294,Low,left,90.0,1.819779706391211,0.0,44.0,High,5.0
295,Low,left,90.0,1.3784398708412517,0.0,45.0,High,5.0
296,Low,right,90.0,1.1465746471744143,0.0,46.0,High,5.0
297,Low,right,90.0,1.6835942531931394,1.0,47.0,High,5.0
298,Low,right,90.0,-0.8003713485696302,1.0,48.0,High,5.0
299,Low,right,90.0,3.156905871811441,1.0,49.0,High,5.0
300,High,left,30.0,3.737033355330712,0.0,0.0,High,6.0
301,High,right,30.0,2.1115286534794837,1.0,1.0,High,6.0
302,High,right,30.0,4.585163010723027,0.0,2.0,High,6.0
303,High,left,30.0,2.791706098186405,1.0,3.0,High,6.0
304,High,right,30.0,2.726784164163063,0.0,4.0,High,6.0
305,High,right,30.0,1.356381142817797,1.0,5.0,High,6.0
306,High,left,30.0,4.252727154771396,0.0,6.0,High,6.0
307,High,left,30.0,4.275126400050832,1.0,7.0,High,6.0
308,High,right,30.0,2.70336934550992,1.0,8.0,High,6.0
309,High,left,30.0,1.712550591662092,0.0,9.0,High,6.0
310,High,left,30.0,1.7142870679769988,1.0,10.0,High,6.0
311,High,right,30.0,2.2069740404804894,1.0,11.0,High,6.0
312,High,right,30.0,1.4448685333850249,0.0,12.0,High,6.0
313,High,left,30.0,1.0757551094135898,1.0,13.0,High,6.0
314,High,left,30.0,0.847497591674826,0.0,14.0,High,6.0
315,High,right,30.0,0.5953004025737714,0.0,15.0,High,6.0
316,High,left,30.0,3.6758030872357814,0.0,16.0,High,6.0
317,High,left,30.0,-0.34424362793873287,1.0,17.0,High,6.0
318,High,right,30.0,2.6781396540090974,0.0,18.0,High,6.0
319,High,right,30.0,-0.25646106565188465,1.0,19.0,High,6.0
320,High,left,30.0,1.5356727793563976,1.0,20.0,High,6.0
321,High,left,30.0,2.89034376732872,1.0,21.0,High,6.0
322,High,left,30.0,1.8995479600384444,0.0,22.0,High,6.0
323,High,right,30.0,4.318251136312786,0.0,23.0,High,6.0
324,High,left,30.0,2.4308025199761967,0.0,24.0,High,6.0
325,High,right,30.0,3.081916514994609,1.0,25.0,High,6.0
326,High,left,30.0,0.8227810217896241,1.0,26.0,High,6.0
327,High,right,30.0,1.1646005776791217,0.0,27.0,High,6.0
328,High,left,30.0,1.0055181726549498,1.0,28.0,High,6.0
329,High,right,30.0,2.4066873479997857,0.0,29.0,High,6.0
330,High,left,30.0,6.031194113098641,1.0,30.0,High,6.0
331,High,right,30.0,0.8684217887688752,0.0,31.0,High,6.0
332,High,left,30.0,0.28511140557486736,1.0,32.0,High,6.0
333,High,right,30.0,-0.5052752987053251,1.0,33.0,High,6.0
334,High,right,30.0,2.079817608788917,1.0,34.0,High,6.0
335,High,left,30.0,2.9404403175867135,0.0,35.0,High,6.0
336,High,right,30.0,4.623152246909082,0.0,36.0,High,6.0
337,High,right,30.0,5.123239422476406,1.0,37.0,High,6.0
338,High,right,30.0,1.7453536891172017,0.0,38.0,High,6.0
339,High,left,30.0,-0.6451065460522556,0.0,39.0,High,6.0
340,High,right,30.0,-0.883587487646246,1.0,40.0,High,6.0
341,High,right,30.0,1.5400483812170873,0.0,41.0,High,6.0
342,High,right,30.0,3.0333086271190286,0.0,42.0,High,6.0
343,High,left,30.0,3.9745580687498165,1.0,43.0,High,6.0
344,High,right,30.0,3.8570675448371556,0.0,44.0,High,6.0
345,High,right,30.0,2.7265951378593565,1.0,45.0,High,6.0
346,High,right,30.0,0.44660240494449854,1.0,46.0,High,6.0
347,High,right,30.0,4.499066616798114,0.0,47.0,High,6.0
348,High,left,30.0,-0.28509521938596705,1.0,48.0,High,6.0
349,High,right,30.0,3.148211591535281,1.0,49.0,High,6.0
350,Low,left,30.0,0.6325396621985768,0.0,0.0,Low,7.0
351,Low,left,30.0,2.4019615052412684,1.0,1.0,Low,7.0
352,Low,right,30.0,2.1109430946764776,1.0,2.0,Low,7.0
353,Low,right,30.0,0.11847227502111934,1.0,3.0,Low,7.0
354,Low,right,30.0,4.151761148688717,1.0,4.0,Low,7.0
355,Low,left,30.0,2.308188365431744,1.0,5.0,Low,7.0
356,Low,right,30.0,1.8518178068762468,1.0,6.0,Low,7.0
357,Low,left,30.0,0.20575262597383448,1.0,7.0,Low,7.0
358,Low,right,30.0,0.7486660106444711,1.0,8.0,Low,7.0
359,Low,left,30.0,1.983884587896235,0.0,9.0,Low,7.0
360,Low,left,30.0,3.4018063180943607,1.0,10.0,Low,7.0
361,Low,right,30.0,3.5189387459370125,0.0,11.0,Low,7.0
362,Low,left,30.0,-3.474397292142445,1.0,12.0,Low,7.0
363,Low,right,30.0,1.3735464954243284,1.0,13.0,Low,7.0
364,Low,right,30.0,2.58507020372177,0.0,14.0,Low,7.0
365,Low,left,30.0,1.2467004364777956,0.0,15.0,Low,7.0
366,Low,left,30.0,4.029907198446965,0.0,16.0,Low,7.0
367,Low,right,30.0,0.07347648642296756,0.0,17.0,Low,7.0
368,Low,left,30.0,-0.23146146279958657,1.0,18.0,Low,7.0
369,Low,left,30.0,3.3955163810369133,0.0,19.0,Low,7.0
370,Low,left,30.0,0.021870366602775526,1.0,20.0,Low,7.0
371,Low,right,30.0,3.804850283547739,0.0,21.0,Low,7.0
372,Low,right,30.0,0.4306438963513153,1.0,22.0,Low,7.0
373,Low,left,30.0,-0.8621232288419232,1.0,23.0,Low,7.0
374,Low,left,30.0,-1.397659255333129,0.0,24.0,Low,7.0
375,Low,right,30.0,3.763392501871847,0.0,25.0,Low,7.0
376,Low,right,30.0,4.522210328282165,0.0,26.0,Low,7.0
377,Low,left,30.0,0.22919080129971425,0.0,27.0,Low,7.0
378,Low,left,30.0,0.4209948201702145,1.0,28.0,Low,7.0
379,Low,right,30.0,-1.2481914823088143,1.0,29.0,Low,7.0
380,Low,right,30.0,0.472366176206912,1.0,30.0,Low,7.0
381,Low,right,30.0,5.729718046550118,1.0,31.0,Low,7.0
382,Low,right,30.0,0.9147126830039654,1.0,32.0,Low,7.0
383,Low,right,30.0,-1.3407156039024293,0.0,33.0,Low,7.0
384,Low,right,30.0,-2.268393196802185,1.0,34.0,Low,7.0
385,Low,left,30.0,3.703476656757172,1.0,35.0,Low,7.0
386,Low,right,30.0,3.0476901043687383,0.0,36.0,Low,7.0
387,Low,right,30.0,3.597015652966867,1.0,37.0,Low,7.0
388,Low,left,30.0,-0.07828813057320794,1.0,38.0,Low,7.0
389,Low,right,30.0,-1.1753698029658408,1.0,39.0,Low,7.0
390,Low,right,30.0,3.584407257546191,0.0,40.0,Low,7.0
391,Low,right,30.0,1.7739119453370575,0.0,41.0,Low,7.0
392,Low,left,30.0,3.4368694477344595,1.0,42.0,Low,7.0
393,Low,left,30.0,1.5795610940112008,1.0,43.0,Low,7.0
394,Low,left,30.0,-0.3223852162314883,1.0,44.0,Low,7.0
395,Low,right,30.0,1.9557290865023014,0.0,45.0,Low,7.0
396,Low,right,30.0,2.8205531741759455,1.0,46.0,Low,7.0
397,Low,left,30.0,2.8214302142734,0.0,47.0,Low,7.0
398,Low,left,30.0,0.11782988546388795,1.0,48.0,Low,7.0
399,Low,left,30.0,3.4945954980031946,1.0,49.0,Low,7.0
400,High,right,60.0,4.082457354956596,1.0,0.0,High,8.0
401,High,right,60.0,3.1903288687384475,1.0,1.0,High,8.0
402,High,right,60.0,1.1263052333689652,1.0,2.0,High,8.0
403,High,right,60.0,-0.2108117805291605,1.0,3.0,High,8.0
404,High,right,60.0,0.3673840200274392,0.0,4.0,High,8.0
405,High,right,60.0,5.4982599185265215,0.0,5.0,High,8.0
406,High,right,60.0,2.2593941604501446,0.0,6.0,High,8.0
407,High,right,60.0,1.4180708691573198,1.0,7.0,High,8.0
408,High,right,60.0,2.399037945996321,1.0,8.0,High,8.0
409,High,right,60.0,2.0837457440015443,0.0,9.0,High,8.0
410,High,left,60.0,5.157864640585441,0.0,10.0,High,8.0
411,High,right,60.0,1.03439985886344,1.0,11.0,High,8.0
412,High,left,60.0,3.794310434322954,1.0,12.0,High,8.0
413,High,left,60.0,3.558812508639221,0.0,13.0,High,8.0
414,High,right,60.0,5.438333826378417,0.0,14.0,High,8.0
415,High,left,60.0,3.0980645374171543,0.0,15.0,High,8.0
416,High,left,60.0,4.689954648156619,0.0,16.0,High,8.0
417,High,left,60.0,0.37689919246490766,1.0,17.0,High,8.0
418,High,left,60.0,5.07434089215125,0.0,18.0,High,8.0
419,High,right,60.0,0.39305617231060686,1.0,19.0,High,8.0
420,High,left,60.0,1.2817579418129244,0.0,20.0,High,8.0
421,High,right,60.0,1.749554862004012,0.0,21.0,High,8.0
422,High,right,60.0,3.1188823805089494,0.0,22.0,High,8.0
423,High,right,60.0,1.6222268537034874,0.0,23.0,High,8.0
424,High,left,60.0,1.262804655752133,0.0,24.0,High,8.0
425,High,left,60.0,1.6110891741549667,1.0,25.0,High,8.0
426,High,right,60.0,-0.7176504695309776,1.0,26.0,High,8.0
427,High,right,60.0,2.1033844621539313,1.0,27.0,High,8.0
428,High,left,60.0,5.463598629616218,1.0,28.0,High,8.0
429,High,right,60.0,-0.6273069943224225,1.0,29.0,High,8.0
430,High,right,60.0,4.717907461497805,1.0,30.0,High,8.0
431,High,right,60.0,-2.449910467047053,0.0,31.0,High,8.0
432,High,right,60.0,4.588408935002436,0.0,32.0,High,8.0
433,High,left,60.0,0.11191148012426932,1.0,33.0,High,8.0
434,High,left,60.0,-2.121090349223438,1.0,34.0,High,8.0
435,High,right,60.0,2.87339920356074,1.0,35.0,High,8.0
436,High,right,60.0,2.252635179447336,0.0,36.0,High,8.0
437,High,right,60.0,-0.5598906988562167,0.0,37.0,High,8.0
438,High,right,60.0,3.8261119678975932,1.0,38.0,High,8.0
439,High,left,60.0,1.265873270959215,0.0,39.0,High,8.0
440,High,right,60.0,2.7878309688546583,1.0,40.0,High,8.0
441,High,right,60.0,-1.2888871891899878,1.0,41.0,High,8.0
442,High,right,60.0,4.324010535252656,0.0,42.0,High,8.0
443,High,right,60.0,1.9747126884230735,1.0,43.0,High,8.0
444,High,right,60.0,-1.0913813090114346,0.0,44.0,High,8.0
445,High,right,60.0,3.7014643638046913,0.0,45.0,High,8.0
446,High,right,60.0,1.0950377594128744,1.0,46.0,High,8.0
447,High,left,60.0,0.455401792079569,0.0,47.0,High,8.0
448,High,left,60.0,-2.429453115959582,1.0,48.0,High,8.0
449,High,right,60.0,5.005114643658128,1.0,49.0,High,8.0
450,Low,left,60.0,3.9214019936309823,1.0,0.0,Low,9.0
451,Low,left,60.0,6.3028482314337415,1.0,1.0,Low,9.0
452,Low,right,60.0,-0.45720429065551205,0.0,2.0,Low,9.0
453,Low,right,60.0,-2.164569378614532,0.0,3.0,Low,9.0
454,Low,left,60.0,-0.19257515292677851,0.0,4.0,Low,9.0
455,Low,right,60.0,-0.18302269241045555,1.0,5.0,Low,9.0
456,Low,left,60.0,2.06196993578192,1.0,6.0,Low,9.0
457,Low,right,60.0,0.43963876742367614,1.0,7.0,Low,9.0
458,Low,left,60.0,2.184025553350551,0.0,8.0,Low,9.0
459,Low,right,60.0,0.3401497670703655,0.0,9.0,Low,9.0
460,Low,left,60.0,3.135213279800796,1.0,10.0,Low,9.0
461,Low,right,60.0,1.8940623925261897,1.0,11.0,Low,9.0
462,Low,left,60.0,0.9350393624105935,1.0,12.0,Low,9.0
463,Low,left,60.0,1.0475204076610098,1.0,13.0,Low,9.0
464,Low,right,60.0,2.923954840816792,0.0,14.0,Low,9.0
465,Low,left,60.0,4.850659676922396,1.0,15.0,Low,9.0
466,Low,left,60.0,0.819815496571272,0.0,16.0,Low,9.0
467,Low,right,60.0,3.971626798984026,0.0,17.0,Low,9.0
468,Low,left,60.0,0.3157483596806061,1.0,18.0,Low,9.0
469,Low,left,60.0,0.22743481953961364,1.0,19.0,Low,9.0
470,Low,right,60.0,1.5017771838728464,1.0,20.0,Low,9.0
471,Low,right,60.0,-1.4968571795510512,1.0,21.0,Low,9.0
472,Low,left,60.0,5.436875042040416,0.0,22.0,Low,9.0
473,Low,right,60.0,2.1429826448725393,0.0,23.0,Low,9.0
474,Low,left,60.0,1.3215231809872925,1.0,24.0,Low,9.0
475,Low,right,60.0,-0.32199924427409243,0.0,25.0,Low,9.0
476,Low,right,60.0,1.2052049753186926,1.0,26.0,Low,9.0
477,Low,left,60.0,-1.4519321661468725,0.0,27.0,Low,9.0
478,Low,left,60.0,-1.0828216130952502,0.0,28.0,Low,9.0
479,Low,left,60.0,0.9600514830400668,1.0,29.0,Low,9.0
480,Low,left,60.0,1.0014783574798547,0.0,30.0,Low,9.0
481,Low,right,60.0,1.8491888825957479,1.0,31.0,Low,9.0
482,Low,left,60.0,2.9025109174937542,1.0,32.0,Low,9.0
483,Low,left,60.0,1.0427537724287528,0.0,33.0,Low,9.0
484,Low,right,60.0,2.052604305544636,0.0,34.0,Low,9.0
485,Low,left,60.0,1.1818556070670136,1.0,35.0,Low,9.0
486,Low,right,60.0,4.890696327685511,1.0,36.0,Low,9.0
487,Low,right,60.0,1.9053173532083205,1.0,37.0,Low,9.0
488,Low,left,60.0,2.0448901658851852,1.0,38.0,Low,9.0
489,Low,left,60.0,-2.2572596662276063,0.0,39.0,Low,9.0
490,Low,right,60.0,4.536900490839795,0.0,40.0,Low,9.0
491,Low,left,60.0,3.158896944620934,1.0,41.0,Low,9.0
492,Low,right,60.0,1.6988912735997976,1.0,42.0,Low,9.0
493,Low,right,60.0,-0.5333345306762614,0.0,43.0,Low,9.0
494,Low,left,60.0,5.678459963874216,0.0,44.0,Low,9.0
495,Low,left,60.0,0.05611115567519742,0.0,45.0,Low,9.0
496,Low,right,60.0,2.2203339756056844,1.0,46.0,Low,9.0
497,Low,right,60.0,3.9229857090639264,1.0,47.0,Low,9.0
498,Low,left,60.0,-0.2883732521047875,0.0,48.0,Low,9.0
499,Low,right,60.0,1.3342334607829007,1.0,49.0,Low,9.0
500,High,left,90.0,-1.0631218367741875,0.0,0.0,High,10.0
501,High,right,90.0,-1.8417226509802547,0.0,1.0,High,10.0
502,High,right,90.0,6.415688135790069,1.0,2.0,High,10.0
503,High,left,90.0,-0.5815591200762529,0.0,3.0,High,10.0
504,High,right,90.0,1.5308511726049492,1.0,4.0,High,10.0
505,High,left,90.0,-0.5222614471160485,1.0,5.0,High,10.0
506,High,right,90.0,3.413121907473041,0.0,6.0,High,10.0
507,High,right,90.0,7.798782444322446,0.0,7.0,High,10.0
508,High,left,90.0,2.3092889317101277,1.0,8.0,High,10.0
509,High,left,90.0,2.719028093706755,0.0,9.0,High,10.0
510,High,left,90.0,0.43709859130832807,1.0,10.0,High,10.0
511,High,right,90.0,4.815977521917534,1.0,11.0,High,10.0
512,High,right,90.0,1.272527837466153,0.0,12.0,High,10.0
513,High,right,90.0,6.978635887230106,0.0,13.0,High,10.0
514,High,right,90.0,0.46581035757293576,0.0,14.0,High,10.0
515,High,left,90.0,-0.04312029496599079,1.0,15.0,High,10.0
516,High,left,90.0,0.8525953945913274,1.0,16.0,High,10.0
517,High,left,90.0,-0.8972980490200646,1.0,17.0,High,10.0
518,High,left,90.0,1.7994436235419984,1.0,18.0,High,10.0
519,High,right,90.0,4.013497563953677,1.0,19.0,High,10.0
520,High,right,90.0,-0.01286358206537308,1.0,20.0,High,10.0
521,High,left,90.0,2.6107183190815033,0.0,21.0,High,10.0
522,High,left,90.0,-0.7501179524769603,0.0,22.0,High,10.0
523,High,left,90.0,5.513746062879912,1.0,23.0,High,10.0
524,High,right,90.0,3.0334213589319834,0.0,24.0,High,10.0
525,High,right,90.0,3.431590500859586,0.0,25.0,High,10.0
526,High,left,90.0,1.8468290728489936,0.0,26.0,High,10.0
527,High,right,90.0,1.616161183353862,1.0,27.0,High,10.0
528,High,left,90.0,-2.336524327335578,0.0,28.0,High,10.0
529,High,left,90.0,2.974766468537047,1.0,29.0,High,10.0
530,High,left,90.0,1.3973420995154786,0.0,30.0,High,10.0
531,High,left,90.0,1.6428008933117146,0.0,31.0,High,10.0
532,High,right,90.0,5.7536346753045855,0.0,32.0,High,10.0
533,High,right,90.0,3.290258902856186,0.0,33.0,High,10.0
534,High,right,90.0,1.3582993799195835,1.0,34.0,High,10.0
535,High,right,90.0,0.7050714183791598,1.0,35.0,High,10.0
536,High,left,90.0,-0.33897684411988793,0.0,36.0,High,10.0
537,High,left,90.0,2.442571492578648,0.0,37.0,High,10.0
538,High,left,90.0,2.1199602672423463,0.0,38.0,High,10.0
539,High,left,90.0,-1.4481666549766259,1.0,39.0,High,10.0
540,High,right,90.0,-1.287423615288243,1.0,40.0,High,10.0
541,High,left,90.0,1.7210414430188363,0.0,41.0,High,10.0
542,High,left,90.0,1.8436958205740104,0.0,42.0,High,10.0
543,High,left,90.0,4.5292552519896425,0.0,43.0,High,10.0
544,High,right,90.0,-0.13096633087422926,1.0,44.0,High,10.0
545,High,right,90.0,-2.224052869874733,1.0,45.0,High,10.0
546,High,right,90.0,3.172991087112016,0.0,46.0,High,10.0
547,High,right,90.0,3.5655953220763963,1.0,47.0,High,10.0
548,High,right,90.0,0.8111628739806115,0.0,48.0,High,10.0
549,High,left,90.0,-0.11614911346268197,0.0,49.0,High,10.0
550,Low,right,90.0,1.9882724437904313,0.0,0.0,Low,11.0
551,Low,left,90.0,0.007040571569587817,0.0,1.0,Low,11.0
552,Low,left,90.0,2.1260509369247904,1.0,2.0,Low,11.0
553,Low,right,90.0,4.01262019579514,0.0,3.0,Low,11.0
554,Low,left,90.0,0.2336058133256409,0.0,4.0,Low,11.0
555,Low,right,90.0,4.994435955656044,0.0,5.0,Low,11.0
556,Low,left,90.0,4.1309550284867225,0.0,6.0,Low,11.0
557,Low,left,90.0,0.8877940615372477,1.0,7.0,Low,11.0
558,Low,right,90.0,-0.32662224131929474,0.0,8.0,Low,11.0
559,Low,right,90.0,1.6483839019752684,1.0,9.0,Low,11.0
560,Low,right,90.0,3.090927154867447,1.0,10.0,Low,11.0
561,Low,right,90.0,1.5089419884543982,0.0,11.0,Low,11.0
562,Low,right,90.0,1.8388876828510665,1.0,12.0,Low,11.0
563,Low,right,90.0,2.030808850559244,0.0,13.0,Low,11.0
564,Low,right,90.0,-1.042074293121491,0.0,14.0,Low,11.0
565,Low,left,90.0,1.6680712741797663,1.0,15.0,Low,11.0
566,Low,left,90.0,2.4457971857619127,1.0,16.0,Low,11.0
567,Low,right,90.0,2.5344395308972727,0.0,17.0,Low,11.0
568,Low,left,90.0,0.3081050404283745,1.0,18.0,Low,11.0
569,Low,right,90.0,2.8336969322616423,1.0,19.0,Low,11.0
570,Low,left,90.0,3.4066384889450365,1.0,20.0,Low,11.0
571,Low,right,90.0,3.3042023739065476,1.0,21.0,Low,11.0
572,Low,right,90.0,1.9552087721028104,0.0,22.0,Low,11.0
573,Low,left,90.0,0.07236370266621384,1.0,23.0,Low,11.0
574,Low,right,90.0,-0.8665463278541692,0.0,24.0,Low,11.0
575,Low,right,90.0,1.3726467670162443,1.0,25.0,Low,11.0
576,Low,left,90.0,4.166031806763301,1.0,26.0,Low,11.0
577,Low,left,90.0,0.2645615792574191,0.0,27.0,Low,11.0
578,Low,left,90.0,3.49748340669686,0.0,28.0,Low,11.0
579,Low,left,90.0,1.7481952459034416,1.0,29.0,Low,11.0
580,Low,left,90.0,3.3290908614805863,1.0,30.0,Low,11.0
581,Low,right,90.0,0.70285664709517,0.0,31.0,Low,11.0
582,Low,right,90.0,5.028394725850408,0.0,32.0,Low,11.0
583,Low,right,90.0,-0.9214737515942761,1.0,33.0,Low,11.0
584,Low,right,90.0,3.972530493563653,1.0,34.0,Low,11.0
585,Low,left,90.0,4.846347113481737,0.0,35.0,Low,11.0
586,Low,left,90.0,2.444433750751677,0.0,36.0,Low,11.0
587,Low,right,90.0,3.5168822042548276,1.0,37.0,Low,11.0
588,Low,left,90.0,2.404853210054701,1.0,38.0,Low,11.0
589,Low,right,90.0,3.6912289677456136,0.0,39.0,Low,11.0
590,Low,right,90.0,4.671082160627153,1.0,40.0,Low,11.0
591,Low,right,90.0,4.214051802707322,0.0,41.0,Low,11.0
592,Low,right,90.0,2.2238601196622905,0.0,42.0,Low,11.0
593,Low,left,90.0,3.38492017450353,0.0,43.0,Low,11.0
594,Low,left,90.0,1.8014003730768149,1.0,44.0,Low,11.0
595,Low,left,90.0,0.577890730316877,1.0,45.0,Low,11.0
596,Low,left,90.0,2.886233079623408,1.0,46.0,Low,11.0
597,Low,left,90.0,3.1971979403802457,1.0,47.0,Low,11.0
598,Low,left,90.0,1.7969977501331797,1.0,48.0,Low,11.0
599,Low,left,90.0,-0.9606940598655958,0.0,49.0,Low,11.0
