,Arousal,KeyPressed,LearningTime,RT,Response,TrialNumber,Valence,nBlock
0,High,right,30.0,4.279335849222205,0.0,0.0,Low,0.0
1,High,left,30.0,2.4489667469090532,1.0,1.0,Low,0.0
2,High,left,30.0,-0.31203729786139434,0.0,2.0,Low,0.0
3,High,left,30.0,2.1629676020636217,1.0,3.0,Low,0.0
4,High,left,30.0,6.3147181339510725,1.0,4.0,Low,0.0
5,High,right,30.0,0.3685184358714726,1.0,5.0,Low,0.0
6,High,right,30.0,4.624626923781291,1.0,6.0,Low,0.0
7,High,left,30.0,-1.3881606818256533,0.0,7.0,Low,0.0
8,High,right,30.0,3.3278344212813797,1.0,8.0,Low,0.0
9,High,right,30.0,1.3319924711867448,0.0,9.0,Low,0.0
10,High,left,30.0,3.7959388792131725,1.0,10.0,Low,0.0
11,High,right,30.0,1.8650070663818727,1.0,11.0,Low,0.0
12,High,left,30.0,-1.0362358833818899,0.0,12.0,Low,0.0
13,High,right,30.0,2.8168615107394883,1.0,13.0,Low,0.0
14,High,right,30.0,4.0609123129347715,1.0,14.0,Low,0.0
15,High,right,30.0,4.093570603879403,1.0,15.0,Low,0.0
16,High,left,30.0,1.299990213851157,1.0,16.0,Low,0.0
17,High,right,30.0,2.521637596182387,0.0,17.0,Low,0.0
18,High,left,30.0,1.3399275642816462,1.0,18.0,Low,0.0
19,High,left,30.0,0.3891286534531062,0.0,19.0,Low,0.0
20,High,right,30.0,0.7482052285922782,1.0,20.0,Low,0.0
21,High,left,30.0,-0.866339321889793,0.0,21.0,Low,0.0
22,High,left,30.0,4.985843452273722,0.0,22.0,Low,0.0
23,High,left,30.0,1.1859340119766981,0.0,23.0,Low,0.0
24,High,left,30.0,0.9548936644433541,0.0,24.0,Low,0.0
25,High,left,30.0,0.22560086905871302,1.0,25.0,Low,0.0
26,High,right,30.0,1.8235390072955007,1.0,26.0,Low,0.0
27,High,left,30.0,3.6575181931158243,0.0,27.0,Low,0.0
28,High,left,30.0,1.4696019129622062,1.0,28.0,Low,0.0
29,High,left,30.0,1.1561472293897703,1.0,29.0,Low,0.0
30,High,left,30.0,2.794319921449926,0.0,30.0,Low,0.0
31,High,left,30.0,3.6652781212080474,0.0,31.0,Low,0.0
32,High,left,30.0,1.2308316982031444,1.0,32.0,Low,0.0
33,High,left,30.0,3.1341540215405415,1.0,33.0,Low,0.0
34,High,right,30.0,0.7934426136448611,0.0,34.0,Low,0.0
35,High,right,30.0,3.2806226860299788,0.0,35.0,Low,0.0
36,High,right,30.0,1.7485201117681344,1.0,36.0,Low,0.0
37,High,left,30.0,3.5345511636657974,0.0,37.0,Low,0.0
38,High,right,30.0,4.338089697070515,0.0,38.0,Low,0.0
39,High,left,30.0,2.181828488993256,0.0,39.0,Low,0.0
40,High,right,30.0,3.16739267650813,0.0,40.0,Low,0.0
41,High,left,30.0,0.10284576587437821,0.0,41.0,Low,0.0
42,High,left,30.0,-1.0163084376724967,0.0,42.0,Low,0.0
43,High,right,30.0,2.3085788375481466,1.0,43.0,Low,0.0
44,High,right,30.0,1.1353763627467897,0.0,44.0,Low,0.0
45,High,right,30.0,6.250844226188205,1.0,45.0,Low,0.0
46,High,right,30.0,5.148009329744273,0.0,46.0,Low,0.0
47,High,right,30.0,-0.4080777004891667,0.0,47.0,Low,0.0
48,High,left,30.0,5.590969684651226,1.0,48.0,Low,0.0
49,High,left,30.0,1.3299993914128105,1.0,49.0,Low,0.0
50,Low,right,30.0,2.0265345399361863,1.0,0.0,High,1.0
51,Low,left,30.0,0.8025762941865555,1.0,1.0,High,1.0
52,Low,right,30.0,1.7682805592926383,1.0,2.0,High,1.0
53,Low,left,30.0,-1.1206667440288505,0.0,3.0,High,1.0
54,Low,left,30.0,2.696833439474906,1.0,4.0,High,1.0
55,Low,left,30.0,3.757540711330528,0.0,5.0,High,1.0
56,Low,right,30.0,0.790069701749238,0.0,6.0,High,1.0
57,Low,right,30.0,2.9076779894725315,1.0,7.0,High,1.0
58,Low,left,30.0,2.994504245708348,1.0,8.0,High,1.0
59,Low,left,30.0,-0.23599301089311542,0.0,9.0,High,1.0
60,Low,right,30.0,1.7789738287698402,1.0,10.0,High,1.0
61,Low,left,30.0,2.999855072289087,1.0,11.0,High,1.0
62,Low,right,30.0,-1.169501496827913,0.0,12.0,High,1.0
63,Low,right,30.0,0.5995635718861352,1.0,13.0,High,1.0
64,Low,left,30.0,2.4799107587166462,0.0,14.0,High,1.0
65,Low,left,30.0,4.298520758955652,1.0,15.0,High,1.0
66,Low,right,30.0,4.624923123213646,0.0,16.0,High,1.0
67,Low,right,30.0,0.1641012821020995,1.0,17.0,High,1.0
68,Low,left,30.0,0.9610926536589063,0.0,18.0,High,1.0
69,Low,right,30.0,2.0724071687366905,0.0,19.0,High,1.0
70,Low,right,30.0,2.7699941585986996,1.0,20.0,High,1.0
71,Low,left,30.0,0.4308879731996602,0.0,21.0,High,1.0
72,Low,right,30.0,2.754590142649948,1.0,22.0,High,1.0
73,Low,right,30.0,2.7976252417719008,1.0,23.0,High,1.0
74,Low,right,30.0,0.43470828033435005,1.0,24.0,High,1.0
75,Low,left,30.0,2.545883164774226,1.0,25.0,High,1.0
76,Low,right,30.0,2.9240736721382117,1.0,26.0,High,1.0
77,Low,left,30.0,0.3999807409291025,1.0,27.0,High,1.0
78,Low,right,30.0,1.973339275625427,0.0,28.0,High,1.0
79,Low,left,30.0,3.0390632830248117,0.0,29.0,High,1.0
80,Low,right,30.0,0.31509120065278307,1.0,30.0,High,1.0
81,Low,right,30.0,2.2636028359223435,0.0,31.0,High,1.0
82,Low,left,30.0,2.5807715478359485,1.0,32.0,High,1.0
83,Low,left,30.0,0.2329941149314807,1.0,33.0,High,1.0
84,Low,left,30.0,3.4345462285756776,1.0,34.0,High,1.0
85,Low,left,30.0,-0.6390682189191454,1.0,35.0,High,1.0
86,Low,right,30.0,2.184480656288171,1.0,36.0,High,1.0
87,Low,left,30.0,-0.3143179648306311,0.0,37.0,High,1.0
88,Low,left,30.0,0.3003097361334415,1.0,38.0,High,1.0
89,Low,right,30.0,-1.3312366411363863,1.0,39.0,High,1.0
90,Low,right,30.0,2.251812636950906,1.0,40.0,High,1.0
91,Low,right,30.0,1.0233432030149454,1.0,41.0,High,1.0
92,Low,right,30.0,4.799686126733317,0.0,42.0,High,1.0
93,Low,left,30.0,1.2055208505233037,1.0,43.0,High,1.0
94,Low,right,30.0,1.2154532328157404,0.0,44.0,High,1.0
95,Low,left,30.0,2.1557787589500936,1.0,45.0,High,1.0
96,Low,right,30.0,2.8235785755076757,0.0,46.0,High,1.0
97,Low,left,30.0,-2.3331657615983894,1.0,47.0,High,1.0
98,Low,left,30.0,0.7781208223270828,1.0,48.0,High,1.0
99,Low,left,30.0,-1.801243448931903,0.0,49.0,High,1.0
100,High,left,60.0,4.208934257490734,1.0,0.0,Low,2.0
101,High,right,60.0,1.5521296693972433,1.0,1.0,Low,2.0
102,High,right,60.0,-0.09749648933284494,0.0,2.0,Low,2.0
103,High,right,60.0,3.587815907034516,0.0,3.0,Low,2.0
104,High,right,60.0,4.447321136261248,0.0,4.0,Low,2.0
105,High,right,60.0,6.433245781956074,0.0,5.0,Low,2.0
106,High,left,60.0,2.2146215168445393,0.0,6.0,Low,2.0
107,High,left,60.0,0.017398020662077407,1.0,7.0,Low,2.0
108,High,left,60.0,7.6370290885449155,0.0,8.0,Low,2.0
109,High,right,60.0,3.023148503468248,0.0,9.0,Low,2.0
110,High,right,60.0,3.4483272135238985,0.0,10.0,Low,2.0
111,High,right,60.0,3.20177758632596,1.0,11.0,Low,2.0
112,High,right,60.0,3.6444808525753336,1.0,12.0,Low,2.0
113,High,left,60.0,-0.6021850999719942,1.0,13.0,Low,2.0
114,High,right,60.0,3.7996353768278084,1.0,14.0,Low,2.0
115,High,right,60.0,5.140407730802327,0.0,15.0,Low,2.0
116,High,left,60.0,3.4632851147830888,1.0,16.0,Low,2.0
117,High,left,60.0,-1.6646313838150988,0.0,17.0,Low,2.0
118,High,left,60.0,0.9626402904365285,0.0,18.0,Low,2.0
119,High,right,60.0,0.15263957462031064,0.0,19.0,Low,2.0
120,High,left,60.0,-0.12752956157174378,1.0,20.0,Low,2.0
121,High,left,60.0,3.7730215982004003,0.0,21.0,Low,2.0
122,High,left,60.0,3.234946171789667,0.0,22.0,Low,2.0
123,High,right,60.0,2.378695080500263,1.0,23.0,Low,2.0
124,High,right,60.0,3.0213370848975085,0.0,24.0,Low,2.0
125,High,right,60.0,0.4632627453539113,0.0,25.0,Low,2.0
126,High,right,60.0,4.642845178635314,0.0,26.0,Low,2.0
127,High,right,60.0,1.0099221558667728,0.0,27.0,Low,2.0
128,High,right,60.0,0.028603634005858858,0.0,28.0,Low,2.0
129,High,left,60.0,-3.6191850972965662,1.0,29.0,Low,2.0
130,High,left,60.0,2.530707250933123,0.0,30.0,Low,2.0
131,High,right,60.0,4.038467965144433,0.0,31.0,Low,2.0
132,High,right,60.0,-0.8974304708117964,1.0,32.0,Low,2.0
133,High,left,60.0,3.543670109816758,1.0,33.0,Low,2.0
134,High,left,60.0,0.38183700006713206,0.0,34.0,Low,2.0
135,High,left,60.0,3.5554479497424407,1.0,35.0,Low,2.0
136,High,right,60.0,5.4695441424274795,0.0,36.0,Low,2.0
137,High,right,60.0,-0.07923590054152108,1.0,37.0,Low,2.0
138,High,right,60.0,1.9171067368901131,0.0,38.0,Low,2.0
139,High,left,60.0,1.9776190060274246,1.0,39.0,Low,2.0
140,High,left,60.0,1.8234259593440627,0.0,40.0,Low,2.0
141,High,right,60.0,0.6331342020771467,0.0,41.0,Low,2.0
142,High,right,60.0,4.126953846755655,0.0,42.0,Low,2.0
143,High,right,60.0,1.5261699624649783,0.0,43.0,Low,2.0
144,High,right,60.0,0.7640641220144629,0.0,44.0,Low,2.0
145,High,left,60.0,4.0999850671718026,0.0,45.0,Low,2.0
146,High,right,60.0,2.9579983453379195,1.0,46.0,Low,2.0
147,High,left,60.0,1.4989846896143586,1.0,47.0,Low,2.0
148,High,right,60.0,-0.9785222896485992,0.0,48.0,Low,2.0
149,High,left,60.0,2.9648478136506347,0.0,49.0,Low,2.0
150,Low,right,30.0,1.80813976703218,0.0,0.0,Low,3.0
151,Low,left,30.0,2.072970220238256,0.0,1.0,Low,3.0
152,Low,left,30.0,0.5614048245894745,0.0,2.0,Low,3.0
153,Low,right,30.0,2.380159418029666,1.0,3.0,Low,3.0
154,Low,right,30.0,3.8544088995462067,0.0,4.0,Low,3.0
155,Low,right,30.0,6.024892863336296,0.0,5.0,Low,3.0
156,Low,left,30.0,2.458407682882776,0.0,6.0,Low,3.0
157,Low,left,30.0,2.9850505692064,0.0,7.0,Low,3.0
158,Low,right,30.0,2.518909786527992,0.0,8.0,Low,3.0
159,Low,left,30.0,1.9032801537415707,0.0,9.0,Low,3.0
160,Low,right,30.0,-0.48122183533464113,0.0,10.0,Low,3.0
161,Low,right,30.0,-0.5338857209332168,0.0,11.0,Low,3.0
162,Low,right,30.0,-0.5411290006180838,1.0,12.0,Low,3.0
163,Low,left,30.0,1.1386810007437405,1.0,13.0,Low,3.0
164,Low,left,30.0,3.3236926477615842,1.0,14.0,Low,3.0
165,Low,left,30.0,-1.3863095694326053,0.0,15.0,Low,3.0
166,Low,left,30.0,2.4505677719705354,1.0,16.0,Low,3.0
167,Low,left,30.0,4.795483708195061,0.0,17.0,Low,3.0
168,Low,right,30.0,-1.5509903184677691,0.0,18.0,Low,3.0
169,Low,left,30.0,5.689504607078264,0.0,19.0,Low,3.0
170,Low,left,30.0,-0.6173642421592502,0.0,20.0,Low,3.0
171,Low,left,30.0,4.563727460444936,0.0,21.0,Low,3.0
172,Low,right,30.0,-0.47375848512756,1.0,22.0,Low,3.0
173,Low,left,30.0,-0.25620951052678964,1.0,23.0,Low,3.0
174,Low,left,30.0,3.0011259251372264,1.0,24.0,Low,3.0
175,Low,left,30.0,0.5374535798512503,1.0,25.0,Low,3.0
176,Low,right,30.0,1.6152654058606908,1.0,26.0,Low,3.0
177,Low,left,30.0,4.768878302994834,0.0,27.0,Low,3.0
178,Low,right,30.0,4.240798787275677,1.0,28.0,Low,3.0
179,Low,right,30.0,-0.5959308624442494,1.0,29.0,Low,3.0
180,Low,right,30.0,3.2892739147728807,0.0,30.0,Low,3.0
181,Low,right,30.0,3.4300319512444997,0.0,31.0,Low,3.0
182,Low,right,30.0,4.451169556682299,1.0,32.0,Low,3.0
183,Low,left,30.0,-1.533640605793217,1.0,33.0,Low,3.0
184,Low,right,30.0,3.197740630676106,1.0,34.0,Low,3.0
185,Low,right,30.0,4.8415711293813555,0.0,35.0,Low,3.0
186,Low,right,30.0,-0.6787022228235475,1.0,36.0,Low,3.0
187,Low,left,30.0,3.849078330113244,1.0,37.0,Low,3.0
188,Low,right,30.0,0.7397921869116806,0.0,38.0,Low,3.0
189,Low,left,30.0,5.8150137174815395,1.0,39.0,Low,3.0
190,Low,right,30.0,1.9190234932523065,0.0,40.0,Low,3.0
191,Low,right,30.0,1.720321947909111,1.0,41.0,Low,3.0
192,Low,right,30.0,-2.2315659447673224,1.0,42.0,Low,3.0
193,Low,right,30.0,-0.08354408183332662,0.0,43.0,Low,3.0
194,Low,left,30.0,1.3330110981442098,1.0,44.0,Low,3.0
195,Low,right,30.0,-0.3977541960063269,0.0,45.0,Low,3.0
196,Low,right,30.0,-0.1186635859378884,1.0,46.0,Low,3.0
197,Low,right,30.0,-0.11105278336132463,0.0,47.0,Low,3.0
198,Low,left,30.0,0.8240972230684416,0.0,48.0,Low,3.0
199,Low,right,30.0,1.2286276478483849,0.0,49.0,Low,3.0
200,High,right,30.0,1.0924696256473305,0.0,0.0,High,4.0
201,High,left,30.0,2.7397655010167843,1.0,1.0,High,4.0
202,High,left,30.0,1.6744961171113635,0.0,2.0,High,4.0
203,High,right,30.0,-0.6194497207032394,0.0,3.0,High,4.0
204,High,left,30.0,2.8535591382330856,0.0,4.0,High,4.0
205,High,right,30.0,0.9302936137830273,0.0,5.0,High,4.0
206,High,left,30.0,1.9818846594788582,1.0,6.0,High,4.0
207,High,left,30.0,2.3156117158868215,0.0,7.0,High,4.0
208,High,right,30.0,4.350909384162508,0.0,8.0,High,4.0
209,High,left,30.0,2.841725332570236,1.0,9.0,High,4.0
210,High,right,30.0,4.653516078066229,1.0,10.0,High,4.0
211,High,left,30.0,-0.9066143707047802,1.0,11.0,High,4.0
212,High,right,30.0,2.7175582079126617,0.0,12.0,High,4.0
213,High,left,30.0,0.9720091625138437,1.0,13.0,High,4.0
214,High,left,30.0,1.261609098003267,0.0,14.0,High,4.0
215,High,left,30.0,1.2248973173195283,1.0,15.0,High,4.0
216,High,right,30.0,0.9937330494328012,1.0,16.0,High,4.0
217,High,left,30.0,0.7714225173135911,1.0,17.0,High,4.0
218,High,left,30.0,-3.934632986728284,1.0,18.0,High,4.0
219,High,right,30.0,2.483554057716641,0.0,19.0,High,4.0
220,High,left,30.0,0.9844680078855214,1.0,20.0,High,4.0
221,High,right,30.0,-4.337013516071484,0.0,21.0,High,4.0
222,High,right,30.0,3.96524363621137,0.0,22.0,High,4.0
223,High,right,30.0,0.6615772108733085,1.0,23.0,High,4.0
224,High,left,30.0,6.602285402777443,1.0,24.0,High,4.0
225,High,left,30.0,5.885988011478097,0.0,25.0,High,4.0
226,High,left,30.0,1.7443695163087352,0.0,26.0,High,4.0
227,High,left,30.0,1.5145298981309758,0.0,27.0,High,4.0
228,High,left,30.0,4.484497198994076,1.0,28.0,High,4.0
229,High,right,30.0,-1.4552898037495234,1.0,29.0,High,4.0
230,High,right,30.0,1.7149978282549212,0.0,30.0,High,4.0
231,High,right,30.0,3.008559672441432,1.0,31.0,High,4.0
232,High,left,30.0,5.5844531768599435,1.0,32.0,High,4.0
233,High,right,30.0,0.6011475090524867,0.0,33.0,High,4.0
234,High,left,30.0,1.5450651244417717,0.0,34.0,High,4.0
235,High,left,30.0,-0.8396456335605356,0.0,35.0,High,4.0
236,High,left,30.0,2.4480675826296596,1.0,36.0,High,4.0
237,High,left,30.0,1.4990081376707955,1.0,37.0,High,4.0
238,High,left,30.0,2.791803956920339,1.0,38.0,High,4.0
239,High,left,30.0,-0.8222677694036378,0.0,39.0,High,4.0
240,High,left,30.0,1.716854700072527,1.0,40.0,High,4.0
241,High,right,30.0,4.476647041942249,0.0,41.0,High,4.0
242,High,right,30.0,1.9371255992164496,0.0,42.0,High,4.0
243,High,right,30.0,1.8437948493960732,1.0,43.0,High,4.0
244,High,right,30.0,3.736048520107114,1.0,44.0,High,4.0
245,High,left,30.0,-2.6378255706564673,1.0,45.0,High,4.0
246,High,right,30.0,1.4765309884375626,0.0,46.0,High,4.0
247,High,right,30.0,0.42494443514026115,1.0,47.0,High,4.0
248,High,right,30.0,5.811978717441763,0.0,48.0,High,4.0
249,High,right,30.0,2.693898234112633,1.0,49.0,High,4.0
250,Low,left,60.0,-2.4497935739162853,0.0,0.0,Low,5.0
251,Low,right,60.0,2.677338956167187,1.0,1.0,Low,5.0
252,Low,left,60.0,-1.1255854901132984,1.0,2.0,Low,5.0
253,Low,left,60.0,2.6659722114751503,0.0,3.0,Low,5.0
254,Low,left,60.0,3.2300057083207134,1.0,4.0,Low,5.0
255,Low,left,60.0,-0.9122799643331612,0.0,5.0,Low,5.0
256,Low,right,60.0,4.527208555433825,1.0,6.0,Low,5.0
257,Low,left,60.0,-0.10056611464846898,1.0,7.0,Low,5.0
258,Low,left,60.0,2.9373650004052854,1.0,8.0,Low,5.0
259,Low,right,60.0,3.5613525029985196,1.0,9.0,Low,5.0
260,Low,left,60.0,0.369205776536466,1.0,10.0,Low,5.0
261,Low,right,60.0,0.48469895958904474,0.0,11.0,Low,5.0
262,Low,right,60.0,3.9900156717988984,0.0,12.0,Low,5.0
263,Low,right,60.0,1.0171687173310946,1.0,13.0,Low,5.0
264,Low,left,60.0,0.9256076584959569,1.0,14.0,Low,5.0
265,Low,right,60.0,2.341405198416025,1.0,15.0,Low,5.0
266,Low,right,60.0,1.8153949207854907,0.0,16.0,Low,5.0
267,Low,right,60.0,0.1223184779767037,1.0,17.0,Low,5.0
268,Low,left,60.0,-1.1314057398067356,1.0,18.0,Low,5.0
269,Low,left,60.0,-1.1595126454619145,0.0,19.0,Low,5.0
270,Low,left,60.0,4.66710586020541,1.0,20.0,Low,5.0
271,Low,left,60.0,-0.40319844524279613,1.0,21.0,Low,5.0
272,Low,left,60.0,-1.715172708300639,1.0,22.0,Low,5.0
273,Low,right,60.0,1.1452520632366594,0.0,23.0,Low,5.0
274,Low,left,60.0,3.6500175496013716,0.0,24.0,Low,5.0
275,Low,right,60.0,-0.03609968991036627,1.0,25.0,Low,5.0
276,Low,left,60.0,-0.006476580115474473,1.0,26.0,Low,5.0
277,Low,left,60.0,2.0028563737101255,1.0,27.0,Low,5.0
278,Low,left,60.0,1.9053268100921437,1.0,28.0,Low,5.0
279,Low,left,60.0,-1.3202711561002505,1.0,29.0,Low,5.0
280,Low,left,60.0,0.05099367107865893,1.0,30.0,Low,5.0
281,Low,left,60.0,3.2049903913869637,0.0,31.0,Low,5.0
282,Low,right,60.0,1.0905102622431972,1.0,32.0,Low,5.0
283,Low,left,60.0,2.4839606844161355,1.0,33.0,Low,5.0
284,Low,right,60.0,-0.46821457618741347,1.0,34.0,Low,5.0
285,Low,left,60.0,2.8624941077829655,1.0,35.0,Low,5.0
286,Low,right,60.0,3.4758747725218795,1.0,36.0,Low,5.0
287,Low,left,60.0,4.591775331026988,1.0,37.0,Low,5.0
288,Low,right,60.0,2.796618966980126,1.0,38.0,Low,5.0
289,Low,left,60.0,2.163144921886013,0.0,39.0,Low,5.0
290,Low,right,60.0,2.101336521236957,0.0,40.0,Low,5.0
291,Low,left,60.0,5.851004989342513,0.0,41.0,Low,5.0
292,Low,right,60.0,4.564678619991874,1.0,42.0,Low,5.0
293,Low,left,60.0,1.4374839472453378,1.0,43.0,Low,5.0
294,Low,right,60.0,2.8592852099975956,0.0,44.0,Low,5.0
295,Low,right,60.0,-0.7781850571791327,0.0,45.0,Low,5.0
296,Low,right,60.0,3.637047194166598,1.0,46.0,Low,5.0
297,Low,left,60.0,0.2471677454020791,0.0,47.0,Low,5.0
298,Low,left,60.0,-0.2782567619269931,0.0,48.0,Low,5.0
299,Low,right,60.0,-0.24250509429289413,0.0,49.0,Low,5.0
300,High,right,60.0,1.0003275546824817,1.0,0.0,High,6.0
301,High,right,60.0,4.531098390911353,1.0,1.0,High,6.0
302,High,left,60.0,3.620376310885011,1.0,2.0,High,6.0
303,High,right,60.0,-0.27593671556724786,0.0,3.0,High,6.0
304,High,left,60.0,1.1888913811872832,1.0,4.0,High,6.0
305,High,right,60.0,2.213114808801696,1.0,5.0,High,6.0
306,High,right,60.0,2.5687436358684583,1.0,6.0,High,6.0
307,High,right,60.0,5.8811447855095365,0.0,7.0,High,6.0
308,High,left,60.0,-1.2242085645371266,1.0,8.0,High,6.0
309,High,right,60.0,3.855728728746173,1.0,9.0,High,6.0
310,High,right,60.0,2.34100544232095,1.0,10.0,High,6.0
311,High,right,60.0,4.965658540526874,0.0,11.0,High,6.0
312,High,right,60.0,1.2482718957369934,0.0,12.0,High,6.0
313,High,right,60.0,0.0031374096498484327,1.0,13.0,High,6.0
314,High,right,60.0,1.5556050928878093,1.0,14.0,High,6.0
315,High,right,60.0,7.073013034260844,1.0,15.0,High,6.0
316,High,left,60.0,-0.08043191229306057,1.0,16.0,High,6.0
317,High,right,60.0,1.785753242902349,1.0,17.0,High,6.0
318,High,left,60.0,-0.4414647523848161,1.0,18.0,High,6.0
319,High,right,60.0,1.1115166971107668,1.0,19.0,High,6.0
320,High,right,60.0,4.8068704988993005,0.0,20.0,High,6.0
321,High,right,60.0,3.02957335292402,0.0,21.0,High,6.0
322,High,left,60.0,-0.5098368850136268,1.0,22.0,High,6.0
323,High,left,60.0,1.8912837448690838,1.0,23.0,High,6.0
324,High,left,60.0,7.643055759749892,1.0,24.0,High,6.0
325,High,left,60.0,1.9817212628583156,1.0,25.0,High,6.0
326,High,left,60.0,3.2734749064005353,0.0,26.0,High,6.0
327,High,right,60.0,-1.19277607742116,0.0,27.0,High,6.0
328,High,left,60.0,-0.028681936169319577,0.0,28.0,High,6.0
329,High,left,60.0,0.204148556980555,0.0,29.0,High,6.0
330,High,left,60.0,2.7669679254765214,1.0,30.0,High,6.0
331,High,left,60.0,-0.16368106793615622,1.0,31.0,High,6.0
332,High,left,60.0,-0.7559578587774003,0.0,32.0,High,6.0
333,High,right,60.0,3.8423940646477304,1.0,33.0,High,6.0
334,High,left,60.0,4.180045168046311,0.0,34.0,High,6.0
335,High,right,60.0,0.6115775158181482,1.0,35.0,High,6.0
336,High,left,60.0,-0.1541958884862764,0.0,36.0,High,6.0
337,High,left,60.0,0.562847406021783,0.0,37.0,High,6.0
338,High,right,60.0,0.0055966460690335396,1.0,38.0,High,6.0
339,High,left,60.0,3.950456981294959,1.0,39.0,High,6.0
340,High,right,60.0,1.136630727130217,1.0,40.0,High,6.0
341,High,left,60.0,1.8815145583821384,0.0,41.0,High,6.0
342,High,left,60.0,0.7132542979703393,1.0,42.0,High,6.0
343,High,left,60.0,3.652503369692269,0.0,43.0,High,6.0
344,High,left,60.0,4.389007607786247,1.0,44.0,High,6.0
345,High,left,60.0,1.3485909069391016,1.0,45.0,High,6.0
346,High,right,60.0,-0.32432024343103905,0.0,46.0,High,6.0
347,High,right,60.0,0.5131727470919178,1.0,47.0,High,6.0
348,High,right,60.0,1.1845706426686489,1.0,48.0,High,6.0
349,High,left,60.0,0.15421788143706028,1.0,49.0,High,6.0
350,Low,right,60.0,-0.8085535760109008,0.0,0.0,High,7.0
351,Low,right,60.0,-1.5393024106168016,0.0,1.0,High,7.0
352,Low,left,60.0,2.2485772864596996,0.0,2.0,High,7.0
353,Low,left,60.0,1.9258049672635735,0.0,3.0,High,7.0
354,Low,left,60.0,3.7332098685265147,1.0,4.0,High,7.0
355,Low,left,60.0,2.202447831830901,1.0,5.0,High,7.0
356,Low,right,60.0,1.4736694688912158,1.0,6.0,High,7.0
357,Low,right,60.0,7.051196166518581,0.0,7.0,High,7.0
358,Low,left,60.0,-1.016759251654457,0.0,8.0,High,7.0
359,Low,right,60.0,5.028265952721863,1.0,9.0,High,7.0
360,Low,left,60.0,0.20624597093457775,0.0,10.0,High,7.0
361,Low,right,60.0,2.839726759727913,0.0,11.0,High,7.0
362,Low,left,60.0,1.984394221503258,1.0,12.0,High,7.0
363,Low,left,60.0,-1.5404111719445304,1.0,13.0,High,7.0
364,Low,left,60.0,0.9670928068606404,1.0,14.0,High,7.0
365,Low,left,60.0,3.0997513030763013,0.0,15.0,High,7.0
366,Low,right,60.0,1.4624322799018605,1.0,16.0,High,7.0
367,Low,right,60.0,-1.6945683341214686,0.0,17.0,High,7.0
368,Low,left,60.0,0.5408591120926458,1.0,18.0,High,7.0
369,Low,left,60.0,5.763752880282857,1.0,19.0,High,7.0
370,Low,right,60.0,-0.2679849265430565,1.0,20.0,High,7.0
371,Low,right,60.0,3.3220618769425956,1.0,21.0,High,7.0
372,Low,right,60.0,-2.3517647457306623,0.0,22.0,High,7.0
373,Low,left,60.0,-1.8438072828904752,0.0,23.0,High,7.0
374,Low,right,60.0,0.36778376757928377,1.0,24.0,High,7.0
375,Low,right,60.0,5.0208507622511185,1.0,25.0,High,7.0
376,Low,left,60.0,0.07354068674440062,1.0,26.0,High,7.0
377,Low,right,60.0,3.761402767047482,0.0,27.0,High,7.0
378,Low,left,60.0,2.0550985581040058,1.0,28.0,High,7.0
379,Low,left,60.0,4.330657947846179,0.0,29.0,High,7.0
380,Low,right,60.0,2.284417976413163,0.0,30.0,High,7.0
381,Low,left,60.0,2.1528180073704504,1.0,31.0,High,7.0
382,Low,left,60.0,2.270552197702298,0.0,32.0,High,7.0
383,Low,right,60.0,3.8819878180047915,1.0,33.0,High,7.0
384,Low,left,60.0,1.2407918186902802,0.0,34.0,High,7.0
385,Low,left,60.0,5.360672185946022,1.0,35.0,High,7.0
386,Low,left,60.0,-0.7398944881525331,1.0,36.0,High,7.0
387,Low,left,60.0,3.7940755884457,0.0,37.0,High,7.0
388,Low,left,60.0,1.3821837377719028,1.0,38.0,High,7.0
389,Low,right,60.0,3.537675962419172,1.0,39.0,High,7.0
390,Low,right,60.0,0.5464959697257079,1.0,40.0,High,7.0
391,Low,left,60.0,1.8223870226580483,0.0,41.0,High,7.0
392,Low,right,60.0,4.986395184700214,0.0,42.0,High,7.0
393,Low,right,60.0,1.2265474721456753,0.0,43.0,High,7.0
394,Low,right,60.0,-2.0768428435964603,1.0,44.0,High,7.0
395,Low,right,60.0,4.3050422752815685,0.0,45.0,High,7.0
396,Low,left,60.0,-3.343012413536169,1.0,46.0,High,7.0
397,Low,right,60.0,5.4060663603003185,0.0,47.0,High,7.0
398,Low,left,60.0,3.6140851613059697,0.0,48.0,High,7.0
399,Low,right,60.0,8.71603222964763,0.0,49.0,High,7.0
400,High,right,90.0,0.9926999766533753,1.0,0.0,Low,8.0
401,High,right,90.0,1.4275873351941464,0.0,1.0,Low,8.0
402,High,right,90.0,0.8580046924542417,0.0,2.0,Low,8.0
403,High,left,90.0,2.413216742695477,1.0,3.0,Low,8.0
404,High,left,90.0,1.6639373167407776,0.0,4.0,Low,8.0
405,High,left,90.0,2.5114654352367687,1.0,5.0,Low,8.0
406,High,right,90.0,1.849174287968417,0.0,6.0,Low,8.0
407,High,left,90.0,0.9621827048279914,0.0,7.0,Low,8.0
408,High,right,90.0,2.9502308324329065,1.0,8.0,Low,8.0
409,High,right,90.0,4.224179524988148,1.0,9.0,Low,8.0
410,High,right,90.0,0.4808444869289804,0.0,10.0,Low,8.0
411,High,left,90.0,2.5057189116465004,0.0,11.0,Low,8.0
412,High,left,90.0,0.6938437398706332,1.0,12.0,Low,8.0
413,High,right,90.0,1.5496209487721955,1.0,13.0,Low,8.0
414,High,right,90.0,2.2814907795899284,1.0,14.0,Low,8.0
415,High,left,90.0,-0.5045093533500062,0.0,15.0,Low,8.0
416,High,left,90.0,-1.5906070115369109,0.0,16.0,Low,8.0
417,High,left,90.0,3.588667001527824,0.0,17.0,Low,8.0
418,High,right,90.0,2.120321788763305,1.0,18.0,Low,8.0
419,High,left,90.0,-2.8094745918572985,0.0,19.0,Low,8.0
420,High,right,90.0,5.1658408977467865,0.0,20.0,Low,8.0
421,High,right,90.0,1.715710486117905,1.0,21.0,Low,8.0
422,High,right,90.0,2.8094933704774423,0.0,22.0,Low,8.0
423,High,right,90.0,4.718552443613534,1.0,23.0,Low,8.0
424,High,right,90.0,1.7811091760979652,0.0,24.0,Low,8.0
425,High,left,90.0,1.100777339375324,1.0,25.0,Low,8.0
426,High,right,90.0,4.375534623472399,0.0,26.0,Low,8.0
427,High,left,90.0,1.3306618677838857,1.0,27.0,Low,8.0
428,High,right,90.0,0.1883165661621189,1.0,28.0,Low,8.0
429,High,right,90.0,0.4595112107037975,1.0,29.0,Low,8.0
430,High,right,90.0,2.6316376015319443,0.0,30.0,Low,8.0
431,High,left,90.0,1.39182120142208,1.0,31.0,Low,8.0
432,High,left,90.0,7.16745266053241,0.0,32.0,Low,8.0
433,High,right,90.0,5.127717818684271,1.0,33.0,Low,8.0
434,High,left,90.0,1.30266351189211,0.0,34.0,Low,8.0
435,High,left,90.0,0.3236016596541028,1.0,35.0,Low,8.0
436,High,left,90.0,-2.0969257584307006,0.0,36.0,Low,8.0
437,High,right,90.0,2.7982887234733367,0.0,37.0,Low,8.0
438,High,right,90.0,7.244148504130509,1.0,38.0,Low,8.0
439,High,left,90.0,2.961118344152604,1.0,39.0,Low,8.0
440,High,left,90.0,1.8646775444262016,1.0,40.0,Low,8.0
441,High,right,90.0,1.2894029627384818,0.0,41.0,Low,8.0
442,High,left,90.0,2.993441704162498,0.0,42.0,Low,8.0
443,High,right,90.0,4.135360795125509,1.0,43.0,Low,8.0
444,High,left,90.0,2.546507557413108,0.0,44.0,Low,8.0
445,High,left,90.0,-3.8172397580470694,0.0,45.0,Low,8.0
446,High,right,90.0,-0.8246551646602018,0.0,46.0,Low,8.0
447,High,left,90.0,4.678765577527685,0.0,47.0,Low,8.0
448,High,right,90.0,0.6678568330141612,0.0,48.0,Low,8.0
449,High,left,90.0,1.6614987364811593,0.0,49.0,Low,8.0
450,Low,right,90.0,3.2253900412840824,0.0,0.0,Low,9.0
451,Low,left,90.0,0.7162408172085553,1.0,1.0,Low,9.0
452,Low,right,90.0,0.4304796775378221,0.0,2.0,Low,9.0
453,Low,right,90.0,1.2910973706989766,1.0,3.0,Low,9.0
454,Low,left,90.0,1.4009217244145478,1.0,4.0,Low,9.0
455,Low,left,90.0,1.382196746947259,0.0,5.0,Low,9.0
456,Low,left,90.0,3.374627770598208,1.0,6.0,Low,9.0
457,Low,left,90.0,2.998271080584997,1.0,7.0,Low,9.0
458,Low,right,90.0,0.4482329678451962,0.0,8.0,Low,9.0
459,Low,left,90.0,6.741156760482998,1.0,9.0,Low,9.0
460,Low,left,90.0,0.6419119674866327,0.0,10.0,Low,9.0
461,Low,right,90.0,0.6834863506027495,1.0,11.0,Low,9.0
462,Low,right,90.0,0.33622893025920986,0.0,12.0,Low,9.0
463,Low,left,90.0,1.9239920956394214,1.0,13.0,Low,9.0
464,Low,right,90.0,1.4399723402313958,0.0,14.0,Low,9.0
465,Low,left,90.0,1.1019540587694279,0.0,15.0,Low,9.0
466,Low,right,90.0,2.0872306324261025,0.0,16.0,Low,9.0
467,Low,right,90.0,0.6796404295650498,1.0,17.0,Low,9.0
468,Low,right,90.0,3.497623588418605,1.0,18.0,Low,9.0
469,Low,right,90.0,1.3936493697922252,1.0,19.0,Low,9.0
470,Low,right,90.0,3.5567482749582555,1.0,20.0,Low,9.0
471,Low,left,90.0,1.2251556836269837,0.0,21.0,Low,9.0
472,Low,right,90.0,2.449507591885873,1.0,22.0,Low,9.0
473,Low,left,90.0,1.7027744404215313,1.0,23.0,Low,9.0
474,Low,left,90.0,2.1289833162716407,1.0,24.0,Low,9.0
475,Low,right,90.0,-0.8568069862648957,1.0,25.0,Low,9.0
476,Low,right,90.0,0.033733849739179034,0.0,26.0,Low,9.0
477,Low,right,90.0,-0.053829064091727385,1.0,27.0,Low,9.0
478,Low,right,90.0,-0.3030539834825643,1.0,28.0,Low,9.0
479,Low,left,90.0,2.2153201975346546,1.0,29.0,Low,9.0
480,Low,right,90.0,2.241353545631404,1.0,30.0,Low,9.0
481,Low,left,90.0,3.577374110112047,0.0,31.0,Low,9.0
482,Low,left,90.0,7.1135160941148925,0.0,32.0,Low,9.0
483,Low,right,90.0,3.882557238413497,0.0,33.0,Low,9.0
484,Low,left,90.0,6.53321223434259,1.0,34.0,Low,9.0
485,Low,right,90.0,4.069634063428706,1.0,35.0,Low,9.0
486,Low,right,90.0,-0.8332405131661149,0.0,36.0,Low,9.0
487,Low,left,90.0,1.9712973097848212,0.0,37.0,Low,9.0
488,Low,left,90.0,2.0761835227395204,1.0,38.0,Low,9.0
489,Low,right,90.0,1.7845739025787553,0.0,39.0,Low,9.0
490,Low,left,90.0,-1.8517300456288064,0.0,40.0,Low,9.0
491,Low,right,90.0,5.314916168258955,1.0,41.0,Low,9.0
492,Low,left,90.0,3.360338640529026,0.0,42.0,Low,9.0
493,Low,left,90.0,5.458813076959634,0.0,43.0,Low,9.0
494,Low,right,90.0,1.0155323397788052,0.0,44.0,Low,9.0
495,Low,left,90.0,2.6713564224789037,1.0,45.0,Low,9.0
496,Low,right,90.0,-2.3402148858739817,1.0,46.0,Low,9.0
497,Low,right,90.0,7.063347728967942,1.0,47.0,Low,9.0
498,Low,left,90.0,3.2064030554933725,0.0,48.0,Low,9.0
499,Low,right,90.0,3.304724090969864,1.0,49.0,Low,9.0
500,High,right,90.0,2.049630822967596,0.0,0.0,High,10.0
501,High,left,90.0,2.8366708955292355,1.0,1.0,High,10.0
502,High,left,90.0,2.5024266984610946,1.0,2.0,High,10.0
503,High,right,90.0,1.6277368629537627,0.0,3.0,High,10.0
504,High,right,90.0,3.7831497602123125,1.0,4.0,High,10.0
505,High,left,90.0,1.0696664703492775,1.0,5.0,High,10.0
506,High,right,90.0,1.7584318553941034,1.0,6.0,High,10.0
507,High,left,90.0,-0.393702205193877,0.0,7.0,High,10.0
508,High,left,90.0,2.7163977911184225,1.0,8.0,High,10.0
509,High,left,90.0,3.5986365410423318,0.0,9.0,High,10.0
510,High,right,90.0,3.122769284547658,1.0,10.0,High,10.0
511,High,left,90.0,0.7621470012414278,0.0,11.0,High,10.0
512,High,right,90.0,1.6884431656212044,0.0,12.0,High,10.0
513,High,right,90.0,1.999065912466722,0.0,13.0,High,10.0
514,High,right,90.0,4.562452588980599,0.0,14.0,High,10.0
515,High,left,90.0,1.0560669399725793,0.0,15.0,High,10.0
516,High,left,90.0,-0.6579839385289108,1.0,16.0,High,10.0
517,High,left,90.0,0.03215087649666071,0.0,17.0,High,10.0
518,High,right,90.0,1.6928254713034898,1.0,18.0,High,10.0
519,High,right,90.0,1.488090885458047,0.0,19.0,High,10.0
520,High,left,90.0,-0.09418928006922589,1.0,20.0,High,10.0
521,High,left,90.0,-0.5389546505929033,0.0,21.0,High,10.0
522,High,left,90.0,1.7963579695718934,1.0,22.0,High,10.0
523,High,left,90.0,0.04730444677390144,0.0,23.0,High,10.0
524,High,right,90.0,1.1194693306622947,0.0,24.0,High,10.0
525,High,left,90.0,0.7635077107647681,0.0,25.0,High,10.0
526,High,left,90.0,1.1536409150751472,0.0,26.0,High,10.0
527,High,left,90.0,4.284690046439274,0.0,27.0,High,10.0
528,High,left,90.0,1.3346888230385947,1.0,28.0,High,10.0
529,High,right,90.0,2.881666315602174,0.0,29.0,High,10.0
530,High,right,90.0,3.593554098267718,0.0,30.0,High,10.0
531,High,left,90.0,1.8559627877625597,0.0,31.0,High,10.0
532,High,left,90.0,2.693190025503757,0.0,32.0,High,10.0
533,High,left,90.0,2.0928141676563623,0.0,33.0,High,10.0
534,High,right,90.0,-0.25297485821375365,0.0,34.0,High,10.0
535,High,right,90.0,5.081494734409564,0.0,35.0,High,10.0
536,High,left,90.0,4.904935483292709,1.0,36.0,High,10.0
537,High,left,90.0,1.0998571907806818,0.0,37.0,High,10.0
538,High,right,90.0,3.8116516738383606,1.0,38.0,High,10.0
539,High,right,90.0,1.7300790078180381,0.0,39.0,High,10.0
540,High,right,90.0,-4.0695442458037565,0.0,40.0,High,10.0
541,High,left,90.0,2.8836986382688226,1.0,41.0,High,10.0
542,High,right,90.0,2.007335852478958,1.0,42.0,High,10.0
543,High,right,90.0,1.714739122570272,0.0,43.0,High,10.0
544,High,left,90.0,2.894767570781785,0.0,44.0,High,10.0
545,High,right,90.0,2.1555364604724514,1.0,45.0,High,10.0
546,High,left,90.0,-0.9104821363667805,1.0,46.0,High,10.0
547,High,right,90.0,-0.6047545034623305,0.0,47.0,High,10.0
548,High,right,90.0,3.9919373301594328,1.0,48.0,High,10.0
549,High,right,90.0,1.0297840183482752,0.0,49.0,High,10.0
550,Low,right,90.0,4.545809447706976,1.0,0.0,High,11.0
551,Low,right,90.0,-0.7765134395310742,1.0,1.0,High,11.0
552,Low,left,90.0,3.1463047304523086,1.0,2.0,High,11.0
553,Low,left,90.0,-0.9002157562313091,1.0,3.0,High,11.0
554,Low,right,90.0,1.6930476350128032,1.0,4.0,High,11.0
555,Low,left,90.0,4.30216945753089,0.0,5.0,High,11.0
556,Low,left,90.0,3.6271903235002965,0.0,6.0,High,11.0
557,Low,left,90.0,1.7825325918326818,0.0,7.0,High,11.0
558,Low,left,90.0,2.6482665313626184,0.0,8.0,High,11.0
559,Low,left,90.0,-1.6272643499410215,0.0,9.0,High,11.0
560,Low,left,90.0,-1.0321415774349543,0.0,10.0,High,11.0
561,Low,left,90.0,2.805275107604545,0.0,11.0,High,11.0
562,Low,left,90.0,2.53761869057623,1.0,12.0,High,11.0
563,Low,left,90.0,4.201145605644789,0.0,13.0,High,11.0
564,Low,left,90.0,1.3139363062547975,0.0,14.0,High,11.0
565,Low,left,90.0,1.8103516128982697,0.0,15.0,High,11.0
566,Low,right,90.0,-0.8570002016451939,0.0,16.0,High,11.0
567,Low,right,90.0,0.7524001756569141,1.0,17.0,High,11.0
568,Low,left,90.0,4.013918771533015,0.0,18.0,High,11.0
569,Low,left,90.0,1.348070742879425,0.0,19.0,High,11.0
570,Low,left,90.0,0.025744509158973194,0.0,20.0,High,11.0
571,Low,right,90.0,0.6498827064330112,0.0,21.0,High,11.0
572,Low,left,90.0,2.4195830208103555,0.0,22.0,High,11.0
573,Low,right,90.0,4.262107623419657,1.0,23.0,High,11.0
574,Low,left,90.0,0.8321971149172878,0.0,24.0,High,11.0
575,Low,left,90.0,2.6407132266189985,1.0,25.0,High,11.0
576,Low,left,90.0,-0.8522188674861451,0.0,26.0,High,11.0
577,Low,right,90.0,7.043835293193604,1.0,27.0,High,11.0
578,Low,left,90.0,2.879478304621475,0.0,28.0,High,11.0
579,Low,left,90.0,3.6217009098720494,1.0,29.0,High,11.0
580,Low,left,90.0,2.8841943033107906,0.0,30.0,High,11.0
581,Low,right,90.0,5.72761817400784,0.0,31.0,High,11.0
582,Low,left,90.0,3.3375012173804683,1.0,32.0,High,11.0
583,Low,right,90.0,0.9864047631824522,0.0,33.0,High,11.0
584,Low,right,90.0,0.44721240363715364,0.0,34.0,High,11.0
585,Low,left,90.0,0.9491591028256027,1.0,35.0,High,11.0
586,Low,left,90.0,-0.6005941152670871,0.0,36.0,High,11.0
587,Low,right,90.0,6.085734742681363,1.0,37.0,High,11.0
588,Low,right,90.0,3.047154430051385,0.0,38.0,High,11.0
589,Low,right,90.0,1.4266477019391768,0.0,39.0,High,11.0
590,Low,right,90.0,-3.118149566787462,0.0,40.0,High,11.0
591,Low,right,90.0,-2.885691772532249,0.0,41.0,High,11.0
592,Low,right,90.0,2.298070816492166,1.0,42.0,High,11.0
593,Low,left,90.0,-0.820507039711694,0.0,43.0,High,11.0
594,Low,left,90.0,3.7362273290820935,0.0,44.0,High,11.0
595,Low,right,90.0,1.6091667738987185,0.0,45.0,High,11.0
596,Low,right,90.0,4.42059713897998,1.0,46.0,High,11.0
597,Low,left,90.0,3.0818858076679128,1.0,47.0,High,11.0
598,Low,left,90.0,4.151781817072104,0.0,48.0,High,11.0
599,Low,right,90.0,4.219585489417545,1.0,49.0,High,11.0
