,Arousal,KeyPressed,LearningTime,RT,Response,TrialNumber,Valence,nBlock
0,High,right,30.0,0.9923527586404473,1.0,0.0,Low,0.0
1,High,left,30.0,1.8135668841055141,1.0,1.0,Low,0.0
2,High,left,30.0,0.2521225428705052,0.0,2.0,Low,0.0
3,High,left,30.0,3.7957316566187664,0.0,3.0,Low,0.0
4,High,left,30.0,1.6744807167818914,0.0,4.0,Low,0.0
5,High,left,30.0,2.4924660042489575,1.0,5.0,Low,0.0
6,High,left,30.0,1.5768373794566246,0.0,6.0,Low,0.0
7,High,right,30.0,3.2616571254713693,1.0,7.0,Low,0.0
8,High,right,30.0,-1.5659175545683643,0.0,8.0,Low,0.0
9,High,right,30.0,-0.8033793102878164,1.0,9.0,Low,0.0
10,High,right,30.0,-1.6674529804962739,0.0,10.0,Low,0.0
11,High,left,30.0,1.8302071363377574,0.0,11.0,Low,0.0
12,High,right,30.0,1.8274456485062995,1.0,12.0,Low,0.0
13,High,right,30.0,4.4876499130842795,1.0,13.0,Low,0.0
14,High,right,30.0,0.6820034859077309,1.0,14.0,Low,0.0
15,High,left,30.0,-0.5890558445880112,1.0,15.0,Low,0.0
16,High,left,30.0,3.874105687251217,1.0,16.0,Low,0.0
17,High,left,30.0,2.80744831367325,0.0,17.0,Low,0.0
18,High,right,30.0,2.088494060887827,0.0,18.0,Low,0.0
19,High,right,30.0,5.131567184109833,1.0,19.0,Low,0.0
20,High,left,30.0,3.074787828755886,1.0,20.0,Low,0.0
21,High,left,30.0,0.429642300358984,0.0,21.0,Low,0.0
22,High,left,30.0,-0.0034786073921730942,0.0,22.0,Low,0.0
23,High,right,30.0,2.319417800986278,0.0,23.0,Low,0.0
24,High,right,30.0,2.3583677654001773,0.0,24.0,Low,0.0
25,High,right,30.0,4.532798601366671,0.0,25.0,Low,0.0
26,High,right,30.0,3.5529664670179786,0.0,26.0,Low,0.0
27,High,left,30.0,2.961368789258182,0.0,27.0,Low,0.0
28,High,left,30.0,-0.1356842156703677,1.0,28.0,Low,0.0
29,High,left,30.0,0.8753749797133878,0.0,29.0,Low,0.0
30,High,right,30.0,2.747583944590348,1.0,30.0,Low,0.0
31,High,right,30.0,2.5984388837850227,0.0,31.0,Low,0.0
32,High,right,30.0,1.5861495929314104,0.0,32.0,Low,0.0
33,High,right,30.0,0.6690775126573858,0.0,33.0,Low,0.0
34,High,left,30.0,3.6130631407698868,0.0,34.0,Low,0.0
35,High,right,30.0,2.297817498737044,0.0,35.0,Low,0.0
36,High,left,30.0,2.1756231604318454,1.0,36.0,Low,0.0
37,High,left,30.0,1.1679632262674793,1.0,37.0,Low,0.0
38,High,right,30.0,0.1873359809530668,0.0,38.0,Low,0.0
39,High,left,30.0,2.651169980106121,1.0,39.0,Low,0.0
40,High,right,30.0,1.8841922571212493,1.0,40.0,Low,0.0
41,High,left,30.0,1.7034283515331452,1.0,41.0,Low,0.0
42,High,left,30.0,4.4683759418135995,1.0,42.0,Low,0.0
43,High,left,30.0,2.41784777118755,1.0,43.0,Low,0.0
44,High,left,30.0,5.141738168029054,0.0,44.0,Low,0.0
45,High,right,30.0,3.8251070828559968,0.0,45.0,Low,0.0
46,High,right,30.0,0.4331197249530594,0.0,46.0,Low,0.0
47,High,left,30.0,3.020379564786504,0.0,47.0,Low,0.0
48,High,left,30.0,5.673013398263726,0.0,48.0,Low,0.0
49,High,left,30.0,-2.451096885780072,0.0,49.0,Low,0.0
50,Low,right,30.0,4.437725889405588,1.0,0.0,Low,1.0
51,Low,right,30.0,0.27572415901486336,0.0,1.0,Low,1.0
52,Low,left,30.0,1.628445555585305,1.0,2.0,Low,1.0
53,Low,left,30.0,3.8804295436467946,0.0,3.0,Low,1.0
54,Low,right,30.0,0.9916372956673412,1.0,4.0,Low,1.0
55,Low,left,30.0,4.225095451916563,0.0,5.0,Low,1.0
56,Low,right,30.0,-0.283145819239347,1.0,6.0,Low,1.0
57,Low,right,30.0,0.29813210125128964,0.0,7.0,Low,1.0
58,Low,right,30.0,1.3951072046832556,1.0,8.0,Low,1.0
59,Low,right,30.0,3.852551320776724,1.0,9.0,Low,1.0
60,Low,right,30.0,3.0297990679678684,1.0,10.0,Low,1.0
61,Low,left,30.0,3.371343840457185,0.0,11.0,Low,1.0
62,Low,left,30.0,0.4870338954833482,1.0,12.0,Low,1.0
63,Low,right,30.0,6.089697989031222,1.0,13.0,Low,1.0
64,Low,right,30.0,0.48325317728575,0.0,14.0,Low,1.0
65,Low,right,30.0,0.11285134381069617,1.0,15.0,Low,1.0
66,Low,left,30.0,3.2664636397904134,1.0,16.0,Low,1.0
67,Low,left,30.0,1.7241573684074774,0.0,17.0,Low,1.0
68,Low,right,30.0,-0.7510505214561625,1.0,18.0,Low,1.0
69,Low,left,30.0,2.4027535043099055,1.0,19.0,Low,1.0
70,Low,left,30.0,1.7100929678616075,1.0,20.0,Low,1.0
71,Low,right,30.0,5.7319025406407,1.0,21.0,Low,1.0
72,Low,left,30.0,3.925347113735608,1.0,22.0,Low,1.0
73,Low,right,30.0,1.9142047961704098,1.0,23.0,Low,1.0
74,Low,right,30.0,1.863316105285413,1.0,24.0,Low,1.0
75,Low,right,30.0,1.060463281679837,1.0,25.0,Low,1.0
76,Low,left,30.0,-1.822331875425254,1.0,26.0,Low,1.0
77,Low,right,30.0,3.5956982796100236,0.0,27.0,Low,1.0
78,Low,left,30.0,0.34885828575001354,1.0,28.0,Low,1.0
79,Low,right,30.0,0.2867841179232695,1.0,29.0,Low,1.0
80,Low,left,30.0,0.7728751483709464,1.0,30.0,Low,1.0
81,Low,right,30.0,2.173248729399145,0.0,31.0,Low,1.0
82,Low,right,30.0,2.9132334604334247,1.0,32.0,Low,1.0
83,Low,right,30.0,2.0701035091370703,1.0,33.0,Low,1.0
84,Low,right,30.0,4.154578517724907,0.0,34.0,Low,1.0
85,Low,left,30.0,3.3775294791657595,1.0,35.0,Low,1.0
86,Low,left,30.0,1.3882559932118967,1.0,36.0,Low,1.0
87,Low,left,30.0,2.927013615693152,0.0,37.0,Low,1.0
88,Low,left,30.0,0.31795348791272904,0.0,38.0,Low,1.0
89,Low,right,30.0,0.6364069228880078,1.0,39.0,Low,1.0
90,Low,left,30.0,2.380332874457441,0.0,40.0,Low,1.0
91,Low,left,30.0,0.9563208396562912,1.0,41.0,Low,1.0
92,Low,left,30.0,2.470249366889729,1.0,42.0,Low,1.0
93,Low,left,30.0,3.7247972651591503,0.0,43.0,Low,1.0
94,Low,right,30.0,2.6494624234923014,0.0,44.0,Low,1.0
95,Low,left,30.0,3.249690715424503,0.0,45.0,Low,1.0
96,Low,right,30.0,4.777369906320935,1.0,46.0,Low,1.0
97,Low,right,30.0,2.594765858491128,0.0,47.0,Low,1.0
98,Low,left,30.0,1.1554686006478654,0.0,48.0,Low,1.0
99,Low,left,30.0,2.635952302127607,1.0,49.0,Low,1.0
100,High,right,60.0,3.6809193063576657,0.0,0.0,Low,2.0
101,High,right,60.0,3.168753994237006,1.0,1.0,Low,2.0
102,High,right,60.0,2.0696106214155505,0.0,2.0,Low,2.0
103,High,left,60.0,0.3883600108530638,0.0,3.0,Low,2.0
104,High,right,60.0,-1.7045337497459812,0.0,4.0,Low,2.0
105,High,left,60.0,4.054894133462081,0.0,5.0,Low,2.0
106,High,left,60.0,1.8182940428563836,0.0,6.0,Low,2.0
107,High,right,60.0,-0.2822072047280688,1.0,7.0,Low,2.0
108,High,left,60.0,2.9149470902211716,0.0,8.0,Low,2.0
109,High,right,60.0,1.9417007720921582,1.0,9.0,Low,2.0
110,High,right,60.0,-0.7986722907290922,0.0,10.0,Low,2.0
111,High,right,60.0,1.8826048822179684,0.0,11.0,Low,2.0
112,High,right,60.0,-0.7087718826362199,1.0,12.0,Low,2.0
113,High,right,60.0,-0.8971231289989929,1.0,13.0,Low,2.0
114,High,left,60.0,2.113204373103912,0.0,14.0,Low,2.0
115,High,left,60.0,-1.2529553959425073,1.0,15.0,Low,2.0
116,High,right,60.0,0.35486932659503223,1.0,16.0,Low,2.0
117,High,left,60.0,3.6939645593155896,1.0,17.0,Low,2.0
118,High,right,60.0,-2.6980752748646384,0.0,18.0,Low,2.0
119,High,left,60.0,2.3496869620197947,0.0,19.0,Low,2.0
120,High,left,60.0,0.9936753023220037,0.0,20.0,Low,2.0
121,High,left,60.0,3.9510396648064203,0.0,21.0,Low,2.0
122,High,right,60.0,4.4666471923776125,0.0,22.0,Low,2.0
123,High,left,60.0,2.1119061890674047,1.0,23.0,Low,2.0
124,High,right,60.0,3.202965923182779,1.0,24.0,Low,2.0
125,High,right,60.0,4.467709441414155,1.0,25.0,Low,2.0
126,High,right,60.0,1.2148069623162587,1.0,26.0,Low,2.0
127,High,right,60.0,2.549939448624236,1.0,27.0,Low,2.0
128,High,left,60.0,1.2026760287071783,0.0,28.0,Low,2.0
129,High,right,60.0,-2.0642458040056675,0.0,29.0,Low,2.0
130,High,left,60.0,2.245345677982416,1.0,30.0,Low,2.0
131,High,left,60.0,1.7420001708881707,0.0,31.0,Low,2.0
132,High,right,60.0,4.493213338818604,1.0,32.0,Low,2.0
133,High,left,60.0,-0.6908021331967027,0.0,33.0,Low,2.0
134,High,right,60.0,6.3214902980972445,1.0,34.0,Low,2.0
135,High,right,60.0,1.8284090606426864,1.0,35.0,Low,2.0
136,High,right,60.0,5.35940006733215,1.0,36.0,Low,2.0
137,High,left,60.0,0.6268292682808747,1.0,37.0,Low,2.0
138,High,right,60.0,-0.2637614597181801,0.0,38.0,Low,2.0
139,High,right,60.0,5.001995600668987,1.0,39.0,Low,2.0
140,High,right,60.0,2.382730443147604,1.0,40.0,Low,2.0
141,High,right,60.0,3.151440742651678,1.0,41.0,Low,2.0
142,High,left,60.0,2.732934739786186,1.0,42.0,Low,2.0
143,High,right,60.0,1.5181593230015722,1.0,43.0,Low,2.0
144,High,left,60.0,3.8129050425493904,0.0,44.0,Low,2.0
145,High,left,60.0,5.374563387665145,1.0,45.0,Low,2.0
146,High,right,60.0,3.499022124939493,0.0,46.0,Low,2.0
147,High,right,60.0,3.314259488616419,1.0,47.0,Low,2.0
148,High,right,60.0,-0.2070526710196221,1.0,48.0,Low,2.0
149,High,right,60.0,0.021107194258870088,0.0,49.0,Low,2.0
150,Low,left,30.0,2.443661752030144,1.0,0.0,High,3.0
151,Low,right,30.0,1.5595721860247296,0.0,1.0,High,3.0
152,Low,left,30.0,2.081751527903204,0.0,2.0,High,3.0
153,Low,right,30.0,0.30499288454274254,1.0,3.0,High,3.0
154,Low,right,30.0,4.0365259677725085,0.0,4.0,High,3.0
155,Low,right,30.0,0.739968727617252,0.0,5.0,High,3.0
156,Low,right,30.0,2.870219878743532,1.0,6.0,High,3.0
157,Low,left,30.0,6.365512641918626,0.0,7.0,High,3.0
158,Low,right,30.0,0.5510468572629483,1.0,8.0,High,3.0
159,Low,left,30.0,2.6675914920309047,1.0,9.0,High,3.0
160,Low,right,30.0,0.6554047350400576,1.0,10.0,High,3.0
161,Low,left,30.0,0.38637958141516004,0.0,11.0,High,3.0
162,Low,left,30.0,1.181975111468523,1.0,12.0,High,3.0
163,Low,right,30.0,5.273383090784213,1.0,13.0,High,3.0
164,Low,right,30.0,3.4215234841321336,1.0,14.0,High,3.0
165,Low,left,30.0,0.35761700030120025,0.0,15.0,High,3.0
166,Low,left,30.0,0.19055239197719898,0.0,16.0,High,3.0
167,Low,right,30.0,1.490828062296691,1.0,17.0,High,3.0
168,Low,left,30.0,2.6281098900485516,1.0,18.0,High,3.0
169,Low,left,30.0,1.0815340289463096,0.0,19.0,High,3.0
170,Low,left,30.0,4.6617238266152485,0.0,20.0,High,3.0
171,Low,right,30.0,2.386356179356144,1.0,21.0,High,3.0
172,Low,right,30.0,3.4079486802127157,1.0,22.0,High,3.0
173,Low,right,30.0,3.3206019990308073,0.0,23.0,High,3.0
174,Low,left,30.0,3.6391696080415294,1.0,24.0,High,3.0
175,Low,left,30.0,1.7582246329912747,0.0,25.0,High,3.0
176,Low,right,30.0,0.017148253077690967,0.0,26.0,High,3.0
177,Low,left,30.0,6.152556733225094,0.0,27.0,High,3.0
178,Low,right,30.0,3.3883255370009833,0.0,28.0,High,3.0
179,Low,left,30.0,-0.0943280935680586,0.0,29.0,High,3.0
180,Low,left,30.0,3.4595803755624077,0.0,30.0,High,3.0
181,Low,right,30.0,3.896223699715142,1.0,31.0,High,3.0
182,Low,right,30.0,6.402763198540798,1.0,32.0,High,3.0
183,Low,left,30.0,3.860885217484265,1.0,33.0,High,3.0
184,Low,left,30.0,0.1326355945980201,0.0,34.0,High,3.0
185,Low,right,30.0,2.8932373172197434,1.0,35.0,High,3.0
186,Low,right,30.0,3.43489221545205,0.0,36.0,High,3.0
187,Low,right,30.0,0.7563186950522076,1.0,37.0,High,3.0
188,Low,right,30.0,5.382360476420958,1.0,38.0,High,3.0
189,Low,left,30.0,4.5363873807817905,0.0,39.0,High,3.0
190,Low,right,30.0,1.9815154009546494,1.0,40.0,High,3.0
191,Low,right,30.0,2.802683418025965,0.0,41.0,High,3.0
192,Low,left,30.0,3.261878294229603,0.0,42.0,High,3.0
193,Low,right,30.0,4.6788229385060625,0.0,43.0,High,3.0
194,Low,right,30.0,-0.1523434575732372,1.0,44.0,High,3.0
195,Low,left,30.0,3.3674141669196715,1.0,45.0,High,3.0
196,Low,left,30.0,4.233117364936004,1.0,46.0,High,3.0
197,Low,left,30.0,1.8832121428252167,1.0,47.0,High,3.0
198,Low,right,30.0,-0.4577844610693558,0.0,48.0,High,3.0
199,Low,left,30.0,1.253478063477908,1.0,49.0,High,3.0
200,High,left,30.0,2.9660377616615823,0.0,0.0,High,4.0
201,High,right,30.0,4.07467344899875,1.0,1.0,High,4.0
202,High,right,30.0,0.38153165361027885,0.0,2.0,High,4.0
203,High,left,30.0,2.421405519985995,1.0,3.0,High,4.0
204,High,right,30.0,3.9816610531658427,1.0,4.0,High,4.0
205,High,right,30.0,2.6887377402386465,1.0,5.0,High,4.0
206,High,right,30.0,1.8646305411127313,1.0,6.0,High,4.0
207,High,right,30.0,1.6571320351261125,1.0,7.0,High,4.0
208,High,left,30.0,5.021050025737848,1.0,8.0,High,4.0
209,High,left,30.0,1.6289029606553023,0.0,9.0,High,4.0
210,High,left,30.0,3.0242277279709353,1.0,10.0,High,4.0
211,High,right,30.0,3.9992643689145773,0.0,11.0,High,4.0
212,High,right,30.0,4.053643996733433,1.0,12.0,High,4.0
213,High,left,30.0,-5.986859723119064,1.0,13.0,High,4.0
214,High,right,30.0,4.442967448517344,0.0,14.0,High,4.0
215,High,right,30.0,0.4427793081268856,1.0,15.0,High,4.0
216,High,left,30.0,0.2661235046877687,1.0,16.0,High,4.0
217,High,right,30.0,-0.821377764266118,0.0,17.0,High,4.0
218,High,left,30.0,5.535280791788832,1.0,18.0,High,4.0
219,High,left,30.0,1.627137643905916,0.0,19.0,High,4.0
220,High,right,30.0,4.2754222963128825,0.0,20.0,High,4.0
221,High,left,30.0,1.9002618236274529,0.0,21.0,High,4.0
222,High,right,30.0,2.759445720380892,1.0,22.0,High,4.0
223,High,right,30.0,1.716970308277427,1.0,23.0,High,4.0
224,High,left,30.0,8.017632124731263,1.0,24.0,High,4.0
225,High,right,30.0,3.491240242372332,0.0,25.0,High,4.0
226,High,right,30.0,1.0858973436778547,0.0,26.0,High,4.0
227,High,left,30.0,3.580692075014232,1.0,27.0,High,4.0
228,High,left,30.0,1.3272146539336616,1.0,28.0,High,4.0
229,High,left,30.0,1.1898245194730852,0.0,29.0,High,4.0
230,High,left,30.0,2.277055074652291,1.0,30.0,High,4.0
231,High,left,30.0,1.644121504802769,0.0,31.0,High,4.0
232,High,right,30.0,1.8124847371967276,0.0,32.0,High,4.0
233,High,right,30.0,2.2082362480638387,1.0,33.0,High,4.0
234,High,right,30.0,-1.7445634033813668,0.0,34.0,High,4.0
235,High,right,30.0,-0.8260700156205458,0.0,35.0,High,4.0
236,High,right,30.0,1.3797683790751027,1.0,36.0,High,4.0
237,High,right,30.0,4.148873498948186,0.0,37.0,High,4.0
238,High,right,30.0,0.8410259390803783,1.0,38.0,High,4.0
239,High,left,30.0,3.227968227044102,0.0,39.0,High,4.0
240,High,left,30.0,1.8182532582676019,1.0,40.0,High,4.0
241,High,right,30.0,-0.8368917967195579,1.0,41.0,High,4.0
242,High,left,30.0,-0.10033447845687493,0.0,42.0,High,4.0
243,High,left,30.0,2.006585442368659,0.0,43.0,High,4.0
244,High,left,30.0,0.3160583500107216,1.0,44.0,High,4.0
245,High,left,30.0,3.7865165409164776,0.0,45.0,High,4.0
246,High,right,30.0,1.9710553981576218,1.0,46.0,High,4.0
247,High,right,30.0,4.163243600985634,0.0,47.0,High,4.0
248,High,right,30.0,3.6148977433231484,1.0,48.0,High,4.0
249,High,right,30.0,1.7075948920300656,1.0,49.0,High,4.0
250,Low,right,60.0,3.295258701898849,1.0,0.0,High,5.0
251,Low,left,60.0,-0.34311094746664517,0.0,1.0,High,5.0
252,Low,left,60.0,-1.255853526788682,1.0,2.0,High,5.0
253,Low,left,60.0,2.374414612934931,0.0,3.0,High,5.0
254,Low,left,60.0,2.9136336063224784,1.0,4.0,High,5.0
255,Low,left,60.0,2.8746235512393414,0.0,5.0,High,5.0
256,Low,left,60.0,2.003300225097911,0.0,6.0,High,5.0
257,Low,right,60.0,1.4360415778566349,0.0,7.0,High,5.0
258,Low,right,60.0,4.3309310079595065,0.0,8.0,High,5.0
259,Low,right,60.0,3.071868433825995,1.0,9.0,High,5.0
260,Low,right,60.0,2.1746139021429705,0.0,10.0,High,5.0
261,Low,left,60.0,-0.31634153671057863,1.0,11.0,High,5.0
262,Low,left,60.0,-0.2498064729615499,1.0,12.0,High,5.0
263,Low,right,60.0,1.4042233672143176,1.0,13.0,High,5.0
264,Low,left,60.0,0.4566040687012942,0.0,14.0,High,5.0
265,Low,left,60.0,3.267474993022766,0.0,15.0,High,5.0
266,Low,left,60.0,1.8496728479646047,1.0,16.0,High,5.0
267,Low,left,60.0,4.570402894415961,1.0,17.0,High,5.0
268,Low,left,60.0,-0.3943853574061662,0.0,18.0,High,5.0
269,Low,right,60.0,2.6393323817731935,1.0,19.0,High,5.0
270,Low,left,60.0,1.429042946691026,1.0,20.0,High,5.0
271,Low,right,60.0,1.7134975254791043,0.0,21.0,High,5.0
272,Low,left,60.0,-0.1658459359313813,0.0,22.0,High,5.0
273,Low,left,60.0,1.8963755744679676,1.0,23.0,High,5.0
274,Low,right,60.0,4.989173894717706,0.0,24.0,High,5.0
275,Low,right,60.0,5.0342272438997355,1.0,25.0,High,5.0
276,Low,right,60.0,4.163616569791898,0.0,26.0,High,5.0
277,Low,right,60.0,0.030404792917055,1.0,27.0,High,5.0
278,Low,right,60.0,-0.5002750466691293,1.0,28.0,High,5.0
279,Low,left,60.0,0.06874135634609169,0.0,29.0,High,5.0
280,Low,left,60.0,0.07635262465172166,1.0,30.0,High,5.0
281,Low,left,60.0,-1.2796175099212386,0.0,31.0,High,5.0
282,Low,left,60.0,-0.2195717496260945,0.0,32.0,High,5.0
283,Low,right,60.0,2.7934193560615848,1.0,33.0,High,5.0
284,Low,left,60.0,2.6626304241047403,1.0,34.0,High,5.0
285,Low,left,60.0,3.7253273099839834,0.0,35.0,High,5.0
286,Low,left,60.0,2.7015165160768353,0.0,36.0,High,5.0
287,Low,left,60.0,-4.009049412171397,1.0,37.0,High,5.0
288,Low,right,60.0,3.2040439010686796,1.0,38.0,High,5.0
289,Low,right,60.0,2.2539244297038525,1.0,39.0,High,5.0
290,Low,right,60.0,2.564040014922923,1.0,40.0,High,5.0
291,Low,right,60.0,5.734820048490409,0.0,41.0,High,5.0
292,Low,right,60.0,1.9305789972861471,1.0,42.0,High,5.0
293,Low,left,60.0,-0.5243117921761145,0.0,43.0,High,5.0
294,Low,right,60.0,-0.05813088435266289,1.0,44.0,High,5.0
295,Low,left,60.0,2.470476248491784,0.0,45.0,High,5.0
296,Low,left,60.0,4.487470494165143,1.0,46.0,High,5.0
297,Low,left,60.0,-0.05028619821644886,0.0,47.0,High,5.0
298,Low,left,60.0,1.0901938518530685,0.0,48.0,High,5.0
299,Low,right,60.0,3.0826665349256994,0.0,49.0,High,5.0
300,High,left,60.0,0.761884456018664,0.0,0.0,High,6.0
301,High,right,60.0,-2.445507799642506,0.0,1.0,High,6.0
302,High,left,60.0,0.3421675397831516,0.0,2.0,High,6.0
303,High,left,60.0,-2.2876173902822927,1.0,3.0,High,6.0
304,High,right,60.0,1.2180078248490742,0.0,4.0,High,6.0
305,High,left,60.0,0.6745883373211319,1.0,5.0,High,6.0
306,High,right,60.0,4.1309211118512295,0.0,6.0,High,6.0
307,High,left,60.0,0.48408965534378745,0.0,7.0,High,6.0
308,High,left,60.0,2.870759464450828,1.0,8.0,High,6.0
309,High,right,60.0,4.84755572306615,1.0,9.0,High,6.0
310,High,left,60.0,2.3660794115320702,1.0,10.0,High,6.0
311,High,right,60.0,1.5378024059090099,1.0,11.0,High,6.0
312,High,right,60.0,-1.9873472800416367,1.0,12.0,High,6.0
313,High,right,60.0,2.6029612780725033,1.0,13.0,High,6.0
314,High,right,60.0,2.795957632560256,0.0,14.0,High,6.0
315,High,right,60.0,4.157161255236579,0.0,15.0,High,6.0
316,High,right,60.0,1.3113719891004734,0.0,16.0,High,6.0
317,High,left,60.0,2.6378221465631837,1.0,17.0,High,6.0
318,High,right,60.0,-0.34928352682620156,0.0,18.0,High,6.0
319,High,right,60.0,3.1597611384640265,1.0,19.0,High,6.0
320,High,left,60.0,1.9628651906048833,1.0,20.0,High,6.0
321,High,right,60.0,0.49719399314479684,1.0,21.0,High,6.0
322,High,right,60.0,0.02022081112323293,0.0,22.0,High,6.0
323,High,right,60.0,4.811874793937109,0.0,23.0,High,6.0
324,High,right,60.0,4.735828539938353,1.0,24.0,High,6.0
325,High,right,60.0,3.378325564322114,1.0,25.0,High,6.0
326,High,left,60.0,0.5921190860502838,0.0,26.0,High,6.0
327,High,right,60.0,3.159686598708573,0.0,27.0,High,6.0
328,High,left,60.0,1.553508202653489,0.0,28.0,High,6.0
329,High,left,60.0,-1.973138796806737,1.0,29.0,High,6.0
330,High,right,60.0,1.6643831426425912,0.0,30.0,High,6.0
331,High,right,60.0,-1.5448105511702956,0.0,31.0,High,6.0
332,High,left,60.0,6.6174712578820545,1.0,32.0,High,6.0
333,High,left,60.0,0.9085726808839419,0.0,33.0,High,6.0
334,High,left,60.0,5.1397867671231685,1.0,34.0,High,6.0
335,High,left,60.0,1.6705587498320718,0.0,35.0,High,6.0
336,High,right,60.0,2.422178961547697,1.0,36.0,High,6.0
337,High,right,60.0,2.3841298240100204,1.0,37.0,High,6.0
338,High,left,60.0,0.9368808993389588,1.0,38.0,High,6.0
339,High,left,60.0,2.213980496223424,1.0,39.0,High,6.0
340,High,left,60.0,3.4522654289634644,1.0,40.0,High,6.0
341,High,left,60.0,2.810277526594401,1.0,41.0,High,6.0
342,High,right,60.0,-2.6311978078434213,1.0,42.0,High,6.0
343,High,right,60.0,2.862748768481236,0.0,43.0,High,6.0
344,High,left,60.0,4.807136982607004,0.0,44.0,High,6.0
345,High,right,60.0,3.151379363762765,1.0,45.0,High,6.0
346,High,right,60.0,-0.03296798560618042,0.0,46.0,High,6.0
347,High,left,60.0,-0.7673840590382683,1.0,47.0,High,6.0
348,High,right,60.0,2.4807232946204705,0.0,48.0,High,6.0
349,High,left,60.0,2.8503492590633996,0.0,49.0,High,6.0
350,Low,right,90.0,2.694645334723543,1.0,0.0,High,7.0
351,Low,left,90.0,-0.3003290977732953,1.0,1.0,High,7.0
352,Low,left,90.0,-3.322363547167156,0.0,2.0,High,7.0
353,Low,left,90.0,3.569287961145754,1.0,3.0,High,7.0
354,Low,left,90.0,5.878415708495698,1.0,4.0,High,7.0
355,Low,right,90.0,-4.375584727875964,1.0,5.0,High,7.0
356,Low,right,90.0,2.6003124708999503,1.0,6.0,High,7.0
357,Low,right,90.0,0.680232710264036,0.0,7.0,High,7.0
358,Low,right,90.0,-1.748038217579802,0.0,8.0,High,7.0
359,Low,right,90.0,4.840179498358909,0.0,9.0,High,7.0
360,Low,right,90.0,2.9515386087720152,1.0,10.0,High,7.0
361,Low,left,90.0,0.611138757026171,0.0,11.0,High,7.0
362,Low,right,90.0,4.7009111591912465,0.0,12.0,High,7.0
363,Low,right,90.0,5.018184689536961,1.0,13.0,High,7.0
364,Low,left,90.0,5.454550771944,0.0,14.0,High,7.0
365,Low,right,90.0,2.7849860161079896,0.0,15.0,High,7.0
366,Low,left,90.0,4.833001567910715,1.0,16.0,High,7.0
367,Low,right,90.0,-2.3677016887289586,0.0,17.0,High,7.0
368,Low,right,90.0,0.1697828272908155,1.0,18.0,High,7.0
369,Low,right,90.0,3.601046511455651,1.0,19.0,High,7.0
370,Low,left,90.0,1.1653335112456504,1.0,20.0,High,7.0
371,Low,left,90.0,3.2695442558880066,1.0,21.0,High,7.0
372,Low,right,90.0,3.2768572158583877,1.0,22.0,High,7.0
373,Low,right,90.0,0.5647591378515805,1.0,23.0,High,7.0
374,Low,right,90.0,0.8320342974604782,0.0,24.0,High,7.0
375,Low,right,90.0,2.0228684576491562,1.0,25.0,High,7.0
376,Low,right,90.0,1.8008877596738582,0.0,26.0,High,7.0
377,Low,left,90.0,3.6503234399130604,1.0,27.0,High,7.0
378,Low,right,90.0,5.324213010981473,1.0,28.0,High,7.0
379,Low,left,90.0,2.5462361036955823,1.0,29.0,High,7.0
380,Low,right,90.0,-1.3046369990555768,0.0,30.0,High,7.0
381,Low,right,90.0,6.240521050126721,1.0,31.0,High,7.0
382,Low,right,90.0,2.529494872994212,0.0,32.0,High,7.0
383,Low,right,90.0,6.436738087016766,1.0,33.0,High,7.0
384,Low,left,90.0,2.3108370453788734,0.0,34.0,High,7.0
385,Low,left,90.0,2.1529185717950337,0.0,35.0,High,7.0
386,Low,left,90.0,-0.45758727139151034,1.0,36.0,High,7.0
387,Low,right,90.0,2.8136553093123378,1.0,37.0,High,7.0
388,Low,right,90.0,5.376093409974526,1.0,38.0,High,7.0
389,Low,left,90.0,1.6891550076304285,0.0,39.0,High,7.0
390,Low,right,90.0,4.483211887621948,1.0,40.0,High,7.0
391,Low,left,90.0,2.447462758815733,1.0,41.0,High,7.0
392,Low,right,90.0,0.8575783268493937,0.0,42.0,High,7.0
393,Low,right,90.0,2.029201224145389,0.0,43.0,High,7.0
394,Low,right,90.0,1.6239801615536416,0.0,44.0,High,7.0
395,Low,left,90.0,0.3290569655131721,1.0,45.0,High,7.0
396,Low,left,90.0,3.9450445999163435,1.0,46.0,High,7.0
397,Low,left,90.0,4.856597951356142,1.0,47.0,High,7.0
398,Low,left,90.0,1.1183190035995676,1.0,48.0,High,7.0
399,Low,right,90.0,1.4378908755512105,0.0,49.0,High,7.0
400,High,left,90.0,3.652095568407751,0.0,0.0,Low,8.0
401,High,right,90.0,2.4148681947014197,1.0,1.0,Low,8.0
402,High,left,90.0,2.4919898346560387,1.0,2.0,Low,8.0
403,High,left,90.0,2.9146376704470205,1.0,3.0,Low,8.0
404,High,left,90.0,-0.05434147587770255,0.0,4.0,Low,8.0
405,High,left,90.0,3.2916216594972627,0.0,5.0,Low,8.0
406,High,left,90.0,6.180101909186567,1.0,6.0,Low,8.0
407,High,left,90.0,4.550505362939198,0.0,7.0,Low,8.0
408,High,right,90.0,0.08482568041115468,0.0,8.0,Low,8.0
409,High,left,90.0,0.9723854735843356,0.0,9.0,Low,8.0
410,High,right,90.0,5.1166452898232535,0.0,10.0,Low,8.0
411,High,left,90.0,1.4595369845847013,0.0,11.0,Low,8.0
412,High,right,90.0,0.4067802953854982,0.0,12.0,Low,8.0
413,High,left,90.0,2.5367466313389757,1.0,13.0,Low,8.0
414,High,right,90.0,2.414598063715042,0.0,14.0,Low,8.0
415,High,right,90.0,5.592978898869333,0.0,15.0,Low,8.0
416,High,right,90.0,3.193838408605778,0.0,16.0,Low,8.0
417,High,left,90.0,4.7256751830308446,0.0,17.0,Low,8.0
418,High,right,90.0,0.48666307245358587,1.0,18.0,Low,8.0
419,High,right,90.0,0.9011466122551628,1.0,19.0,Low,8.0
420,High,left,90.0,3.7238910257683946,0.0,20.0,Low,8.0
421,High,left,90.0,2.13181584015904,1.0,21.0,Low,8.0
422,High,left,90.0,0.2013119141745512,1.0,22.0,Low,8.0
423,High,right,90.0,2.442698409068759,0.0,23.0,Low,8.0
424,High,left,90.0,4.586514363151931,1.0,24.0,Low,8.0
425,High,left,90.0,4.002989158908225,0.0,25.0,Low,8.0
426,High,left,90.0,3.090273950245283,0.0,26.0,Low,8.0
427,High,left,90.0,3.3100795898657998,0.0,27.0,Low,8.0
428,High,right,90.0,1.5383873947273758,0.0,28.0,Low,8.0
429,High,left,90.0,0.7257672660135269,1.0,29.0,Low,8.0
430,High,right,90.0,1.1352428025371872,0.0,30.0,Low,8.0
431,High,left,90.0,3.9257894653547796,1.0,31.0,Low,8.0
432,High,right,90.0,6.304562852736699,0.0,32.0,Low,8.0
433,High,left,90.0,-0.7890041262542395,0.0,33.0,Low,8.0
434,High,right,90.0,-0.1412883608944555,1.0,34.0,Low,8.0
435,High,right,90.0,0.4073101312993267,1.0,35.0,Low,8.0
436,High,left,90.0,-1.7673686198830891,1.0,36.0,Low,8.0
437,High,left,90.0,-0.6472674816951216,0.0,37.0,Low,8.0
438,High,right,90.0,1.948896681044389,1.0,38.0,Low,8.0
439,High,right,90.0,0.17896737072064095,0.0,39.0,Low,8.0
440,High,right,90.0,-1.3412744889487511,1.0,40.0,Low,8.0
441,High,left,90.0,-0.07130059987607451,0.0,41.0,Low,8.0
442,High,left,90.0,4.314566628954127,1.0,42.0,Low,8.0
443,High,right,90.0,4.446672820495128,0.0,43.0,Low,8.0
444,High,right,90.0,3.1450551532399595,0.0,44.0,Low,8.0
445,High,left,90.0,2.3702868537935267,0.0,45.0,Low,8.0
446,High,left,90.0,-1.7976977410639603,1.0,46.0,Low,8.0
447,High,right,90.0,1.7688341283456628,0.0,47.0,Low,8.0
448,High,right,90.0,4.033159905568324,0.0,48.0,Low,8.0
449,High,left,90.0,-1.102136573076789,0.0,49.0,Low,8.0
450,Low,right,60.0,1.1738914890397947,1.0,0.0,Low,9.0
451,Low,right,60.0,5.128112419405239,1.0,1.0,Low,9.0
452,Low,right,60.0,2.3382305266267083,0.0,2.0,Low,9.0
453,Low,left,60.0,0.9541158331292532,0.0,3.0,Low,9.0
454,Low,right,60.0,1.4913818517543902,1.0,4.0,Low,9.0
455,Low,left,60.0,1.436480579000505,0.0,5.0,Low,9.0
456,Low,left,60.0,2.22317392981513,1.0,6.0,Low,9.0
457,Low,right,60.0,1.275011686915133,0.0,7.0,Low,9.0
458,Low,left,60.0,1.5714145382033562,0.0,8.0,Low,9.0
459,Low,right,60.0,0.517863476013115,0.0,9.0,Low,9.0
460,Low,left,60.0,0.655007049860675,1.0,10.0,Low,9.0
461,Low,right,60.0,3.587299642406606,0.0,11.0,Low,9.0
462,Low,left,60.0,1.0610148515023567,0.0,12.0,Low,9.0
463,Low,left,60.0,2.977943526879695,1.0,13.0,Low,9.0
464,Low,right,60.0,2.0328195670900255,0.0,14.0,Low,9.0
465,Low,right,60.0,0.3217892012573886,0.0,15.0,Low,9.0
466,Low,left,60.0,1.1780863293356654,0.0,16.0,Low,9.0
467,Low,left,60.0,3.219925301967254,0.0,17.0,Low,9.0
468,Low,left,60.0,3.0543521387091155,0.0,18.0,Low,9.0
469,Low,left,60.0,1.4209262486431982,1.0,19.0,Low,9.0
470,Low,left,60.0,0.3657187161178663,1.0,20.0,Low,9.0
471,Low,left,60.0,4.318339988106985,1.0,21.0,Low,9.0
472,Low,left,60.0,2.9015097330939303,1.0,22.0,Low,9.0
473,Low,right,60.0,2.848601220002283,0.0,23.0,Low,9.0
474,Low,right,60.0,1.61869569153103,1.0,24.0,Low,9.0
475,Low,left,60.0,0.5959624477189687,1.0,25.0,Low,9.0
476,Low,left,60.0,3.1040681064893256,1.0,26.0,Low,9.0
477,Low,left,60.0,1.7215670426432281,1.0,27.0,Low,9.0
478,Low,left,60.0,2.4334784481489278,0.0,28.0,Low,9.0
479,Low,right,60.0,-0.4263753790756466,0.0,29.0,Low,9.0
480,Low,right,60.0,0.8519891690154052,1.0,30.0,Low,9.0
481,Low,left,60.0,1.0403245707301796,0.0,31.0,Low,9.0
482,Low,right,60.0,2.5314319926714464,0.0,32.0,Low,9.0
483,Low,right,60.0,3.401734458690038,0.0,33.0,Low,9.0
484,Low,left,60.0,-3.6964308798023153,0.0,34.0,Low,9.0
485,Low,right,60.0,-0.4131902962165377,1.0,35.0,Low,9.0
486,Low,right,60.0,2.587885836291248,1.0,36.0,Low,9.0
487,Low,left,60.0,2.995585527045215,1.0,37.0,Low,9.0
488,Low,left,60.0,0.7324368667528638,1.0,38.0,Low,9.0
489,Low,right,60.0,3.412940992728042,0.0,39.0,Low,9.0
490,Low,right,60.0,1.5611556955887018,1.0,40.0,Low,9.0
491,Low,right,60.0,4.840309920720972,0.0,41.0,Low,9.0
492,Low,right,60.0,5.739308934488398,1.0,42.0,Low,9.0
493,Low,right,60.0,2.0270255490036644,1.0,43.0,Low,9.0
494,Low,left,60.0,0.17153007628541395,0.0,44.0,Low,9.0
495,Low,left,60.0,2.2514179408562347,1.0,45.0,Low,9.0
496,Low,right,60.0,5.564968597038087,1.0,46.0,Low,9.0
497,Low,left,60.0,2.686472361237311,0.0,47.0,Low,9.0
498,Low,right,60.0,1.3582460735759605,1.0,48.0,Low,9.0
499,Low,right,60.0,3.25030607927009,0.0,49.0,Low,9.0
500,High,left,90.0,0.8073553246254563,0.0,0.0,High,10.0
501,High,left,90.0,0.38587706298825897,0.0,1.0,High,10.0
502,High,right,90.0,2.800093015833191,1.0,2.0,High,10.0
503,High,left,90.0,4.26526707969515,1.0,3.0,High,10.0
504,High,right,90.0,2.413216184257477,1.0,4.0,High,10.0
505,High,right,90.0,1.5501379855578372,0.0,5.0,High,10.0
506,High,right,90.0,3.4840439727248174,1.0,6.0,High,10.0
507,High,right,90.0,1.5700586487309531,1.0,7.0,High,10.0
508,High,right,90.0,4.086862874226121,1.0,8.0,High,10.0
509,High,left,90.0,3.6846839416724837,1.0,9.0,High,10.0
510,High,left,90.0,1.192676349566781,0.0,10.0,High,10.0
511,High,left,90.0,-2.3284251616515133,1.0,11.0,High,10.0
512,High,right,90.0,4.4838093619040436,1.0,12.0,High,10.0
513,High,left,90.0,0.35317813419688004,0.0,13.0,High,10.0
514,High,left,90.0,4.930157749618565,0.0,14.0,High,10.0
515,High,left,90.0,5.800001820242342,1.0,15.0,High,10.0
516,High,right,90.0,3.4225376824293416,1.0,16.0,High,10.0
517,High,left,90.0,4.017899592263465,1.0,17.0,High,10.0
518,High,left,90.0,0.4835889528883941,0.0,18.0,High,10.0
519,High,right,90.0,0.44016453223142693,1.0,19.0,High,10.0
520,High,left,90.0,2.699355751604621,0.0,20.0,High,10.0
521,High,right,90.0,3.3723922494094647,1.0,21.0,High,10.0
522,High,right,90.0,-0.8085915357024143,0.0,22.0,High,10.0
523,High,right,90.0,3.6546354444154474,0.0,23.0,High,10.0
524,High,left,90.0,1.4990343753860949,1.0,24.0,High,10.0
525,High,left,90.0,-1.6159911707523702,0.0,25.0,High,10.0
526,High,right,90.0,0.538456838334481,1.0,26.0,High,10.0
527,High,right,90.0,4.059396293523138,0.0,27.0,High,10.0
528,High,left,90.0,1.7632294373520963,1.0,28.0,High,10.0
529,High,left,90.0,1.4277026404573534,0.0,29.0,High,10.0
530,High,right,90.0,2.5889704920877605,0.0,30.0,High,10.0
531,High,right,90.0,2.999139786760158,1.0,31.0,High,10.0
532,High,right,90.0,1.281645025410822,1.0,32.0,High,10.0
533,High,right,90.0,-1.319626129623006,1.0,33.0,High,10.0
534,High,left,90.0,0.9994448406432865,1.0,34.0,High,10.0
535,High,left,90.0,-0.3757911810152632,0.0,35.0,High,10.0
536,High,right,90.0,3.0482763205762504,0.0,36.0,High,10.0
537,High,right,90.0,0.593800177851509,0.0,37.0,High,10.0
538,High,left,90.0,3.651130867511718,1.0,38.0,High,10.0
539,High,left,90.0,0.40421297110039944,1.0,39.0,High,10.0
540,High,right,90.0,1.6814189112196232,0.0,40.0,High,10.0
541,High,left,90.0,4.809616878028943,1.0,41.0,High,10.0
542,High,left,90.0,-0.22772601599509135,1.0,42.0,High,10.0
543,High,left,90.0,1.8496834318368824,0.0,43.0,High,10.0
544,High,left,90.0,1.2088808973362697,0.0,44.0,High,10.0
545,High,left,90.0,0.49627725910619036,0.0,45.0,High,10.0
546,High,left,90.0,5.03546777176885,0.0,46.0,High,10.0
547,High,left,90.0,4.774636814198756,0.0,47.0,High,10.0
548,High,left,90.0,-0.2137843984243042,1.0,48.0,High,10.0
549,High,left,90.0,0.8157029925070554,0.0,49.0,High,10.0
550,Low,right,90.0,1.167330221347167,0.0,0.0,Low,11.0
551,Low,left,90.0,1.9144903368832495,0.0,1.0,Low,11.0
552,Low,left,90.0,3.864640799299657,0.0,2.0,Low,11.0
553,Low,right,90.0,2.4687549282075993,0.0,3.0,Low,11.0
554,Low,right,90.0,3.002135075910677,1.0,4.0,Low,11.0
555,Low,right,90.0,1.758932610410644,0.0,5.0,Low,11.0
556,Low,right,90.0,4.9519948572386605,0.0,6.0,Low,11.0
557,Low,left,90.0,5.366744183597556,1.0,7.0,Low,11.0
558,Low,left,90.0,1.993720329727482,1.0,8.0,Low,11.0
559,Low,right,90.0,3.618529778963758,1.0,9.0,Low,11.0
560,Low,right,90.0,1.9029986330607378,0.0,10.0,Low,11.0
561,Low,right,90.0,-0.5467040750830305,0.0,11.0,Low,11.0
562,Low,right,90.0,0.7323877547627505,0.0,12.0,Low,11.0
563,Low,right,90.0,4.473243075607144,0.0,13.0,Low,11.0
564,Low,right,90.0,1.2792194674473025,0.0,14.0,Low,11.0
565,Low,left,90.0,1.8074750417264918,1.0,15.0,Low,11.0
566,Low,left,90.0,-1.1167916410908145,1.0,16.0,Low,11.0
567,Low,left,90.0,3.801597520935718,1.0,17.0,Low,11.0
568,Low,left,90.0,-2.2633445845876823,0.0,18.0,Low,11.0
569,Low,right,90.0,2.2691424354451053,1.0,19.0,Low,11.0
570,Low,left,90.0,0.789425248104318,0.0,20.0,Low,11.0
571,Low,left,90.0,1.336435233152365,0.0,21.0,Low,11.0
572,Low,right,90.0,-0.537863449685164,0.0,22.0,Low,11.0
573,Low,left,90.0,2.4557225719721947,1.0,23.0,Low,11.0
574,Low,left,90.0,-1.8133618919841559,1.0,24.0,Low,11.0
575,Low,right,90.0,-0.1921858956166771,1.0,25.0,Low,11.0
576,Low,right,90.0,2.117685927802006,0.0,26.0,Low,11.0
577,Low,right,90.0,1.482619519268312,1.0,27.0,Low,11.0
578,Low,right,90.0,3.089538788733172,1.0,28.0,Low,11.0
579,Low,left,90.0,1.001530488895809,0.0,29.0,Low,11.0
580,Low,right,90.0,1.2950277834756692,0.0,30.0,Low,11.0
581,Low,right,90.0,0.11542174037399433,0.0,31.0,Low,11.0
582,Low,left,90.0,3.700434572219679,0.0,32.0,Low,11.0
583,Low,right,90.0,2.6362759408075327,1.0,33.0,Low,11.0
584,Low,left,90.0,-1.4356616697747466,0.0,34.0,Low,11.0
585,Low,right,90.0,-1.8689870931313497,1.0,35.0,Low,11.0
586,Low,left,90.0,1.58704063436873,0.0,36.0,Low,11.0
587,Low,left,90.0,2.0217830264040457,1.0,37.0,Low,11.0
588,Low,right,90.0,1.3803649885154359,1.0,38.0,Low,11.0
589,Low,right,90.0,1.1166119957766973,1.0,39.0,Low,11.0
590,Low,right,90.0,4.398487148690251,0.0,40.0,Low,11.0
591,Low,right,90.0,4.454682830414045,1.0,41.0,Low,11.0
592,Low,right,90.0,2.8195083118753783,0.0,42.0,Low,11.0
593,Low,right,90.0,-0.9716990622407351,1.0,43.0,Low,11.0
594,Low,left,90.0,-0.3081062162579258,0.0,44.0,Low,11.0
595,Low,left,90.0,-0.18790429486993276,0.0,45.0,Low,11.0
596,Low,left,90.0,1.8895331467200636,1.0,46.0,Low,11.0
597,Low,left,90.0,2.550854368742043,1.0,47.0,Low,11.0
598,Low,right,90.0,2.527673288423131,0.0,48.0,Low,11.0
599,Low,right,90.0,1.6911162396404344,1.0,49.0,Low,11.0
