,Arousal,KeyPressed,LearningTime,RT,Response,TrialNumber,Valence,nBlock
0,High,right,30.0,2.4657302903259657,0.0,0.0,Low,0.0
1,High,right,30.0,7.139886971412418,0.0,1.0,Low,0.0
2,High,left,30.0,-0.704094105440086,0.0,2.0,Low,0.0
3,High,right,30.0,1.2605670634870763,0.0,3.0,Low,0.0
4,High,right,30.0,1.5050577040486597,0.0,4.0,Low,0.0
5,High,right,30.0,0.7783028557083524,1.0,5.0,Low,0.0
6,High,left,30.0,2.814862859358147,0.0,6.0,Low,0.0
7,High,left,30.0,1.6724532376063626,0.0,7.0,Low,0.0
8,High,left,30.0,-0.6521743222769043,1.0,8.0,Low,0.0
9,High,left,30.0,4.9000311141948165,1.0,9.0,Low,0.0
10,High,left,30.0,5.485328231558306,0.0,10.0,Low,0.0
11,High,left,30.0,4.826883845296738,1.0,11.0,Low,0.0
12,High,left,30.0,2.0570150551349915,1.0,12.0,Low,0.0
13,High,right,30.0,6.00416074299258,0.0,13.0,Low,0.0
14,High,right,30.0,1.2970738449631882,0.0,14.0,Low,0.0
15,High,right,30.0,2.2525083612514183,0.0,15.0,Low,0.0
16,High,left,30.0,0.19259394953846365,0.0,16.0,Low,0.0
17,High,right,30.0,2.1842307158413883,1.0,17.0,Low,0.0
18,High,left,30.0,1.2483378433283991,1.0,18.0,Low,0.0
19,High,left,30.0,-0.02818168865511317,1.0,19.0,Low,0.0
20,High,left,30.0,3.2764362863743157,1.0,20.0,Low,0.0
21,High,left,30.0,0.3271854252804185,1.0,21.0,Low,0.0
22,High,left,30.0,-2.346353213809141,1.0,22.0,Low,0.0
23,High,right,30.0,-1.9996314133860706,0.0,23.0,Low,0.0
24,High,left,30.0,-0.511637638672815,0.0,24.0,Low,0.0
25,High,right,30.0,-0.8700150656944132,0.0,25.0,Low,0.0
26,High,left,30.0,2.869948300320144,1.0,26.0,Low,0.0
27,High,right,30.0,0.8472543013519466,1.0,27.0,Low,0.0
28,High,right,30.0,4.24708705126653,1.0,28.0,Low,0.0
29,High,left,30.0,0.6958475054947899,1.0,29.0,Low,0.0
30,High,left,30.0,2.63209960630808,1.0,30.0,Low,0.0
31,High,left,30.0,2.473274065288958,0.0,31.0,Low,0.0
32,High,right,30.0,1.774492108034131,0.0,32.0,Low,0.0
33,High,right,30.0,6.988700221924638,1.0,33.0,Low,0.0
34,High,right,30.0,0.9032758979950791,0.0,34.0,Low,0.0
35,High,right,30.0,3.0446549662905222,1.0,35.0,Low,0.0
36,High,right,30.0,3.166858879110242,0.0,36.0,Low,0.0
37,High,right,30.0,0.29785478822512546,0.0,37.0,Low,0.0
38,High,left,30.0,-0.4959792385701758,1.0,38.0,Low,0.0
39,High,right,30.0,3.1805224348522887,1.0,39.0,Low,0.0
40,High,left,30.0,2.166210238224095,1.0,40.0,Low,0.0
41,High,right,30.0,3.8132134414782195,1.0,41.0,Low,0.0
42,High,right,30.0,-0.5114807300883113,0.0,42.0,Low,0.0
43,High,right,30.0,1.5759334622118377,0.0,43.0,Low,0.0
44,High,right,30.0,2.1171439484226453,1.0,44.0,Low,0.0
45,High,right,30.0,0.458221493086858,0.0,45.0,Low,0.0
46,High,left,30.0,2.4277682156121383,1.0,46.0,Low,0.0
47,High,right,30.0,-0.29662347671473155,0.0,47.0,Low,0.0
48,High,right,30.0,-0.13153958186905257,0.0,48.0,Low,0.0
49,High,right,30.0,3.2739903505402626,0.0,49.0,Low,0.0
50,Low,right,30.0,3.8075222047343997,1.0,0.0,Low,1.0
51,Low,right,30.0,2.745774330408131,1.0,1.0,Low,1.0
52,Low,left,30.0,2.6562460383393662,0.0,2.0,Low,1.0
53,Low,left,30.0,-0.4009733834692981,1.0,3.0,Low,1.0
54,Low,left,30.0,1.0988126806611005,0.0,4.0,Low,1.0
55,Low,right,30.0,3.4350521841517843,1.0,5.0,Low,1.0
56,Low,right,30.0,-0.8137266969912349,0.0,6.0,Low,1.0
57,Low,right,30.0,3.2905669848890784,1.0,7.0,Low,1.0
58,Low,right,30.0,3.139784375702419,0.0,8.0,Low,1.0
59,Low,left,30.0,3.6555632697127685,1.0,9.0,Low,1.0
60,Low,left,30.0,5.90933746829047,1.0,10.0,Low,1.0
61,Low,right,30.0,2.606557567962751,0.0,11.0,Low,1.0
62,Low,right,30.0,2.613539386832519,0.0,12.0,Low,1.0
63,Low,right,30.0,-1.8897687031925374,0.0,13.0,Low,1.0
64,Low,right,30.0,2.370501601020329,0.0,14.0,Low,1.0
65,Low,right,30.0,0.06267870687912769,1.0,15.0,Low,1.0
66,Low,right,30.0,0.41094578055479225,0.0,16.0,Low,1.0
67,Low,right,30.0,3.752877019007978,0.0,17.0,Low,1.0
68,Low,left,30.0,-1.3392004882341038,1.0,18.0,Low,1.0
69,Low,left,30.0,3.304112357546744,1.0,19.0,Low,1.0
70,Low,left,30.0,1.2707176165340648,0.0,20.0,Low,1.0
71,Low,left,30.0,3.1238301898517156,1.0,21.0,Low,1.0
72,Low,left,30.0,2.8455430354252056,1.0,22.0,Low,1.0
73,Low,right,30.0,0.8501617115843865,1.0,23.0,Low,1.0
74,Low,right,30.0,1.1400383499399913,0.0,24.0,Low,1.0
75,Low,right,30.0,2.2691377678513374,1.0,25.0,Low,1.0
76,Low,left,30.0,1.2342000143027163,1.0,26.0,Low,1.0
77,Low,right,30.0,2.157518577282433,1.0,27.0,Low,1.0
78,Low,right,30.0,-1.2265975050664806,0.0,28.0,Low,1.0
79,Low,left,30.0,3.0892693609563713,0.0,29.0,Low,1.0
80,Low,left,30.0,3.9376440055583153,1.0,30.0,Low,1.0
81,Low,right,30.0,2.150580768941999,1.0,31.0,Low,1.0
82,Low,left,30.0,1.3060291263030694,1.0,32.0,Low,1.0
83,Low,left,30.0,1.0242999468169063,1.0,33.0,Low,1.0
84,Low,right,30.0,-0.8454313405234748,0.0,34.0,Low,1.0
85,Low,left,30.0,4.326698651198261,0.0,35.0,Low,1.0
86,Low,right,30.0,1.2349439721146194,1.0,36.0,Low,1.0
87,Low,right,30.0,0.5992076748075656,1.0,37.0,Low,1.0
88,Low,right,30.0,3.3004624342026316,0.0,38.0,Low,1.0
89,Low,right,30.0,3.53465047578723,0.0,39.0,Low,1.0
90,Low,right,30.0,5.442061402980048,1.0,40.0,Low,1.0
91,Low,right,30.0,3.050498381982664,0.0,41.0,Low,1.0
92,Low,right,30.0,2.3013324146722836,1.0,42.0,Low,1.0
93,Low,right,30.0,-0.9915501530403141,0.0,43.0,Low,1.0
94,Low,right,30.0,2.3335978845052217,1.0,44.0,Low,1.0
95,Low,right,30.0,1.2203026258423928,1.0,45.0,Low,1.0
96,Low,left,30.0,0.06809146714115899,0.0,46.0,Low,1.0
97,Low,left,30.0,4.168928806724745,0.0,47.0,Low,1.0
98,Low,left,30.0,1.5270433989629049,0.0,48.0,Low,1.0
99,Low,left,30.0,1.7601314550669687,0.0,49.0,Low,1.0
100,High,right,30.0,3.508163410000156,1.0,0.0,High,2.0
101,High,left,30.0,-0.44133306168272957,1.0,1.0,High,2.0
102,High,right,30.0,1.7667013070222155,0.0,2.0,High,2.0
103,High,right,30.0,6.081120823246012,0.0,3.0,High,2.0
104,High,right,30.0,0.7842612523356637,0.0,4.0,High,2.0
105,High,left,30.0,2.8830005575244684,0.0,5.0,High,2.0
106,High,right,30.0,3.6830661794091473,0.0,6.0,High,2.0
107,High,left,30.0,1.5248486830045977,1.0,7.0,High,2.0
108,High,right,30.0,-0.20260078700089235,1.0,8.0,High,2.0
109,High,right,30.0,0.47470577494806987,0.0,9.0,High,2.0
110,High,left,30.0,-0.6018652805431115,0.0,10.0,High,2.0
111,High,right,30.0,-0.480967403619756,1.0,11.0,High,2.0
112,High,left,30.0,2.4375889095551018,0.0,12.0,High,2.0
113,High,right,30.0,0.5215577434340517,0.0,13.0,High,2.0
114,High,right,30.0,1.6175560601173986,0.0,14.0,High,2.0
115,High,left,30.0,2.911932834028179,0.0,15.0,High,2.0
116,High,left,30.0,5.977695778325487,1.0,16.0,High,2.0
117,High,right,30.0,3.0846574423243993,1.0,17.0,High,2.0
118,High,right,30.0,3.193559750323156,0.0,18.0,High,2.0
119,High,right,30.0,6.419598337089247,1.0,19.0,High,2.0
120,High,right,30.0,7.367310904169769,0.0,20.0,High,2.0
121,High,right,30.0,0.266418786352576,1.0,21.0,High,2.0
122,High,left,30.0,3.798418194587263,0.0,22.0,High,2.0
123,High,left,30.0,3.6360515420362343,0.0,23.0,High,2.0
124,High,right,30.0,4.3948339465695145,1.0,24.0,High,2.0
125,High,left,30.0,0.08507002358221061,0.0,25.0,High,2.0
126,High,left,30.0,2.1446840772204494,0.0,26.0,High,2.0
127,High,right,30.0,1.4249974165703525,1.0,27.0,High,2.0
128,High,right,30.0,3.0519067372165063,0.0,28.0,High,2.0
129,High,left,30.0,3.1866417368874385,0.0,29.0,High,2.0
130,High,left,30.0,-0.4898528934052777,0.0,30.0,High,2.0
131,High,right,30.0,0.7399714578002484,1.0,31.0,High,2.0
132,High,left,30.0,2.5877242017412048,0.0,32.0,High,2.0
133,High,left,30.0,1.5579093274494873,0.0,33.0,High,2.0
134,High,left,30.0,-0.21182429271049896,1.0,34.0,High,2.0
135,High,left,30.0,0.3641979800212023,0.0,35.0,High,2.0
136,High,left,30.0,5.285971544055749,1.0,36.0,High,2.0
137,High,right,30.0,0.6791351441794152,1.0,37.0,High,2.0
138,High,left,30.0,0.5641470852815333,1.0,38.0,High,2.0
139,High,left,30.0,0.4847110247833082,0.0,39.0,High,2.0
140,High,left,30.0,0.47836933052696384,0.0,40.0,High,2.0
141,High,left,30.0,1.575917914724104,0.0,41.0,High,2.0
142,High,left,30.0,3.0278094691742106,1.0,42.0,High,2.0
143,High,right,30.0,-0.7043412401247902,0.0,43.0,High,2.0
144,High,right,30.0,4.417587224973596,1.0,44.0,High,2.0
145,High,right,30.0,1.8091020256342674,1.0,45.0,High,2.0
146,High,left,30.0,-0.1793997912291505,0.0,46.0,High,2.0
147,High,right,30.0,3.9818926275798097,0.0,47.0,High,2.0
148,High,right,30.0,2.6096228968377417,0.0,48.0,High,2.0
149,High,left,30.0,2.3745863749198435,0.0,49.0,High,2.0
150,Low,right,30.0,0.5647655947385528,0.0,0.0,High,3.0
151,Low,right,30.0,3.06847735253701,1.0,1.0,High,3.0
152,Low,left,30.0,5.9783884600872295,1.0,2.0,High,3.0
153,Low,left,30.0,4.429670667363958,0.0,3.0,High,3.0
154,Low,left,30.0,-1.3414347393055692,1.0,4.0,High,3.0
155,Low,right,30.0,1.410911976418138,0.0,5.0,High,3.0
156,Low,right,30.0,2.545635457157299,1.0,6.0,High,3.0
157,Low,left,30.0,2.2175419641488885,0.0,7.0,High,3.0
158,Low,right,30.0,1.6884365590176211,0.0,8.0,High,3.0
159,Low,right,30.0,5.4530342122094995,1.0,9.0,High,3.0
160,Low,right,30.0,2.453790710319593,0.0,10.0,High,3.0
161,Low,left,30.0,0.16976197626231837,1.0,11.0,High,3.0
162,Low,right,30.0,-0.3711943790591645,1.0,12.0,High,3.0
163,Low,right,30.0,-1.489657637412944,1.0,13.0,High,3.0
164,Low,right,30.0,-0.09063868419760546,1.0,14.0,High,3.0
165,Low,right,30.0,0.9716973576749399,1.0,15.0,High,3.0
166,Low,right,30.0,1.258504273790405,0.0,16.0,High,3.0
167,Low,left,30.0,2.3191979093493424,0.0,17.0,High,3.0
168,Low,left,30.0,1.252673928704152,0.0,18.0,High,3.0
169,Low,left,30.0,2.7501522573512576,0.0,19.0,High,3.0
170,Low,left,30.0,1.5897620933773746,1.0,20.0,High,3.0
171,Low,right,30.0,-0.286413195487103,1.0,21.0,High,3.0
172,Low,right,30.0,2.572787081329983,0.0,22.0,High,3.0
173,Low,right,30.0,-0.782406332286163,1.0,23.0,High,3.0
174,Low,left,30.0,0.11238544393228622,0.0,24.0,High,3.0
175,Low,left,30.0,4.483860726815281,0.0,25.0,High,3.0
176,Low,right,30.0,3.7164371265731457,0.0,26.0,High,3.0
177,Low,right,30.0,4.182347487355312,0.0,27.0,High,3.0
178,Low,left,30.0,2.6790681567840315,1.0,28.0,High,3.0
179,Low,left,30.0,-1.1498117077020704,0.0,29.0,High,3.0
180,Low,right,30.0,3.0103220630432537,0.0,30.0,High,3.0
181,Low,right,30.0,0.4734222168268911,1.0,31.0,High,3.0
182,Low,right,30.0,3.5761049676605414,1.0,32.0,High,3.0
183,Low,right,30.0,3.1012756484326536,1.0,33.0,High,3.0
184,Low,right,30.0,4.616238319319744,1.0,34.0,High,3.0
185,Low,left,30.0,1.9278034015406735,0.0,35.0,High,3.0
186,Low,right,30.0,2.5817569533801508,1.0,36.0,High,3.0
187,Low,right,30.0,4.212722518423464,1.0,37.0,High,3.0
188,Low,left,30.0,2.467495161821034,1.0,38.0,High,3.0
189,Low,left,30.0,3.335614178455478,0.0,39.0,High,3.0
190,Low,right,30.0,0.3151451400346632,0.0,40.0,High,3.0
191,Low,left,30.0,4.508709129755496,1.0,41.0,High,3.0
192,Low,left,30.0,3.4122561174489814,1.0,42.0,High,3.0
193,Low,left,30.0,2.3455943388573934,0.0,43.0,High,3.0
194,Low,right,30.0,1.8070249830191898,0.0,44.0,High,3.0
195,Low,left,30.0,3.0553277038264373,1.0,45.0,High,3.0
196,Low,left,30.0,2.878905946075152,1.0,46.0,High,3.0
197,Low,right,30.0,3.7300680267756583,0.0,47.0,High,3.0
198,Low,right,30.0,7.018473322552749,0.0,48.0,High,3.0
199,Low,right,30.0,2.4624360487200954,0.0,49.0,High,3.0
200,High,right,60.0,3.29969173136294,0.0,0.0,Low,4.0
201,High,left,60.0,0.3659730375416159,0.0,1.0,Low,4.0
202,High,right,60.0,1.5266138336035886,0.0,2.0,Low,4.0
203,High,left,60.0,3.553608779496489,1.0,3.0,Low,4.0
204,High,left,60.0,2.5578329530325306,1.0,4.0,Low,4.0
205,High,right,60.0,4.3177126230864005,0.0,5.0,Low,4.0
206,High,left,60.0,5.091930296239637,1.0,6.0,Low,4.0
207,High,right,60.0,1.0785099108417207,1.0,7.0,Low,4.0
208,High,left,60.0,-0.7666565208535276,1.0,8.0,Low,4.0
209,High,right,60.0,2.776862321331851,0.0,9.0,Low,4.0
210,High,left,60.0,-1.920129946060074,1.0,10.0,Low,4.0
211,High,left,60.0,2.1732284862135094,1.0,11.0,Low,4.0
212,High,left,60.0,0.11323439374819544,1.0,12.0,Low,4.0
213,High,right,60.0,0.4564157130714672,1.0,13.0,Low,4.0
214,High,right,60.0,3.791277607279756,0.0,14.0,Low,4.0
215,High,left,60.0,4.508103052693472,0.0,15.0,Low,4.0
216,High,left,60.0,0.8363344547817855,1.0,16.0,Low,4.0
217,High,right,60.0,4.9975866179095645,0.0,17.0,Low,4.0
218,High,right,60.0,-1.6098681491709104,0.0,18.0,Low,4.0
219,High,right,60.0,1.100257616816734,1.0,19.0,Low,4.0
220,High,left,60.0,4.02109467351637,1.0,20.0,Low,4.0
221,High,right,60.0,3.018655916305284,1.0,21.0,Low,4.0
222,High,right,60.0,1.8758283848600439,1.0,22.0,Low,4.0
223,High,right,60.0,2.059723652615274,0.0,23.0,Low,4.0
224,High,right,60.0,1.2313148860205234,1.0,24.0,Low,4.0
225,High,left,60.0,2.389015612958617,1.0,25.0,Low,4.0
226,High,right,60.0,5.553879561146298,0.0,26.0,Low,4.0
227,High,left,60.0,4.934052244545487,0.0,27.0,Low,4.0
228,High,right,60.0,-0.6519148335831435,0.0,28.0,Low,4.0
229,High,left,60.0,-0.5759693284177891,0.0,29.0,Low,4.0
230,High,right,60.0,3.680897169615162,0.0,30.0,Low,4.0
231,High,left,60.0,0.5940807605215848,1.0,31.0,Low,4.0
232,High,left,60.0,4.693570247473465,1.0,32.0,Low,4.0
233,High,right,60.0,0.6506423120853322,1.0,33.0,Low,4.0
234,High,left,60.0,3.6103823620949216,0.0,34.0,Low,4.0
235,High,left,60.0,6.150948102987728,0.0,35.0,Low,4.0
236,High,right,60.0,5.532685076127489,1.0,36.0,Low,4.0
237,High,left,60.0,1.2550946909539533,1.0,37.0,Low,4.0
238,High,right,60.0,1.820114068722224,0.0,38.0,Low,4.0
239,High,left,60.0,5.439517203684929,1.0,39.0,Low,4.0
240,High,left,60.0,-0.06440749674290402,1.0,40.0,Low,4.0
241,High,left,60.0,1.0321966501847677,0.0,41.0,Low,4.0
242,High,left,60.0,1.030546569906526,0.0,42.0,Low,4.0
243,High,right,60.0,-0.12624510516769938,0.0,43.0,Low,4.0
244,High,right,60.0,3.2317837384430588,1.0,44.0,Low,4.0
245,High,left,60.0,-1.6830583865378532,0.0,45.0,Low,4.0
246,High,right,60.0,5.154409723089682,1.0,46.0,Low,4.0
247,High,right,60.0,-1.5118627729284038,0.0,47.0,Low,4.0
248,High,right,60.0,3.2638582802962848,0.0,48.0,Low,4.0
249,High,left,60.0,0.4753318008799483,0.0,49.0,Low,4.0
250,Low,left,60.0,0.3963774612022868,0.0,0.0,High,5.0
251,Low,left,60.0,0.1582027838796417,1.0,1.0,High,5.0
252,Low,right,60.0,0.52471715420193,0.0,2.0,High,5.0
253,Low,left,60.0,1.0892716578234907,1.0,3.0,High,5.0
254,Low,left,60.0,3.372863670140905,0.0,4.0,High,5.0
255,Low,left,60.0,0.611162982978321,1.0,5.0,High,5.0
256,Low,left,60.0,0.4092349147601613,0.0,6.0,High,5.0
257,Low,left,60.0,2.546416110217263,1.0,7.0,High,5.0
258,Low,right,60.0,2.716610519335358,0.0,8.0,High,5.0
259,Low,left,60.0,6.3634850760613,1.0,9.0,High,5.0
260,Low,right,60.0,2.5556178767513402,1.0,10.0,High,5.0
261,Low,right,60.0,1.9940555851573563,1.0,11.0,High,5.0
262,Low,right,60.0,-1.9388779534931126,0.0,12.0,High,5.0
263,Low,right,60.0,3.403372816953122,0.0,13.0,High,5.0
264,Low,right,60.0,1.0007294726844362,1.0,14.0,High,5.0
265,Low,left,60.0,3.011595278591109,0.0,15.0,High,5.0
266,Low,left,60.0,-0.6161071054402174,0.0,16.0,High,5.0
267,Low,left,60.0,3.678356660428803,0.0,17.0,High,5.0
268,Low,right,60.0,2.3416877052136646,1.0,18.0,High,5.0
269,Low,right,60.0,2.1077925163839293,0.0,19.0,High,5.0
270,Low,right,60.0,-2.052712783947853,1.0,20.0,High,5.0
271,Low,left,60.0,5.254177639985903,1.0,21.0,High,5.0
272,Low,left,60.0,2.0138181883077633,0.0,22.0,High,5.0
273,Low,left,60.0,3.6285774923776923,0.0,23.0,High,5.0
274,Low,right,60.0,-1.309883268983966,0.0,24.0,High,5.0
275,Low,right,60.0,1.6359735228404282,1.0,25.0,High,5.0
276,Low,right,60.0,7.249824746543142,1.0,26.0,High,5.0
277,Low,right,60.0,1.4107186343515892,1.0,27.0,High,5.0
278,Low,right,60.0,4.277276975183927,0.0,28.0,High,5.0
279,Low,right,60.0,2.6205927728885183,1.0,29.0,High,5.0
280,Low,left,60.0,2.893587223948922,0.0,30.0,High,5.0
281,Low,right,60.0,5.255916380528121,0.0,31.0,High,5.0
282,Low,right,60.0,0.87274117196668,0.0,32.0,High,5.0
283,Low,right,60.0,-0.32901216989533033,1.0,33.0,High,5.0
284,Low,right,60.0,4.0344577239455175,1.0,34.0,High,5.0
285,Low,right,60.0,-0.8729546490809372,0.0,35.0,High,5.0
286,Low,left,60.0,0.6076934696051145,0.0,36.0,High,5.0
287,Low,right,60.0,1.7435067915786877,0.0,37.0,High,5.0
288,Low,right,60.0,1.7128449157987777,0.0,38.0,High,5.0
289,Low,right,60.0,3.0280773264561613,1.0,39.0,High,5.0
290,Low,left,60.0,2.8656389000659273,1.0,40.0,High,5.0
291,Low,left,60.0,3.1875368683282113,1.0,41.0,High,5.0
292,Low,left,60.0,2.1138244105338337,1.0,42.0,High,5.0
293,Low,left,60.0,2.385883303180339,0.0,43.0,High,5.0
294,Low,right,60.0,1.8283399271667828,1.0,44.0,High,5.0
295,Low,right,60.0,0.2027625526514587,0.0,45.0,High,5.0
296,Low,right,60.0,-0.5270710986770011,0.0,46.0,High,5.0
297,Low,left,60.0,3.7993824936849068,0.0,47.0,High,5.0
298,Low,left,60.0,2.066401472048615,1.0,48.0,High,5.0
299,Low,left,60.0,1.7015516410856844,0.0,49.0,High,5.0
300,High,left,60.0,0.8773176203151913,0.0,0.0,High,6.0
301,High,right,60.0,2.889198422683422,0.0,1.0,High,6.0
302,High,left,60.0,1.7058558983310537,1.0,2.0,High,6.0
303,High,left,60.0,1.420054128239273,1.0,3.0,High,6.0
304,High,left,60.0,4.294643220564502,1.0,4.0,High,6.0
305,High,left,60.0,2.16904483625771,1.0,5.0,High,6.0
306,High,left,60.0,2.360056249408692,0.0,6.0,High,6.0
307,High,left,60.0,2.9902495545805974,0.0,7.0,High,6.0
308,High,right,60.0,4.664623255358448,0.0,8.0,High,6.0
309,High,right,60.0,0.740181335801184,0.0,9.0,High,6.0
310,High,right,60.0,1.9277551152021133,1.0,10.0,High,6.0
311,High,right,60.0,1.6502594314007302,1.0,11.0,High,6.0
312,High,right,60.0,3.8155068758549273,0.0,12.0,High,6.0
313,High,left,60.0,3.2255045809317244,1.0,13.0,High,6.0
314,High,left,60.0,1.8602582610021676,0.0,14.0,High,6.0
315,High,right,60.0,3.799309509911505,1.0,15.0,High,6.0
316,High,right,60.0,2.1918082718726972,0.0,16.0,High,6.0
317,High,left,60.0,-0.6210990391676758,1.0,17.0,High,6.0
318,High,right,60.0,2.431959939746161,0.0,18.0,High,6.0
319,High,right,60.0,1.3340607130813755,0.0,19.0,High,6.0
320,High,right,60.0,5.578302855545152,1.0,20.0,High,6.0
321,High,right,60.0,-0.9197814953012506,1.0,21.0,High,6.0
322,High,right,60.0,3.741562675504581,0.0,22.0,High,6.0
323,High,right,60.0,1.7910960643028577,1.0,23.0,High,6.0
324,High,right,60.0,3.187659004042073,0.0,24.0,High,6.0
325,High,right,60.0,2.0038785808525073,1.0,25.0,High,6.0
326,High,left,60.0,2.7741221254362336,1.0,26.0,High,6.0
327,High,left,60.0,0.18858607561372898,0.0,27.0,High,6.0
328,High,left,60.0,3.6963406955855223,1.0,28.0,High,6.0
329,High,right,60.0,0.8977532053778134,0.0,29.0,High,6.0
330,High,right,60.0,1.979170222138627,1.0,30.0,High,6.0
331,High,left,60.0,0.05534866261723104,0.0,31.0,High,6.0
332,High,left,60.0,3.424693044714271,1.0,32.0,High,6.0
333,High,right,60.0,2.1524944888550284,1.0,33.0,High,6.0
334,High,right,60.0,4.130223405249985,1.0,34.0,High,6.0
335,High,left,60.0,1.5767561943550106,0.0,35.0,High,6.0
336,High,right,60.0,2.9690771191802696,0.0,36.0,High,6.0
337,High,left,60.0,1.5813658060098161,1.0,37.0,High,6.0
338,High,left,60.0,0.3996863597068496,1.0,38.0,High,6.0
339,High,left,60.0,2.7799069038387385,0.0,39.0,High,6.0
340,High,left,60.0,1.9373051037750755,0.0,40.0,High,6.0
341,High,left,60.0,-0.25353358018405103,1.0,41.0,High,6.0
342,High,left,60.0,0.5890650560967958,1.0,42.0,High,6.0
343,High,right,60.0,2.458767890266853,0.0,43.0,High,6.0
344,High,left,60.0,1.3852108045847562,0.0,44.0,High,6.0
345,High,left,60.0,2.4675864393547275,0.0,45.0,High,6.0
346,High,right,60.0,4.858474964199427,1.0,46.0,High,6.0
347,High,left,60.0,-0.36963817899424667,0.0,47.0,High,6.0
348,High,right,60.0,3.338481130157735,1.0,48.0,High,6.0
349,High,left,60.0,1.8592204539392192,0.0,49.0,High,6.0
350,Low,right,60.0,1.7909418035790774,1.0,0.0,Low,7.0
351,Low,left,60.0,1.8445311499372292,1.0,1.0,Low,7.0
352,Low,left,60.0,0.9290045873227304,1.0,2.0,Low,7.0
353,Low,right,60.0,0.7512682369539516,1.0,3.0,Low,7.0
354,Low,right,60.0,3.027578649746787,1.0,4.0,Low,7.0
355,Low,left,60.0,2.5526331387053616,0.0,5.0,Low,7.0
356,Low,right,60.0,3.8055416444821546,1.0,6.0,Low,7.0
357,Low,left,60.0,2.6449213471153743,1.0,7.0,Low,7.0
358,Low,left,60.0,4.765219260480819,1.0,8.0,Low,7.0
359,Low,right,60.0,3.7047394756939798,0.0,9.0,Low,7.0
360,Low,right,60.0,-1.9251685501032059,0.0,10.0,Low,7.0
361,Low,right,60.0,3.497037196776128,1.0,11.0,Low,7.0
362,Low,left,60.0,-1.2355733585573936,0.0,12.0,Low,7.0
363,Low,left,60.0,5.4280053831805635,1.0,13.0,Low,7.0
364,Low,left,60.0,0.07165215446357087,0.0,14.0,Low,7.0
365,Low,left,60.0,2.1112751930712017,0.0,15.0,Low,7.0
366,Low,right,60.0,0.4990908354294896,1.0,16.0,Low,7.0
367,Low,left,60.0,2.4083714478662883,1.0,17.0,Low,7.0
368,Low,right,60.0,1.3123055679786433,0.0,18.0,Low,7.0
369,Low,left,60.0,1.8017168125531973,0.0,19.0,Low,7.0
370,Low,right,60.0,0.8634067029399695,0.0,20.0,Low,7.0
371,Low,right,60.0,2.935779154818544,1.0,21.0,Low,7.0
372,Low,right,60.0,2.3958354217555193,0.0,22.0,Low,7.0
373,Low,left,60.0,-2.2646806120572665,1.0,23.0,Low,7.0
374,Low,left,60.0,-0.48002452368414383,1.0,24.0,Low,7.0
375,Low,left,60.0,-1.1734075600223666,1.0,25.0,Low,7.0
376,Low,left,60.0,3.98772877360204,1.0,26.0,Low,7.0
377,Low,left,60.0,-0.6680368372361905,0.0,27.0,Low,7.0
378,Low,right,60.0,1.8389279015868145,0.0,28.0,Low,7.0
379,Low,right,60.0,3.4309428260596717,0.0,29.0,Low,7.0
380,Low,right,60.0,4.454044840085617,0.0,30.0,Low,7.0
381,Low,left,60.0,1.214079554478082,1.0,31.0,Low,7.0
382,Low,left,60.0,0.7534835237742543,0.0,32.0,Low,7.0
383,Low,right,60.0,3.143458899270213,0.0,33.0,Low,7.0
384,Low,right,60.0,1.8307078312974805,1.0,34.0,Low,7.0
385,Low,left,60.0,3.575378635072312,1.0,35.0,Low,7.0
386,Low,left,60.0,2.761489587332587,0.0,36.0,Low,7.0
387,Low,left,60.0,4.388918219423443,1.0,37.0,Low,7.0
388,Low,left,60.0,0.3302818082742691,1.0,38.0,Low,7.0
389,Low,left,60.0,2.0432383647434627,1.0,39.0,Low,7.0
390,Low,left,60.0,1.4271220556995683,1.0,40.0,Low,7.0
391,Low,left,60.0,3.512659429812963,1.0,41.0,Low,7.0
392,Low,left,60.0,0.9049691522095167,0.0,42.0,Low,7.0
393,Low,right,60.0,4.311327082830975,1.0,43.0,Low,7.0
394,Low,left,60.0,-0.09160200698283627,1.0,44.0,Low,7.0
395,Low,right,60.0,2.5911843106495462,0.0,45.0,Low,7.0
396,Low,left,60.0,-0.7051616376778982,0.0,46.0,Low,7.0
397,Low,right,60.0,5.039120050104978,1.0,47.0,Low,7.0
398,Low,left,60.0,3.347339709213369,0.0,48.0,Low,7.0
399,Low,right,60.0,0.34163941083224714,0.0,49.0,Low,7.0
400,High,right,90.0,2.1717595812244284,1.0,0.0,High,8.0
401,High,right,90.0,2.0885216287956347,1.0,1.0,High,8.0
402,High,right,90.0,4.590719365783899,0.0,2.0,High,8.0
403,High,right,90.0,-0.5631911447604496,0.0,3.0,High,8.0
404,High,left,90.0,2.263737813343699,1.0,4.0,High,8.0
405,High,left,90.0,5.182660895791221,0.0,5.0,High,8.0
406,High,left,90.0,-0.21092685490148888,0.0,6.0,High,8.0
407,High,right,90.0,4.950864152335475,1.0,7.0,High,8.0
408,High,left,90.0,4.354377535120458,0.0,8.0,High,8.0
409,High,right,90.0,1.799737768342347,0.0,9.0,High,8.0
410,High,left,90.0,2.527154096861614,0.0,10.0,High,8.0
411,High,right,90.0,4.983241567505761,1.0,11.0,High,8.0
412,High,right,90.0,2.9260263002897284,1.0,12.0,High,8.0
413,High,right,90.0,-2.750874414505277,1.0,13.0,High,8.0
414,High,left,90.0,1.9632389122699805,0.0,14.0,High,8.0
415,High,right,90.0,3.7206807110008935,0.0,15.0,High,8.0
416,High,right,90.0,5.254614155537202,0.0,16.0,High,8.0
417,High,left,90.0,4.121745719373445,0.0,17.0,High,8.0
418,High,left,90.0,0.6513949047708136,1.0,18.0,High,8.0
419,High,left,90.0,2.112537913987723,0.0,19.0,High,8.0
420,High,right,90.0,-0.9945503197080896,1.0,20.0,High,8.0
421,High,right,90.0,2.1851596089125964,1.0,21.0,High,8.0
422,High,left,90.0,4.91987359021736,0.0,22.0,High,8.0
423,High,right,90.0,-0.47806209055164417,1.0,23.0,High,8.0
424,High,right,90.0,0.0026182085365404895,0.0,24.0,High,8.0
425,High,right,90.0,0.40610872755989025,1.0,25.0,High,8.0
426,High,left,90.0,0.9040400084926228,1.0,26.0,High,8.0
427,High,right,90.0,2.418188034169366,0.0,27.0,High,8.0
428,High,right,90.0,2.7778384691993674,0.0,28.0,High,8.0
429,High,right,90.0,-0.8227230987820993,1.0,29.0,High,8.0
430,High,right,90.0,1.1801707070892131,1.0,30.0,High,8.0
431,High,left,90.0,0.24519118752889502,0.0,31.0,High,8.0
432,High,left,90.0,1.7972836722992516,1.0,32.0,High,8.0
433,High,left,90.0,6.8624314116575045,1.0,33.0,High,8.0
434,High,left,90.0,-0.7516186106686042,0.0,34.0,High,8.0
435,High,left,90.0,2.146938759215321,1.0,35.0,High,8.0
436,High,left,90.0,-0.06720186830044161,1.0,36.0,High,8.0
437,High,right,90.0,1.538311099110073,0.0,37.0,High,8.0
438,High,right,90.0,3.117463129160616,1.0,38.0,High,8.0
439,High,left,90.0,-2.70974532346497,0.0,39.0,High,8.0
440,High,left,90.0,1.1536099291394852,0.0,40.0,High,8.0
441,High,left,90.0,5.81486305771423,0.0,41.0,High,8.0
442,High,left,90.0,3.941310055378868,0.0,42.0,High,8.0
443,High,right,90.0,3.5505156536252827,0.0,43.0,High,8.0
444,High,left,90.0,2.29836279874124,0.0,44.0,High,8.0
445,High,left,90.0,4.575614545959697,1.0,45.0,High,8.0
446,High,left,90.0,1.048879904941034,0.0,46.0,High,8.0
447,High,right,90.0,4.398093602471016,0.0,47.0,High,8.0
448,High,right,90.0,-0.1480408412882246,0.0,48.0,High,8.0
449,High,right,90.0,3.435224735854678,1.0,49.0,High,8.0
450,Low,right,90.0,4.129120913839632,0.0,0.0,High,9.0
451,Low,right,90.0,1.950925589961662,0.0,1.0,High,9.0
452,Low,left,90.0,-0.9610889915484975,0.0,2.0,High,9.0
453,Low,left,90.0,-0.20514833366364948,1.0,3.0,High,9.0
454,Low,left,90.0,-1.2669895460991385,1.0,4.0,High,9.0
455,Low,left,90.0,0.34775814463342414,0.0,5.0,High,9.0
456,Low,right,90.0,3.7970323770699976,0.0,6.0,High,9.0
457,Low,left,90.0,3.0763398163023776,1.0,7.0,High,9.0
458,Low,right,90.0,1.4419477243713579,1.0,8.0,High,9.0
459,Low,left,90.0,5.009087461152767,1.0,9.0,High,9.0
460,Low,right,90.0,1.6362773812043305,1.0,10.0,High,9.0
461,Low,right,90.0,-0.16855939548908805,0.0,11.0,High,9.0
462,Low,left,90.0,4.34505280080541,1.0,12.0,High,9.0
463,Low,left,90.0,-0.03396060709944981,0.0,13.0,High,9.0
464,Low,left,90.0,3.508885350306324,1.0,14.0,High,9.0
465,Low,right,90.0,-0.8478305215361137,1.0,15.0,High,9.0
466,Low,right,90.0,0.34535228161448805,1.0,16.0,High,9.0
467,Low,right,90.0,0.47181322705814766,0.0,17.0,High,9.0
468,Low,left,90.0,4.895763448701569,1.0,18.0,High,9.0
469,Low,right,90.0,0.23668942666148918,0.0,19.0,High,9.0
470,Low,left,90.0,1.5551665694082675,1.0,20.0,High,9.0
471,Low,right,90.0,2.964411950581798,0.0,21.0,High,9.0
472,Low,right,90.0,0.5727859001811593,0.0,22.0,High,9.0
473,Low,left,90.0,0.8272199798067248,1.0,23.0,High,9.0
474,Low,left,90.0,1.4958736706452265,1.0,24.0,High,9.0
475,Low,right,90.0,3.988586284984814,0.0,25.0,High,9.0
476,Low,left,90.0,-1.3238333055434497,0.0,26.0,High,9.0
477,Low,right,90.0,1.0534292586296305,1.0,27.0,High,9.0
478,Low,right,90.0,2.1476801419576184,1.0,28.0,High,9.0
479,Low,left,90.0,1.4402939167117703,0.0,29.0,High,9.0
480,Low,left,90.0,1.5322225093479271,1.0,30.0,High,9.0
481,Low,left,90.0,3.7855535193985017,1.0,31.0,High,9.0
482,Low,right,90.0,1.6414842444592332,0.0,32.0,High,9.0
483,Low,right,90.0,1.5180200018413,1.0,33.0,High,9.0
484,Low,left,90.0,2.644454295010288,0.0,34.0,High,9.0
485,Low,right,90.0,0.055644880034146915,0.0,35.0,High,9.0
486,Low,left,90.0,-1.3485057797250004,0.0,36.0,High,9.0
487,Low,right,90.0,5.582206736657124,0.0,37.0,High,9.0
488,Low,right,90.0,3.796096792462172,0.0,38.0,High,9.0
489,Low,left,90.0,4.3499227445918365,1.0,39.0,High,9.0
490,Low,left,90.0,-3.058063561342209,0.0,40.0,High,9.0
491,Low,right,90.0,2.538738482253586,1.0,41.0,High,9.0
492,Low,left,90.0,0.8911451509744791,1.0,42.0,High,9.0
493,Low,right,90.0,3.0843614428228587,0.0,43.0,High,9.0
494,Low,left,90.0,0.7973234708633561,1.0,44.0,High,9.0
495,Low,left,90.0,1.3361763754018305,1.0,45.0,High,9.0
496,Low,left,90.0,-1.3901639577845488,1.0,46.0,High,9.0
497,Low,right,90.0,4.49027127894436,0.0,47.0,High,9.0
498,Low,left,90.0,4.937211246894808,1.0,48.0,High,9.0
499,Low,left,90.0,2.213650443447568,1.0,49.0,High,9.0
500,High,right,90.0,4.425843973158649,1.0,0.0,Low,10.0
501,High,right,90.0,2.037455513163245,0.0,1.0,Low,10.0
502,High,left,90.0,2.671430094682992,1.0,2.0,Low,10.0
503,High,left,90.0,2.4618543576610983,0.0,3.0,Low,10.0
504,High,right,90.0,2.8398172927550305,0.0,4.0,Low,10.0
505,High,right,90.0,3.2003882324315045,1.0,5.0,Low,10.0
506,High,right,90.0,2.71872711565121,1.0,6.0,Low,10.0
507,High,left,90.0,3.301559168344245,1.0,7.0,Low,10.0
508,High,left,90.0,-0.08264031850675435,1.0,8.0,Low,10.0
509,High,right,90.0,2.499590690917884,0.0,9.0,Low,10.0
510,High,right,90.0,4.530823695446304,0.0,10.0,Low,10.0
511,High,right,90.0,1.7423846610357692,0.0,11.0,Low,10.0
512,High,right,90.0,0.8699593982888152,1.0,12.0,Low,10.0
513,High,right,90.0,0.9442062981920769,1.0,13.0,Low,10.0
514,High,left,90.0,4.201228393203239,0.0,14.0,Low,10.0
515,High,right,90.0,3.7316846840212614,1.0,15.0,Low,10.0
516,High,right,90.0,0.37648603173667095,1.0,16.0,Low,10.0
517,High,left,90.0,4.302622317480031,0.0,17.0,Low,10.0
518,High,right,90.0,3.3481026582539175,1.0,18.0,Low,10.0
519,High,left,90.0,0.001069986358432029,1.0,19.0,Low,10.0
520,High,left,90.0,-0.6007247273444316,0.0,20.0,Low,10.0
521,High,right,90.0,1.7144939634491918,0.0,21.0,Low,10.0
522,High,left,90.0,6.715113809463487,1.0,22.0,Low,10.0
523,High,left,90.0,1.2377261085985918,1.0,23.0,Low,10.0
524,High,right,90.0,3.257616693826115,0.0,24.0,Low,10.0
525,High,right,90.0,1.8559559215521466,0.0,25.0,Low,10.0
526,High,left,90.0,2.334086115926478,1.0,26.0,Low,10.0
527,High,right,90.0,0.8631898096417672,1.0,27.0,Low,10.0
528,High,left,90.0,-1.1125885754021878,1.0,28.0,Low,10.0
529,High,left,90.0,3.027153760422931,1.0,29.0,Low,10.0
530,High,right,90.0,5.510884796499395,1.0,30.0,Low,10.0
531,High,right,90.0,3.753343235832448,1.0,31.0,Low,10.0
532,High,left,90.0,3.328286065695375,1.0,32.0,Low,10.0
533,High,right,90.0,2.2197363549721674,0.0,33.0,Low,10.0
534,High,left,90.0,0.6574812503554024,0.0,34.0,Low,10.0
535,High,right,90.0,2.1768073065683207,1.0,35.0,Low,10.0
536,High,right,90.0,2.5214271684716945,1.0,36.0,Low,10.0
537,High,right,90.0,-2.5745072753265568,1.0,37.0,Low,10.0
538,High,left,90.0,2.3784101340782033,1.0,38.0,Low,10.0
539,High,left,90.0,2.083069304253354,1.0,39.0,Low,10.0
540,High,right,90.0,3.846878111472668,1.0,40.0,Low,10.0
541,High,right,90.0,2.392383529712279,1.0,41.0,Low,10.0
542,High,right,90.0,1.806030575534429,0.0,42.0,Low,10.0
543,High,left,90.0,-0.08253612391956855,0.0,43.0,Low,10.0
544,High,left,90.0,1.42655671048559,0.0,44.0,Low,10.0
545,High,left,90.0,1.3659687582811708,0.0,45.0,Low,10.0
546,High,left,90.0,2.0228963155707294,1.0,46.0,Low,10.0
547,High,left,90.0,3.8073175399386088,0.0,47.0,Low,10.0
548,High,left,90.0,2.5619890068781976,0.0,48.0,Low,10.0
549,High,left,90.0,3.617737567783882,0.0,49.0,Low,10.0
550,Low,left,90.0,2.2967709106328336,1.0,0.0,Low,11.0
551,Low,right,90.0,0.15903722561959932,1.0,1.0,Low,11.0
552,Low,left,90.0,4.911007964053676,1.0,2.0,Low,11.0
553,Low,left,90.0,3.5439409463600464,0.0,3.0,Low,11.0
554,Low,right,90.0,3.224579414214484,1.0,4.0,Low,11.0
555,Low,right,90.0,1.4942308884491566,0.0,5.0,Low,11.0
556,Low,left,90.0,6.119503238637213,1.0,6.0,Low,11.0
557,Low,left,90.0,1.0266227808268973,0.0,7.0,Low,11.0
558,Low,right,90.0,8.913000588604383,0.0,8.0,Low,11.0
559,Low,left,90.0,2.164885913077126,0.0,9.0,Low,11.0
560,Low,right,90.0,0.5714295857627008,1.0,10.0,Low,11.0
561,Low,left,90.0,1.6777884238936456,0.0,11.0,Low,11.0
562,Low,right,90.0,1.4998012383001118,0.0,12.0,Low,11.0
563,Low,left,90.0,0.631043727963982,0.0,13.0,Low,11.0
564,Low,right,90.0,7.199475065174791,1.0,14.0,Low,11.0
565,Low,right,90.0,-1.518064360730627,1.0,15.0,Low,11.0
566,Low,right,90.0,0.7578095087349146,1.0,16.0,Low,11.0
567,Low,right,90.0,0.4515917192492944,0.0,17.0,Low,11.0
568,Low,left,90.0,1.2101353661394034,0.0,18.0,Low,11.0
569,Low,right,90.0,5.190557901348722,0.0,19.0,Low,11.0
570,Low,left,90.0,1.8380670413217333,1.0,20.0,Low,11.0
571,Low,right,90.0,4.85292223593869,1.0,21.0,Low,11.0
572,Low,right,90.0,1.9708446688444905,0.0,22.0,Low,11.0
573,Low,right,90.0,2.4012310750204233,1.0,23.0,Low,11.0
574,Low,right,90.0,0.46177901317487513,1.0,24.0,Low,11.0
575,Low,left,90.0,1.9730981198610142,0.0,25.0,Low,11.0
576,Low,left,90.0,2.8079944165371966,1.0,26.0,Low,11.0
577,Low,left,90.0,4.553468610315891,1.0,27.0,Low,11.0
578,Low,left,90.0,2.806427072598071,1.0,28.0,Low,11.0
579,Low,right,90.0,1.849311846853384,0.0,29.0,Low,11.0
580,Low,left,90.0,0.9071035225007149,1.0,30.0,Low,11.0
581,Low,left,90.0,0.751426244338607,0.0,31.0,Low,11.0
582,Low,right,90.0,4.361227879301786,0.0,32.0,Low,11.0
583,Low,right,90.0,-1.1781928466697167,0.0,33.0,Low,11.0
584,Low,right,90.0,2.0025939325675464,1.0,34.0,Low,11.0
585,Low,right,90.0,3.4844632780012144,1.0,35.0,Low,11.0
586,Low,left,90.0,2.1425192380398164,1.0,36.0,Low,11.0
587,Low,left,90.0,-0.6029056865519893,1.0,37.0,Low,11.0
588,Low,right,90.0,2.8855090088817335,1.0,38.0,Low,11.0
589,Low,left,90.0,1.4238360841682938,1.0,39.0,Low,11.0
590,Low,left,90.0,1.0769539913661381,0.0,40.0,Low,11.0
591,Low,right,90.0,2.182833666969245,1.0,41.0,Low,11.0
592,Low,right,90.0,1.6628837915626737,0.0,42.0,Low,11.0
593,Low,left,90.0,-0.9864192849893687,0.0,43.0,Low,11.0
594,Low,left,90.0,0.9156346891160025,1.0,44.0,Low,11.0
595,Low,left,90.0,1.79344826199352,0.0,45.0,Low,11.0
596,Low,left,90.0,0.945531518263907,0.0,46.0,Low,11.0
597,Low,left,90.0,-1.7678291732947415,0.0,47.0,Low,11.0
598,Low,left,90.0,2.4089837311809803,0.0,48.0,Low,11.0
599,Low,right,90.0,0.24362439012472814,1.0,49.0,Low,11.0
