,Arousal,KeyPressed,LearningTime,RT,Response,TrialNumber,Valence,nBlock
0,High,right,30.0,3.1121012558143826,1.0,0.0,Low,0.0
1,High,right,30.0,1.115863239016524,1.0,1.0,Low,0.0
2,High,right,30.0,3.8165362593512517,1.0,2.0,Low,0.0
3,High,left,30.0,-0.5396675619546711,0.0,3.0,Low,0.0
4,High,right,30.0,3.2736396830489274,1.0,4.0,Low,0.0
5,High,left,30.0,-2.2520156894301273,0.0,5.0,Low,0.0
6,High,right,30.0,1.0928612638508017,1.0,6.0,Low,0.0
7,High,right,30.0,0.42466010093421014,0.0,7.0,Low,0.0
8,High,right,30.0,4.611261155802074,1.0,8.0,Low,0.0
9,High,left,30.0,2.9091343391071334,1.0,9.0,Low,0.0
10,High,right,30.0,-1.4455870218931648,1.0,10.0,Low,0.0
11,High,left,30.0,3.2362376213441895,0.0,11.0,Low,0.0
12,High,left,30.0,1.7670663980170056,1.0,12.0,Low,0.0
13,High,right,30.0,3.6718586816137786,1.0,13.0,Low,0.0
14,High,left,30.0,0.2767930861223027,0.0,14.0,Low,0.0
15,High,right,30.0,-0.48924517902029807,0.0,15.0,Low,0.0
16,High,left,30.0,-3.1228989453906224,1.0,16.0,Low,0.0
17,High,right,30.0,2.903107338188153,0.0,17.0,Low,0.0
18,High,right,30.0,1.899811939960242,1.0,18.0,Low,0.0
19,High,left,30.0,6.132425530436777,1.0,19.0,Low,0.0
20,High,right,30.0,1.8916845814119256,1.0,20.0,Low,0.0
21,High,left,30.0,4.549451278352429,1.0,21.0,Low,0.0
22,High,right,30.0,1.3322830180301422,1.0,22.0,Low,0.0
23,High,left,30.0,1.074729839394797,0.0,23.0,Low,0.0
24,High,left,30.0,0.7657346850893485,0.0,24.0,Low,0.0
25,High,right,30.0,0.5129231653617661,1.0,25.0,Low,0.0
26,High,right,30.0,2.826005057497442,1.0,26.0,Low,0.0
27,High,right,30.0,3.0923605547203294,0.0,27.0,Low,0.0
28,High,left,30.0,0.6228091871310673,1.0,28.0,Low,0.0
29,High,left,30.0,4.252418331345659,1.0,29.0,Low,0.0
30,High,left,30.0,3.4231970251326684,1.0,30.0,Low,0.0
31,High,left,30.0,5.261665236464282,0.0,31.0,Low,0.0
32,High,right,30.0,-3.8094957153506264,1.0,32.0,Low,0.0
33,High,left,30.0,2.99575334123018,0.0,33.0,Low,0.0
34,High,right,30.0,3.461269596226371,1.0,34.0,Low,0.0
35,High,right,30.0,0.9105036157325217,0.0,35.0,Low,0.0
36,High,right,30.0,1.3537421729891275,1.0,36.0,Low,0.0
37,High,right,30.0,1.213809628909162,1.0,37.0,Low,0.0
38,High,left,30.0,0.7666489836336391,1.0,38.0,Low,0.0
39,High,right,30.0,-0.6616213524130967,0.0,39.0,Low,0.0
40,High,right,30.0,0.4565511984808237,1.0,40.0,Low,0.0
41,High,right,30.0,1.0155499373636871,0.0,41.0,Low,0.0
42,High,right,30.0,2.729737990881536,1.0,42.0,Low,0.0
43,High,left,30.0,-2.0229922105327125,0.0,43.0,Low,0.0
44,High,left,30.0,0.6835211604342346,0.0,44.0,Low,0.0
45,High,right,30.0,1.1906517047541856,1.0,45.0,Low,0.0
46,High,right,30.0,9.254627796289562,1.0,46.0,Low,0.0
47,High,right,30.0,2.7354339024659655,1.0,47.0,Low,0.0
48,High,right,30.0,-0.9028463638136013,1.0,48.0,Low,0.0
49,High,right,30.0,-0.016313932793560637,1.0,49.0,Low,0.0
50,Low,right,30.0,4.445961607236096,1.0,0.0,Low,1.0
51,Low,right,30.0,6.111692361471213,1.0,1.0,Low,1.0
52,Low,right,30.0,1.482971398567148,1.0,2.0,Low,1.0
53,Low,right,30.0,4.088499375909867,1.0,3.0,Low,1.0
54,Low,right,30.0,5.080574898531218,0.0,4.0,Low,1.0
55,Low,left,30.0,0.8360241949759811,1.0,5.0,Low,1.0
56,Low,right,30.0,1.8530598496333255,1.0,6.0,Low,1.0
57,Low,right,30.0,3.497114852160571,0.0,7.0,Low,1.0
58,Low,left,30.0,3.559109379892347,0.0,8.0,Low,1.0
59,Low,right,30.0,-0.6294007700894917,0.0,9.0,Low,1.0
60,Low,right,30.0,2.024846966652176,1.0,10.0,Low,1.0
61,Low,left,30.0,2.460983546397051,1.0,11.0,Low,1.0
62,Low,left,30.0,3.0245743290938156,1.0,12.0,Low,1.0
63,Low,left,30.0,-3.6151096264191107,0.0,13.0,Low,1.0
64,Low,left,30.0,1.1509823073454482,1.0,14.0,Low,1.0
65,Low,right,30.0,1.8719682825796147,1.0,15.0,Low,1.0
66,Low,left,30.0,-2.12286364025232,0.0,16.0,Low,1.0
67,Low,right,30.0,0.0910674577036712,1.0,17.0,Low,1.0
68,Low,right,30.0,2.53513227990361,0.0,18.0,Low,1.0
69,Low,left,30.0,2.1156932366194887,1.0,19.0,Low,1.0
70,Low,right,30.0,3.8534167760879265,0.0,20.0,Low,1.0
71,Low,left,30.0,4.851692669251657,1.0,21.0,Low,1.0
72,Low,left,30.0,1.9547813822062794,0.0,22.0,Low,1.0
73,Low,left,30.0,1.8632100426992848,0.0,23.0,Low,1.0
74,Low,right,30.0,7.4623827326222925,1.0,24.0,Low,1.0
75,Low,right,30.0,-0.24960913700494736,0.0,25.0,Low,1.0
76,Low,right,30.0,5.647065192881443,0.0,26.0,Low,1.0
77,Low,left,30.0,3.0106595772543248,0.0,27.0,Low,1.0
78,Low,right,30.0,3.832992410841974,0.0,28.0,Low,1.0
79,Low,left,30.0,3.237873762128502,1.0,29.0,Low,1.0
80,Low,right,30.0,4.156446329658131,0.0,30.0,Low,1.0
81,Low,left,30.0,1.0373078724763467,0.0,31.0,Low,1.0
82,Low,left,30.0,-3.035896743785031,0.0,32.0,Low,1.0
83,Low,right,30.0,-0.8427669151167447,1.0,33.0,Low,1.0
84,Low,left,30.0,0.7540604524856189,0.0,34.0,Low,1.0
85,Low,right,30.0,3.1988010496707227,1.0,35.0,Low,1.0
86,Low,right,30.0,-0.4784833167094671,1.0,36.0,Low,1.0
87,Low,left,30.0,3.1539190115497973,1.0,37.0,Low,1.0
88,Low,right,30.0,0.9256535969378081,0.0,38.0,Low,1.0
89,Low,right,30.0,-0.8471950930718608,1.0,39.0,Low,1.0
90,Low,right,30.0,1.0097417609208699,0.0,40.0,Low,1.0
91,Low,right,30.0,1.2701241062343551,0.0,41.0,Low,1.0
92,Low,right,30.0,2.9464953474109405,1.0,42.0,Low,1.0
93,Low,left,30.0,3.5868865134943895,1.0,43.0,Low,1.0
94,Low,left,30.0,4.594563883453686,0.0,44.0,Low,1.0
95,Low,right,30.0,3.3821012060275892,0.0,45.0,Low,1.0
96,Low,right,30.0,-0.41716693673601934,0.0,46.0,Low,1.0
97,Low,left,30.0,4.905465093003103,1.0,47.0,Low,1.0
98,Low,right,30.0,3.394025370204549,1.0,48.0,Low,1.0
99,Low,left,30.0,2.167103679848546,0.0,49.0,Low,1.0
100,High,left,30.0,2.670223594887649,1.0,0.0,High,2.0
101,High,left,30.0,2.098704496754271,0.0,1.0,High,2.0
102,High,right,30.0,0.37631115696868744,0.0,2.0,High,2.0
103,High,left,30.0,2.1327851986913644,0.0,3.0,High,2.0
104,High,left,30.0,1.1873723764140522,0.0,4.0,High,2.0
105,High,right,30.0,0.12690436785759318,1.0,5.0,High,2.0
106,High,left,30.0,0.7167371079893399,0.0,6.0,High,2.0
107,High,right,30.0,2.6135339511545825,1.0,7.0,High,2.0
108,High,right,30.0,2.034313617139621,1.0,8.0,High,2.0
109,High,left,30.0,4.997313001010837,1.0,9.0,High,2.0
110,High,right,30.0,0.3405510770642799,1.0,10.0,High,2.0
111,High,left,30.0,3.1777460374677657,1.0,11.0,High,2.0
112,High,right,30.0,0.9385193710966211,1.0,12.0,High,2.0
113,High,left,30.0,5.216950189946882,0.0,13.0,High,2.0
114,High,left,30.0,0.6837050856484095,0.0,14.0,High,2.0
115,High,left,30.0,4.689758919487895,0.0,15.0,High,2.0
116,High,left,30.0,2.1678872332780994,1.0,16.0,High,2.0
117,High,right,30.0,5.078756998721635,1.0,17.0,High,2.0
118,High,left,30.0,-0.6727698421547403,1.0,18.0,High,2.0
119,High,right,30.0,4.717705296746426,1.0,19.0,High,2.0
120,High,left,30.0,1.7655964493242053,0.0,20.0,High,2.0
121,High,right,30.0,-1.2306472124998242,0.0,21.0,High,2.0
122,High,left,30.0,7.746513483141672,0.0,22.0,High,2.0
123,High,right,30.0,0.17118330602840626,0.0,23.0,High,2.0
124,High,left,30.0,5.017036156347208,0.0,24.0,High,2.0
125,High,right,30.0,6.103717178607044,0.0,25.0,High,2.0
126,High,right,30.0,-0.6840414023374675,0.0,26.0,High,2.0
127,High,right,30.0,3.9763852370031882,0.0,27.0,High,2.0
128,High,left,30.0,0.8885968786417751,1.0,28.0,High,2.0
129,High,left,30.0,0.7500440914305047,0.0,29.0,High,2.0
130,High,left,30.0,2.9233490520474525,0.0,30.0,High,2.0
131,High,left,30.0,1.5199236785395418,0.0,31.0,High,2.0
132,High,right,30.0,1.2019213138158924,0.0,32.0,High,2.0
133,High,left,30.0,3.024579217116048,1.0,33.0,High,2.0
134,High,left,30.0,1.5433988264470773,0.0,34.0,High,2.0
135,High,left,30.0,5.9777773360628785,0.0,35.0,High,2.0
136,High,right,30.0,2.9157565600635578,1.0,36.0,High,2.0
137,High,right,30.0,3.581888465444724,1.0,37.0,High,2.0
138,High,left,30.0,-1.5367434156784827,0.0,38.0,High,2.0
139,High,left,30.0,-1.5280946123915875,0.0,39.0,High,2.0
140,High,right,30.0,3.7017571462233065,0.0,40.0,High,2.0
141,High,right,30.0,0.4106411119795904,0.0,41.0,High,2.0
142,High,right,30.0,4.290719771224081,0.0,42.0,High,2.0
143,High,left,30.0,-0.8089729787226831,1.0,43.0,High,2.0
144,High,left,30.0,-1.823573766429004,1.0,44.0,High,2.0
145,High,right,30.0,3.9066109021407804,0.0,45.0,High,2.0
146,High,left,30.0,3.8076392409643938,0.0,46.0,High,2.0
147,High,right,30.0,-0.379262036947293,1.0,47.0,High,2.0
148,High,right,30.0,4.791645890011694,0.0,48.0,High,2.0
149,High,right,30.0,3.1930262925950497,1.0,49.0,High,2.0
150,Low,left,30.0,-0.30946766799056746,1.0,0.0,High,3.0
151,Low,right,30.0,-3.2266261167218455,0.0,1.0,High,3.0
152,Low,right,30.0,1.0345172353965246,1.0,2.0,High,3.0
153,Low,right,30.0,-0.268226719899868,0.0,3.0,High,3.0
154,Low,right,30.0,1.7581554722393327,1.0,4.0,High,3.0
155,Low,left,30.0,0.6719798210344696,0.0,5.0,High,3.0
156,Low,left,30.0,2.6714587095118216,1.0,6.0,High,3.0
157,Low,left,30.0,1.2657272627905278,1.0,7.0,High,3.0
158,Low,right,30.0,0.4958047499152496,0.0,8.0,High,3.0
159,Low,left,30.0,2.322034692476517,1.0,9.0,High,3.0
160,Low,right,30.0,0.8369378470008589,1.0,10.0,High,3.0
161,Low,right,30.0,-0.8176146518980405,0.0,11.0,High,3.0
162,Low,right,30.0,1.4139051732512637,1.0,12.0,High,3.0
163,Low,left,30.0,6.02812925167968,1.0,13.0,High,3.0
164,Low,right,30.0,-1.7255381214288625,0.0,14.0,High,3.0
165,Low,left,30.0,-0.529172574087295,0.0,15.0,High,3.0
166,Low,left,30.0,-2.042899778286865,0.0,16.0,High,3.0
167,Low,right,30.0,4.392178980605047,0.0,17.0,High,3.0
168,Low,right,30.0,2.341126347085002,1.0,18.0,High,3.0
169,Low,right,30.0,0.5873492585729494,0.0,19.0,High,3.0
170,Low,right,30.0,1.2680343005532497,0.0,20.0,High,3.0
171,Low,left,30.0,-0.3882436359529424,1.0,21.0,High,3.0
172,Low,right,30.0,-1.3252589186434136,0.0,22.0,High,3.0
173,Low,right,30.0,2.500951176536608,1.0,23.0,High,3.0
174,Low,right,30.0,2.4441563849983847,0.0,24.0,High,3.0
175,Low,right,30.0,-0.9735211540569964,1.0,25.0,High,3.0
176,Low,right,30.0,2.9790290309734075,0.0,26.0,High,3.0
177,Low,left,30.0,0.11642517730725821,0.0,27.0,High,3.0
178,Low,left,30.0,0.6032798330993976,1.0,28.0,High,3.0
179,Low,left,30.0,1.2972371575664716,1.0,29.0,High,3.0
180,Low,left,30.0,1.6676948247613212,1.0,30.0,High,3.0
181,Low,left,30.0,4.084112780215014,0.0,31.0,High,3.0
182,Low,right,30.0,0.9529134691029599,1.0,32.0,High,3.0
183,Low,left,30.0,4.257496215919544,0.0,33.0,High,3.0
184,Low,left,30.0,4.899797396861482,1.0,34.0,High,3.0
185,Low,left,30.0,7.784391945574984,1.0,35.0,High,3.0
186,Low,right,30.0,1.612202379375899,1.0,36.0,High,3.0
187,Low,left,30.0,3.7087343154090076,0.0,37.0,High,3.0
188,Low,left,30.0,1.6360805331570933,1.0,38.0,High,3.0
189,Low,right,30.0,-0.8916791630431717,0.0,39.0,High,3.0
190,Low,right,30.0,4.514421620836934,1.0,40.0,High,3.0
191,Low,left,30.0,1.3216442826925252,0.0,41.0,High,3.0
192,Low,left,30.0,0.642435829416609,1.0,42.0,High,3.0
193,Low,left,30.0,6.109511940359077,0.0,43.0,High,3.0
194,Low,right,30.0,0.7606296772169954,0.0,44.0,High,3.0
195,Low,left,30.0,2.4035944813842263,0.0,45.0,High,3.0
196,Low,left,30.0,2.6611918730241895,0.0,46.0,High,3.0
197,Low,right,30.0,-0.40583441364988193,0.0,47.0,High,3.0
198,Low,right,30.0,4.6211371521774,0.0,48.0,High,3.0
199,Low,left,30.0,1.541329107262145,0.0,49.0,High,3.0
200,High,right,60.0,2.481691282194151,1.0,0.0,Low,4.0
201,High,right,60.0,4.19039279769034,1.0,1.0,Low,4.0
202,High,right,60.0,2.0046015249056057,0.0,2.0,Low,4.0
203,High,right,60.0,1.2269174054727383,0.0,3.0,Low,4.0
204,High,left,60.0,2.5317227731042955,1.0,4.0,Low,4.0
205,High,left,60.0,1.9705229840952432,1.0,5.0,Low,4.0
206,High,left,60.0,2.7510546249199836,0.0,6.0,Low,4.0
207,High,right,60.0,3.7637818584709875,1.0,7.0,Low,4.0
208,High,right,60.0,3.2759023960880804,0.0,8.0,Low,4.0
209,High,right,60.0,4.035302563557354,1.0,9.0,Low,4.0
210,High,left,60.0,3.3981195424750306,0.0,10.0,Low,4.0
211,High,left,60.0,2.9462337411576107,1.0,11.0,Low,4.0
212,High,right,60.0,2.071000620631475,0.0,12.0,Low,4.0
213,High,right,60.0,10.699981877035349,0.0,13.0,Low,4.0
214,High,left,60.0,1.8156277667243605,0.0,14.0,Low,4.0
215,High,right,60.0,0.5963998762549276,0.0,15.0,Low,4.0
216,High,right,60.0,-2.5470385532798154,0.0,16.0,Low,4.0
217,High,right,60.0,4.278014244513368,0.0,17.0,Low,4.0
218,High,left,60.0,2.1647181045916155,0.0,18.0,Low,4.0
219,High,left,60.0,0.24438118846531798,1.0,19.0,Low,4.0
220,High,right,60.0,0.7114116540541684,1.0,20.0,Low,4.0
221,High,left,60.0,3.8065832901226946,1.0,21.0,Low,4.0
222,High,right,60.0,3.198678383613578,1.0,22.0,Low,4.0
223,High,left,60.0,0.9981118673546303,1.0,23.0,Low,4.0
224,High,right,60.0,3.1758872866652377,0.0,24.0,Low,4.0
225,High,left,60.0,0.09197886377007336,0.0,25.0,Low,4.0
226,High,right,60.0,0.5326646304504603,1.0,26.0,Low,4.0
227,High,left,60.0,0.40599009480827175,1.0,27.0,Low,4.0
228,High,right,60.0,1.866993806363401,1.0,28.0,Low,4.0
229,High,left,60.0,3.927476444675,1.0,29.0,Low,4.0
230,High,left,60.0,5.709588762444838,1.0,30.0,Low,4.0
231,High,right,60.0,2.805693776951908,1.0,31.0,Low,4.0
232,High,right,60.0,2.694327547521915,0.0,32.0,Low,4.0
233,High,right,60.0,2.6276744368756324,0.0,33.0,Low,4.0
234,High,right,60.0,2.794340574088502,0.0,34.0,Low,4.0
235,High,right,60.0,2.7260270641712476,0.0,35.0,Low,4.0
236,High,right,60.0,4.005770059117248,1.0,36.0,Low,4.0
237,High,left,60.0,-1.212306612581911,0.0,37.0,Low,4.0
238,High,left,60.0,1.268677312517526,0.0,38.0,Low,4.0
239,High,left,60.0,1.7578248932974374,1.0,39.0,Low,4.0
240,High,right,60.0,1.80859098313662,0.0,40.0,Low,4.0
241,High,right,60.0,1.0662666686056599,0.0,41.0,Low,4.0
242,High,right,60.0,-0.8486587311118026,1.0,42.0,Low,4.0
243,High,right,60.0,3.757464957686952,0.0,43.0,Low,4.0
244,High,right,60.0,1.952817655216528,1.0,44.0,Low,4.0
245,High,left,60.0,6.041750238440796,0.0,45.0,Low,4.0
246,High,right,60.0,0.4251790494780894,1.0,46.0,Low,4.0
247,High,left,60.0,2.441204969145783,0.0,47.0,Low,4.0
248,High,right,60.0,-0.5139362032329822,1.0,48.0,Low,4.0
249,High,right,60.0,4.161686456936464,1.0,49.0,Low,4.0
250,Low,left,60.0,3.4226309030466133,0.0,0.0,High,5.0
251,Low,right,60.0,0.9436942237849122,0.0,1.0,High,5.0
252,Low,right,60.0,3.672502690270548,1.0,2.0,High,5.0
253,Low,left,60.0,-2.326867240075856,1.0,3.0,High,5.0
254,Low,right,60.0,2.898862174949261,1.0,4.0,High,5.0
255,Low,left,60.0,2.8913526392535314,0.0,5.0,High,5.0
256,Low,left,60.0,2.0964140526873125,1.0,6.0,High,5.0
257,Low,left,60.0,5.503773427818098,0.0,7.0,High,5.0
258,Low,left,60.0,1.5309864928341563,1.0,8.0,High,5.0
259,Low,left,60.0,1.8463898208350151,1.0,9.0,High,5.0
260,Low,left,60.0,0.1991837439345916,0.0,10.0,High,5.0
261,Low,right,60.0,-0.4947173687523385,1.0,11.0,High,5.0
262,Low,left,60.0,4.535073258153312,1.0,12.0,High,5.0
263,Low,left,60.0,7.950868692874677,0.0,13.0,High,5.0
264,Low,left,60.0,0.8692471214227973,0.0,14.0,High,5.0
265,Low,left,60.0,4.1824403130649035,0.0,15.0,High,5.0
266,Low,right,60.0,2.768331166820559,0.0,16.0,High,5.0
267,Low,right,60.0,2.3418376728541364,0.0,17.0,High,5.0
268,Low,left,60.0,-2.413739344580091,1.0,18.0,High,5.0
269,Low,right,60.0,0.38667268179875935,0.0,19.0,High,5.0
270,Low,right,60.0,1.690005325054935,1.0,20.0,High,5.0
271,Low,left,60.0,6.66928383432411,1.0,21.0,High,5.0
272,Low,right,60.0,1.2459123871589273,0.0,22.0,High,5.0
273,Low,right,60.0,3.654204777257606,1.0,23.0,High,5.0
274,Low,right,60.0,1.3499307797965494,0.0,24.0,High,5.0
275,Low,right,60.0,1.8877700091905032,1.0,25.0,High,5.0
276,Low,right,60.0,6.281169916548988,1.0,26.0,High,5.0
277,Low,left,60.0,2.39566683806108,1.0,27.0,High,5.0
278,Low,left,60.0,1.5893086646598218,1.0,28.0,High,5.0
279,Low,left,60.0,3.4737320463714942,1.0,29.0,High,5.0
280,Low,left,60.0,3.2838522078272643,0.0,30.0,High,5.0
281,Low,right,60.0,4.325989904244324,0.0,31.0,High,5.0
282,Low,left,60.0,-0.7186974089914835,1.0,32.0,High,5.0
283,Low,left,60.0,3.9431296176052495,1.0,33.0,High,5.0
284,Low,right,60.0,-0.8419762181771135,0.0,34.0,High,5.0
285,Low,right,60.0,3.765839540136491,0.0,35.0,High,5.0
286,Low,right,60.0,1.220993789932314,0.0,36.0,High,5.0
287,Low,right,60.0,3.585686087737013,0.0,37.0,High,5.0
288,Low,right,60.0,5.758268222556978,0.0,38.0,High,5.0
289,Low,left,60.0,3.00185101637606,0.0,39.0,High,5.0
290,Low,right,60.0,5.146737176144746,0.0,40.0,High,5.0
291,Low,right,60.0,1.028332911130421,1.0,41.0,High,5.0
292,Low,right,60.0,3.4416513771451394,1.0,42.0,High,5.0
293,Low,right,60.0,-3.0853482904642036,0.0,43.0,High,5.0
294,Low,left,60.0,7.276020762984176,1.0,44.0,High,5.0
295,Low,right,60.0,3.9675696406550243,0.0,45.0,High,5.0
296,Low,left,60.0,1.340661140949079,1.0,46.0,High,5.0
297,Low,right,60.0,2.637772592974078,0.0,47.0,High,5.0
298,Low,right,60.0,4.209250026269619,0.0,48.0,High,5.0
299,Low,right,60.0,2.8508808559569982,1.0,49.0,High,5.0
300,High,left,60.0,3.1059401735450445,0.0,0.0,High,6.0
301,High,left,60.0,5.583659640014016,0.0,1.0,High,6.0
302,High,left,60.0,2.8745034902514366,1.0,2.0,High,6.0
303,High,left,60.0,2.977811067970461,0.0,3.0,High,6.0
304,High,right,60.0,5.633871424880477,0.0,4.0,High,6.0
305,High,right,60.0,3.352496661658906,1.0,5.0,High,6.0
306,High,right,60.0,1.9943684327231412,0.0,6.0,High,6.0
307,High,left,60.0,-0.8182639328407935,1.0,7.0,High,6.0
308,High,right,60.0,1.6264525649201689,0.0,8.0,High,6.0
309,High,left,60.0,1.8092999824690084,1.0,9.0,High,6.0
310,High,left,60.0,3.2306222006308496,1.0,10.0,High,6.0
311,High,right,60.0,0.7145877817227637,0.0,11.0,High,6.0
312,High,right,60.0,2.4884374568204275,1.0,12.0,High,6.0
313,High,right,60.0,1.9952520900089588,0.0,13.0,High,6.0
314,High,left,60.0,-1.4651906143211915,1.0,14.0,High,6.0
315,High,right,60.0,-1.2698003621443115,1.0,15.0,High,6.0
316,High,right,60.0,4.742466079814534,0.0,16.0,High,6.0
317,High,left,60.0,0.8974579773314213,0.0,17.0,High,6.0
318,High,left,60.0,4.100031764965228,1.0,18.0,High,6.0
319,High,left,60.0,1.5815097097770847,1.0,19.0,High,6.0
320,High,right,60.0,2.5481859410138172,1.0,20.0,High,6.0
321,High,right,60.0,-2.4146309036825464,0.0,21.0,High,6.0
322,High,left,60.0,3.45514472298503,0.0,22.0,High,6.0
323,High,left,60.0,0.5038573558551978,0.0,23.0,High,6.0
324,High,left,60.0,3.1892622069973227,1.0,24.0,High,6.0
325,High,left,60.0,4.975204674864064,0.0,25.0,High,6.0
326,High,left,60.0,5.351351425847728,1.0,26.0,High,6.0
327,High,left,60.0,0.6722170996194057,0.0,27.0,High,6.0
328,High,right,60.0,0.150193843306214,0.0,28.0,High,6.0
329,High,left,60.0,3.4902012455840246,1.0,29.0,High,6.0
330,High,right,60.0,3.560932954522702,1.0,30.0,High,6.0
331,High,left,60.0,5.573263542351283,0.0,31.0,High,6.0
332,High,left,60.0,5.022974713513702,1.0,32.0,High,6.0
333,High,right,60.0,0.07397808347729118,0.0,33.0,High,6.0
334,High,left,60.0,2.4798813302726335,0.0,34.0,High,6.0
335,High,right,60.0,2.672957327540024,1.0,35.0,High,6.0
336,High,right,60.0,5.982787785467986,0.0,36.0,High,6.0
337,High,left,60.0,-1.622359609294742,1.0,37.0,High,6.0
338,High,right,60.0,0.16183443985534485,0.0,38.0,High,6.0
339,High,left,60.0,2.5799426687005904,0.0,39.0,High,6.0
340,High,left,60.0,2.144804868586797,1.0,40.0,High,6.0
341,High,right,60.0,0.5181900772889521,0.0,41.0,High,6.0
342,High,left,60.0,2.74138001752326,0.0,42.0,High,6.0
343,High,right,60.0,1.1238999018479106,0.0,43.0,High,6.0
344,High,left,60.0,2.1136966196652,1.0,44.0,High,6.0
345,High,right,60.0,3.822673097422059,0.0,45.0,High,6.0
346,High,left,60.0,1.6225508008628493,1.0,46.0,High,6.0
347,High,left,60.0,-1.045964964523571,1.0,47.0,High,6.0
348,High,left,60.0,2.3236888452638107,0.0,48.0,High,6.0
349,High,right,60.0,3.812508013253794,0.0,49.0,High,6.0
350,Low,right,90.0,-0.0032293436038597356,0.0,0.0,High,7.0
351,Low,left,90.0,3.03043556364347,1.0,1.0,High,7.0
352,Low,left,90.0,4.1515097560989345,0.0,2.0,High,7.0
353,Low,left,90.0,0.8805578172820723,0.0,3.0,High,7.0
354,Low,right,90.0,2.8669678841102533,0.0,4.0,High,7.0
355,Low,right,90.0,2.2227774144118864,1.0,5.0,High,7.0
356,Low,right,90.0,0.2141134118783612,0.0,6.0,High,7.0
357,Low,left,90.0,3.0631500405657444,1.0,7.0,High,7.0
358,Low,right,90.0,4.571317627171934,0.0,8.0,High,7.0
359,Low,left,90.0,3.6250081397578056,0.0,9.0,High,7.0
360,Low,left,90.0,-1.4277513631918146,0.0,10.0,High,7.0
361,Low,left,90.0,-1.184088244656731,1.0,11.0,High,7.0
362,Low,left,90.0,2.042663461638444,1.0,12.0,High,7.0
363,Low,right,90.0,5.617933084591349,1.0,13.0,High,7.0
364,Low,left,90.0,0.4217922310539639,1.0,14.0,High,7.0
365,Low,right,90.0,3.005166857786095,1.0,15.0,High,7.0
366,Low,left,90.0,2.1725388879122605,1.0,16.0,High,7.0
367,Low,right,90.0,0.5109937979663606,0.0,17.0,High,7.0
368,Low,right,90.0,-0.3581886320089873,1.0,18.0,High,7.0
369,Low,right,90.0,-0.6511586182676723,1.0,19.0,High,7.0
370,Low,right,90.0,3.9804496200698267,1.0,20.0,High,7.0
371,Low,right,90.0,2.702587941291168,0.0,21.0,High,7.0
372,Low,right,90.0,2.8772876234641545,1.0,22.0,High,7.0
373,Low,right,90.0,2.959932952101209,0.0,23.0,High,7.0
374,Low,left,90.0,3.148564244170551,1.0,24.0,High,7.0
375,Low,left,90.0,3.959810144841845,1.0,25.0,High,7.0
376,Low,right,90.0,-1.9172646347635727,1.0,26.0,High,7.0
377,Low,right,90.0,-1.5443743461461272,0.0,27.0,High,7.0
378,Low,left,90.0,-0.8052425545939683,0.0,28.0,High,7.0
379,Low,left,90.0,-0.2140900866240827,1.0,29.0,High,7.0
380,Low,right,90.0,4.689653027820331,1.0,30.0,High,7.0
381,Low,right,90.0,3.328880493736941,1.0,31.0,High,7.0
382,Low,left,90.0,6.479710616378521,1.0,32.0,High,7.0
383,Low,right,90.0,1.2839585803577525,1.0,33.0,High,7.0
384,Low,left,90.0,1.1722438440062202,1.0,34.0,High,7.0
385,Low,left,90.0,0.15194629487506806,1.0,35.0,High,7.0
386,Low,left,90.0,4.04343262627466,0.0,36.0,High,7.0
387,Low,right,90.0,0.03276807971281004,0.0,37.0,High,7.0
388,Low,right,90.0,2.402845416924892,1.0,38.0,High,7.0
389,Low,right,90.0,0.6960468148885675,1.0,39.0,High,7.0
390,Low,left,90.0,0.9826594727890636,1.0,40.0,High,7.0
391,Low,right,90.0,3.7094888287200454,1.0,41.0,High,7.0
392,Low,left,90.0,1.5639846036456369,1.0,42.0,High,7.0
393,Low,right,90.0,2.869363878050758,0.0,43.0,High,7.0
394,Low,left,90.0,0.2940641377695148,1.0,44.0,High,7.0
395,Low,right,90.0,2.6101501452660854,0.0,45.0,High,7.0
396,Low,left,90.0,1.373887577858509,0.0,46.0,High,7.0
397,Low,right,90.0,0.2984287971427151,0.0,47.0,High,7.0
398,Low,right,90.0,2.812517133203468,1.0,48.0,High,7.0
399,Low,left,90.0,3.913759912127663,1.0,49.0,High,7.0
400,High,right,90.0,2.692031022998057,1.0,0.0,High,8.0
401,High,left,90.0,0.5474723521877525,1.0,1.0,High,8.0
402,High,right,90.0,2.9910918566319533,1.0,2.0,High,8.0
403,High,left,90.0,3.316688442342227,1.0,3.0,High,8.0
404,High,left,90.0,1.1536806002834865,1.0,4.0,High,8.0
405,High,left,90.0,-2.044928026782247,0.0,5.0,High,8.0
406,High,right,90.0,2.233220068555317,1.0,6.0,High,8.0
407,High,right,90.0,6.619708046506545,0.0,7.0,High,8.0
408,High,right,90.0,1.5854697441740413,0.0,8.0,High,8.0
409,High,left,90.0,3.283613013632684,1.0,9.0,High,8.0
410,High,right,90.0,1.3431083423913228,0.0,10.0,High,8.0
411,High,right,90.0,0.3470869831624308,0.0,11.0,High,8.0
412,High,right,90.0,4.0734316329878775,1.0,12.0,High,8.0
413,High,left,90.0,2.252046785373986,1.0,13.0,High,8.0
414,High,right,90.0,-0.9591389829289421,0.0,14.0,High,8.0
415,High,left,90.0,0.13425503417837392,0.0,15.0,High,8.0
416,High,left,90.0,4.072711945487978,1.0,16.0,High,8.0
417,High,left,90.0,3.567858003195878,1.0,17.0,High,8.0
418,High,right,90.0,-1.1474860679553172,1.0,18.0,High,8.0
419,High,left,90.0,1.0609583882455629,1.0,19.0,High,8.0
420,High,right,90.0,1.3602750613514811,0.0,20.0,High,8.0
421,High,left,90.0,1.5963584614615183,1.0,21.0,High,8.0
422,High,right,90.0,2.054748413384121,0.0,22.0,High,8.0
423,High,right,90.0,3.660106423232467,1.0,23.0,High,8.0
424,High,left,90.0,2.114078412201466,0.0,24.0,High,8.0
425,High,left,90.0,5.703041967949446,0.0,25.0,High,8.0
426,High,right,90.0,-0.21726432819521313,1.0,26.0,High,8.0
427,High,left,90.0,2.1819490789047826,0.0,27.0,High,8.0
428,High,right,90.0,4.089633103339773,1.0,28.0,High,8.0
429,High,right,90.0,-0.1827641400391311,1.0,29.0,High,8.0
430,High,left,90.0,3.4958151402109925,0.0,30.0,High,8.0
431,High,left,90.0,0.08721353878749594,0.0,31.0,High,8.0
432,High,right,90.0,2.1802489386899175,1.0,32.0,High,8.0
433,High,right,90.0,6.657763217253327,1.0,33.0,High,8.0
434,High,right,90.0,3.157478239431786,1.0,34.0,High,8.0
435,High,left,90.0,3.139366603350899,1.0,35.0,High,8.0
436,High,right,90.0,0.971849644600697,0.0,36.0,High,8.0
437,High,left,90.0,1.7821318793737606,1.0,37.0,High,8.0
438,High,left,90.0,4.123204482188066,1.0,38.0,High,8.0
439,High,left,90.0,-0.7199294153211975,0.0,39.0,High,8.0
440,High,left,90.0,4.464980703992563,1.0,40.0,High,8.0
441,High,left,90.0,4.862333557053899,0.0,41.0,High,8.0
442,High,right,90.0,1.7637473443985456,0.0,42.0,High,8.0
443,High,right,90.0,3.80336515280675,1.0,43.0,High,8.0
444,High,left,90.0,3.3860502308041913,1.0,44.0,High,8.0
445,High,right,90.0,2.8272324787291545,0.0,45.0,High,8.0
446,High,left,90.0,4.330561945331061,0.0,46.0,High,8.0
447,High,right,90.0,0.13191464800344121,1.0,47.0,High,8.0
448,High,left,90.0,-0.030713800596541274,0.0,48.0,High,8.0
449,High,right,90.0,2.898767851988883,1.0,49.0,High,8.0
450,Low,right,60.0,6.987075180525105,1.0,0.0,Low,9.0
451,Low,right,60.0,1.6663744819094213,0.0,1.0,Low,9.0
452,Low,right,60.0,1.5609029677122177,1.0,2.0,Low,9.0
453,Low,left,60.0,-0.11162839108110467,0.0,3.0,Low,9.0
454,Low,right,60.0,2.706732791332148,1.0,4.0,Low,9.0
455,Low,left,60.0,0.17227484310645114,0.0,5.0,Low,9.0
456,Low,left,60.0,1.1880148799096941,0.0,6.0,Low,9.0
457,Low,left,60.0,1.8175464137665436,1.0,7.0,Low,9.0
458,Low,left,60.0,-3.1259760637319283,0.0,8.0,Low,9.0
459,Low,left,60.0,4.315167116109993,0.0,9.0,Low,9.0
460,Low,right,60.0,2.18632194737076,1.0,10.0,Low,9.0
461,Low,right,60.0,4.837732931915406,1.0,11.0,Low,9.0
462,Low,left,60.0,2.895547483664985,0.0,12.0,Low,9.0
463,Low,right,60.0,1.94870976412026,1.0,13.0,Low,9.0
464,Low,right,60.0,4.347261627340621,1.0,14.0,Low,9.0
465,Low,right,60.0,-0.65506196962524,1.0,15.0,Low,9.0
466,Low,right,60.0,-2.2499010750702486,0.0,16.0,Low,9.0
467,Low,right,60.0,2.8984632302406332,0.0,17.0,Low,9.0
468,Low,left,60.0,2.649256236243752,0.0,18.0,Low,9.0
469,Low,right,60.0,4.379881499599548,0.0,19.0,Low,9.0
470,Low,left,60.0,2.143789715525654,0.0,20.0,Low,9.0
471,Low,left,60.0,7.547125710404929,1.0,21.0,Low,9.0
472,Low,left,60.0,1.9344523441069919,0.0,22.0,Low,9.0
473,Low,right,60.0,4.023929118081434,1.0,23.0,Low,9.0
474,Low,left,60.0,5.196153834692474,0.0,24.0,Low,9.0
475,Low,left,60.0,3.727855292778039,1.0,25.0,Low,9.0
476,Low,left,60.0,0.44990030799957026,0.0,26.0,Low,9.0
477,Low,left,60.0,-0.14015170230581342,1.0,27.0,Low,9.0
478,Low,right,60.0,3.5667560369198563,1.0,28.0,Low,9.0
479,Low,right,60.0,3.395506067179009,0.0,29.0,Low,9.0
480,Low,left,60.0,1.7828491740114152,0.0,30.0,Low,9.0
481,Low,left,60.0,0.851093684665835,1.0,31.0,Low,9.0
482,Low,right,60.0,2.2726701332589356,0.0,32.0,Low,9.0
483,Low,right,60.0,1.3894901137947098,0.0,33.0,Low,9.0
484,Low,left,60.0,3.7108897550418813,1.0,34.0,Low,9.0
485,Low,right,60.0,-0.2749148958925769,0.0,35.0,Low,9.0
486,Low,left,60.0,-0.8663680851397841,0.0,36.0,Low,9.0
487,Low,left,60.0,2.8785483427634193,1.0,37.0,Low,9.0
488,Low,right,60.0,2.840727860771542,1.0,38.0,Low,9.0
489,Low,right,60.0,4.148892974119393,0.0,39.0,Low,9.0
490,Low,right,60.0,1.9441821869002358,0.0,40.0,Low,9.0
491,Low,left,60.0,5.539618941920807,1.0,41.0,Low,9.0
492,Low,left,60.0,0.24134932692578337,0.0,42.0,Low,9.0
493,Low,left,60.0,2.4911874724078076,1.0,43.0,Low,9.0
494,Low,right,60.0,1.2408725492434933,0.0,44.0,Low,9.0
495,Low,right,60.0,-1.3430591202269944,1.0,45.0,Low,9.0
496,Low,right,60.0,7.203484823862853,0.0,46.0,Low,9.0
497,Low,left,60.0,3.798200922911512,0.0,47.0,Low,9.0
498,Low,right,60.0,-2.6563936661824274,1.0,48.0,Low,9.0
499,Low,right,60.0,2.5746341383842495,0.0,49.0,Low,9.0
500,High,left,90.0,1.0798114901892943,0.0,0.0,Low,10.0
501,High,left,90.0,1.9757580892668596,0.0,1.0,Low,10.0
502,High,left,90.0,4.549553759449701,1.0,2.0,Low,10.0
503,High,right,90.0,3.2478629421721896,1.0,3.0,Low,10.0
504,High,left,90.0,1.821422050441253,0.0,4.0,Low,10.0
505,High,right,90.0,4.355784047128241,0.0,5.0,Low,10.0
506,High,left,90.0,2.3684493270798432,0.0,6.0,Low,10.0
507,High,right,90.0,5.218935752299719,0.0,7.0,Low,10.0
508,High,left,90.0,-1.8917395390298006,0.0,8.0,Low,10.0
509,High,right,90.0,1.541337341675001,1.0,9.0,Low,10.0
510,High,right,90.0,1.039803467610566,0.0,10.0,Low,10.0
511,High,left,90.0,3.5605128265785515,0.0,11.0,Low,10.0
512,High,right,90.0,2.569864113901449,0.0,12.0,Low,10.0
513,High,right,90.0,-1.2191655082271702,0.0,13.0,Low,10.0
514,High,right,90.0,3.656553485884402,1.0,14.0,Low,10.0
515,High,left,90.0,2.3092479795499,0.0,15.0,Low,10.0
516,High,left,90.0,0.8073330881121257,1.0,16.0,Low,10.0
517,High,left,90.0,3.101196565621483,0.0,17.0,Low,10.0
518,High,right,90.0,0.45496115607071497,1.0,18.0,Low,10.0
519,High,right,90.0,2.850613921890931,0.0,19.0,Low,10.0
520,High,right,90.0,1.2096180094997488,1.0,20.0,Low,10.0
521,High,right,90.0,0.20761552410025375,0.0,21.0,Low,10.0
522,High,left,90.0,3.854378244844462,0.0,22.0,Low,10.0
523,High,left,90.0,1.1416746883332398,1.0,23.0,Low,10.0
524,High,right,90.0,6.404315141980003,0.0,24.0,Low,10.0
525,High,right,90.0,2.7691042883820094,1.0,25.0,Low,10.0
526,High,left,90.0,-0.8941725555958802,1.0,26.0,Low,10.0
527,High,right,90.0,3.7398055471052394,1.0,27.0,Low,10.0
528,High,right,90.0,0.8910940640497316,0.0,28.0,Low,10.0
529,High,left,90.0,3.352286010093356,1.0,29.0,Low,10.0
530,High,left,90.0,5.054468505243754,0.0,30.0,Low,10.0
531,High,left,90.0,3.9433669189777514,1.0,31.0,Low,10.0
532,High,left,90.0,0.45759160380873243,1.0,32.0,Low,10.0
533,High,left,90.0,2.654273197277967,0.0,33.0,Low,10.0
534,High,right,90.0,0.8314343498106735,1.0,34.0,Low,10.0
535,High,right,90.0,1.0663869691173367,1.0,35.0,Low,10.0
536,High,right,90.0,4.634175053610062,0.0,36.0,Low,10.0
537,High,left,90.0,2.185321887088438,1.0,37.0,Low,10.0
538,High,left,90.0,1.848356380932466,0.0,38.0,Low,10.0
539,High,right,90.0,2.8457101740726083,1.0,39.0,Low,10.0
540,High,left,90.0,1.3072074578323007,0.0,40.0,Low,10.0
541,High,left,90.0,3.9111149388541158,1.0,41.0,Low,10.0
542,High,right,90.0,1.1103392936638572,1.0,42.0,Low,10.0
543,High,left,90.0,1.4293346310970478,1.0,43.0,Low,10.0
544,High,left,90.0,3.2941915129611363,0.0,44.0,Low,10.0
545,High,right,90.0,-1.3524997058249655,1.0,45.0,Low,10.0
546,High,left,90.0,1.1452453183220581,0.0,46.0,Low,10.0
547,High,right,90.0,0.45411148913337707,0.0,47.0,Low,10.0
548,High,left,90.0,0.3658012769641037,0.0,48.0,Low,10.0
549,High,left,90.0,5.449762220368186,1.0,49.0,Low,10.0
550,Low,right,90.0,3.4515000105416025,1.0,0.0,Low,11.0
551,Low,right,90.0,1.7983605689949895,0.0,1.0,Low,11.0
552,Low,left,90.0,1.6763803167345244,1.0,2.0,Low,11.0
553,Low,left,90.0,2.222460535054099,0.0,3.0,Low,11.0
554,Low,right,90.0,4.638843252202988,1.0,4.0,Low,11.0
555,Low,left,90.0,-0.2469119890826983,0.0,5.0,Low,11.0
556,Low,right,90.0,3.38145581980237,1.0,6.0,Low,11.0
557,Low,left,90.0,0.9165892707348886,1.0,7.0,Low,11.0
558,Low,left,90.0,-0.5312643207197683,0.0,8.0,Low,11.0
559,Low,left,90.0,-0.27189148730677726,0.0,9.0,Low,11.0
560,Low,left,90.0,2.5767708032132832,1.0,10.0,Low,11.0
561,Low,right,90.0,4.026884571885676,1.0,11.0,Low,11.0
562,Low,left,90.0,4.529899942153145,1.0,12.0,Low,11.0
563,Low,left,90.0,0.407202721122349,1.0,13.0,Low,11.0
564,Low,left,90.0,2.0867258240509403,1.0,14.0,Low,11.0
565,Low,left,90.0,4.222662949855103,0.0,15.0,Low,11.0
566,Low,left,90.0,6.077169820511482,0.0,16.0,Low,11.0
567,Low,left,90.0,2.5901804666607697,0.0,17.0,Low,11.0
568,Low,right,90.0,2.1722178945827664,0.0,18.0,Low,11.0
569,Low,left,90.0,2.890103803354072,0.0,19.0,Low,11.0
570,Low,left,90.0,2.070434367995587,1.0,20.0,Low,11.0
571,Low,right,90.0,1.8936354772714041,1.0,21.0,Low,11.0
572,Low,right,90.0,2.556275268900447,1.0,22.0,Low,11.0
573,Low,right,90.0,1.9685969119053415,0.0,23.0,Low,11.0
574,Low,right,90.0,1.8808332153559306,1.0,24.0,Low,11.0
575,Low,right,90.0,5.200291473523654,0.0,25.0,Low,11.0
576,Low,left,90.0,1.069715983515536,1.0,26.0,Low,11.0
577,Low,left,90.0,1.8230824089401287,1.0,27.0,Low,11.0
578,Low,left,90.0,1.4069127495560378,0.0,28.0,Low,11.0
579,Low,right,90.0,3.337642906661364,0.0,29.0,Low,11.0
580,Low,left,90.0,1.0584843728934428,0.0,30.0,Low,11.0
581,Low,right,90.0,0.6387886445241726,1.0,31.0,Low,11.0
582,Low,right,90.0,2.0573604835370776,0.0,32.0,Low,11.0
583,Low,left,90.0,4.555536587827696,1.0,33.0,Low,11.0
584,Low,right,90.0,-1.7474056488801228,0.0,34.0,Low,11.0
585,Low,right,90.0,2.492814708022549,0.0,35.0,Low,11.0
586,Low,right,90.0,-0.9162791183764516,0.0,36.0,Low,11.0
587,Low,right,90.0,3.6407645600248193,1.0,37.0,Low,11.0
588,Low,right,90.0,1.8663968473567878,0.0,38.0,Low,11.0
589,Low,right,90.0,2.8536709530563007,1.0,39.0,Low,11.0
590,Low,right,90.0,1.1944850507888096,1.0,40.0,Low,11.0
591,Low,right,90.0,2.423050332874034,1.0,41.0,Low,11.0
592,Low,right,90.0,-2.640907465857624,1.0,42.0,Low,11.0
593,Low,left,90.0,2.005279794651372,1.0,43.0,Low,11.0
594,Low,left,90.0,0.7197187574743149,1.0,44.0,Low,11.0
595,Low,right,90.0,4.099394191865728,1.0,45.0,Low,11.0
596,Low,left,90.0,1.5565286583548112,1.0,46.0,Low,11.0
597,Low,left,90.0,-0.26500240520487406,1.0,47.0,Low,11.0
598,Low,right,90.0,1.9843273277160192,0.0,48.0,Low,11.0
599,Low,right,90.0,1.9449329791250514,0.0,49.0,Low,11.0
