,Arousal,KeyPressed,LearningTime,RT,Response,TrialNumber,Valence,nBlock
0,High,right,30.0,2.689480214100875,0.0,0.0,Low,0.0
1,High,right,30.0,2.7411872988680903,0.0,1.0,Low,0.0
2,High,left,30.0,4.503076958270391,0.0,2.0,Low,0.0
3,High,left,30.0,0.9235128672647119,1.0,3.0,Low,0.0
4,High,left,30.0,4.52322099387704,1.0,4.0,Low,0.0
5,High,left,30.0,2.4588592398037084,1.0,5.0,Low,0.0
6,High,right,30.0,6.11521030566549,0.0,6.0,Low,0.0
7,High,right,30.0,0.16521352497133268,0.0,7.0,Low,0.0
8,High,left,30.0,3.95483758417671,1.0,8.0,Low,0.0
9,High,right,30.0,2.348198075024643,0.0,9.0,Low,0.0
10,High,right,30.0,3.4646042723792405,0.0,10.0,Low,0.0
11,High,right,30.0,3.94704980896027,0.0,11.0,Low,0.0
12,High,right,30.0,-0.4660690658108988,1.0,12.0,Low,0.0
13,High,left,30.0,1.2521763807442663,1.0,13.0,Low,0.0
14,High,left,30.0,3.844150955891885,1.0,14.0,Low,0.0
15,High,left,30.0,1.5794213457700859,1.0,15.0,Low,0.0
16,High,right,30.0,3.6410897000185045,1.0,16.0,Low,0.0
17,High,right,30.0,-1.6681422040464344,1.0,17.0,Low,0.0
18,High,right,30.0,2.0203082153881664,1.0,18.0,Low,0.0
19,High,left,30.0,3.441281446880544,0.0,19.0,Low,0.0
20,High,left,30.0,-0.3059799711133473,0.0,20.0,Low,0.0
21,High,right,30.0,5.506946954419225,0.0,21.0,Low,0.0
22,High,left,30.0,2.819826252984619,1.0,22.0,Low,0.0
23,High,right,30.0,1.7924313291555685,0.0,23.0,Low,0.0
24,High,left,30.0,0.1608038405615515,1.0,24.0,Low,0.0
25,High,right,30.0,0.4810483102326639,1.0,25.0,Low,0.0
26,High,left,30.0,3.596583880621422,1.0,26.0,Low,0.0
27,High,left,30.0,3.4467422609108036,1.0,27.0,Low,0.0
28,High,right,30.0,1.1359476938671924,1.0,28.0,Low,0.0
29,High,right,30.0,1.436652916678776,1.0,29.0,Low,0.0
30,High,left,30.0,2.7744504424361196,1.0,30.0,Low,0.0
31,High,right,30.0,2.6864975198780994,0.0,31.0,Low,0.0
32,High,left,30.0,2.1894824047177255,0.0,32.0,Low,0.0
33,High,left,30.0,5.103360124711043,0.0,33.0,Low,0.0
34,High,right,30.0,2.6654292161035116,0.0,34.0,Low,0.0
35,High,right,30.0,-1.7005222513959182,0.0,35.0,Low,0.0
36,High,right,30.0,3.5348679436705646,1.0,36.0,Low,0.0
37,High,right,30.0,-0.9781853777065277,1.0,37.0,Low,0.0
38,High,right,30.0,-0.3028858581826803,1.0,38.0,Low,0.0
39,High,left,30.0,6.747340433744075,1.0,39.0,Low,0.0
40,High,right,30.0,1.2417360777709217,1.0,40.0,Low,0.0
41,High,right,30.0,-1.7926672492681166,1.0,41.0,Low,0.0
42,High,left,30.0,-1.3293955603717889,1.0,42.0,Low,0.0
43,High,right,30.0,0.8400080120224771,0.0,43.0,Low,0.0
44,High,right,30.0,4.726233885266872,1.0,44.0,Low,0.0
45,High,right,30.0,2.739396838097183,0.0,45.0,Low,0.0
46,High,left,30.0,-0.7557350659371875,1.0,46.0,Low,0.0
47,High,left,30.0,6.378591194754118,0.0,47.0,Low,0.0
48,High,right,30.0,-0.4324393262660091,1.0,48.0,Low,0.0
49,High,right,30.0,3.4824781158494518,1.0,49.0,Low,0.0
50,Low,left,30.0,3.600257549709182,0.0,0.0,High,1.0
51,Low,left,30.0,3.6032350783497407,0.0,1.0,High,1.0
52,Low,right,30.0,-0.12909335195043248,0.0,2.0,High,1.0
53,Low,right,30.0,-1.2005920817594622,1.0,3.0,High,1.0
54,Low,right,30.0,4.332981441683041,1.0,4.0,High,1.0
55,Low,left,30.0,3.750465072543002,1.0,5.0,High,1.0
56,Low,right,30.0,2.523162670296347,0.0,6.0,High,1.0
57,Low,right,30.0,4.086487282617176,0.0,7.0,High,1.0
58,Low,right,30.0,2.375380523216238,0.0,8.0,High,1.0
59,Low,left,30.0,0.9136818585056208,0.0,9.0,High,1.0
60,Low,right,30.0,4.336533199919966,1.0,10.0,High,1.0
61,Low,right,30.0,2.618302029876972,1.0,11.0,High,1.0
62,Low,right,30.0,-1.1758817659450211,0.0,12.0,High,1.0
63,Low,right,30.0,2.9384371723820313,0.0,13.0,High,1.0
64,Low,right,30.0,-1.2551163577466204,0.0,14.0,High,1.0
65,Low,right,30.0,-0.9334739409790958,0.0,15.0,High,1.0
66,Low,left,30.0,3.011106167442012,0.0,16.0,High,1.0
67,Low,left,30.0,0.24929584387413817,0.0,17.0,High,1.0
68,Low,left,30.0,4.164821386072408,1.0,18.0,High,1.0
69,Low,right,30.0,-1.0159640238392078,0.0,19.0,High,1.0
70,Low,left,30.0,-0.16631786451632058,1.0,20.0,High,1.0
71,Low,left,30.0,-1.2065273414838686,0.0,21.0,High,1.0
72,Low,right,30.0,-0.19781693622887309,1.0,22.0,High,1.0
73,Low,left,30.0,3.1401677122028104,1.0,23.0,High,1.0
74,Low,right,30.0,4.696252995216195,0.0,24.0,High,1.0
75,Low,right,30.0,1.3737735774865123,1.0,25.0,High,1.0
76,Low,right,30.0,4.265081923425041,1.0,26.0,High,1.0
77,Low,right,30.0,3.30577681192044,0.0,27.0,High,1.0
78,Low,left,30.0,-0.6402215578551291,0.0,28.0,High,1.0
79,Low,right,30.0,-0.9799335906983064,1.0,29.0,High,1.0
80,Low,left,30.0,2.0776966894882625,0.0,30.0,High,1.0
81,Low,left,30.0,0.49420600740801546,1.0,31.0,High,1.0
82,Low,left,30.0,1.5322611048799675,1.0,32.0,High,1.0
83,Low,right,30.0,1.608571092022161,0.0,33.0,High,1.0
84,Low,right,30.0,1.5083442466741221,1.0,34.0,High,1.0
85,Low,left,30.0,-2.680808474269459,1.0,35.0,High,1.0
86,Low,right,30.0,1.3020022398305486,1.0,36.0,High,1.0
87,Low,left,30.0,2.587429023088064,1.0,37.0,High,1.0
88,Low,right,30.0,2.1487439894326736,1.0,38.0,High,1.0
89,Low,right,30.0,5.476289501514714,0.0,39.0,High,1.0
90,Low,left,30.0,4.314636149667966,1.0,40.0,High,1.0
91,Low,right,30.0,1.2249938882820692,1.0,41.0,High,1.0
92,Low,right,30.0,1.9321416172376682,0.0,42.0,High,1.0
93,Low,left,30.0,3.0095494518415045,0.0,43.0,High,1.0
94,Low,right,30.0,3.344969253643651,1.0,44.0,High,1.0
95,Low,left,30.0,2.0478046579753255,0.0,45.0,High,1.0
96,Low,right,30.0,-1.2526412066362922,0.0,46.0,High,1.0
97,Low,left,30.0,2.238566099667289,0.0,47.0,High,1.0
98,Low,left,30.0,9.14720980639429,0.0,48.0,High,1.0
99,Low,left,30.0,1.0594336894666534,1.0,49.0,High,1.0
100,High,right,30.0,1.255858917143827,1.0,0.0,High,2.0
101,High,right,30.0,4.646976586733492,1.0,1.0,High,2.0
102,High,left,30.0,4.87010634518739,0.0,2.0,High,2.0
103,High,left,30.0,1.192481374715317,1.0,3.0,High,2.0
104,High,right,30.0,1.641315632257598,1.0,4.0,High,2.0
105,High,right,30.0,4.311339145863569,1.0,5.0,High,2.0
106,High,left,30.0,2.578398295868312,1.0,6.0,High,2.0
107,High,right,30.0,-2.11019665002427,1.0,7.0,High,2.0
108,High,right,30.0,5.136308328143025,0.0,8.0,High,2.0
109,High,left,30.0,1.4145263125666105,0.0,9.0,High,2.0
110,High,right,30.0,4.566595564286576,0.0,10.0,High,2.0
111,High,left,30.0,0.06786294649055336,0.0,11.0,High,2.0
112,High,right,30.0,3.554297428040332,1.0,12.0,High,2.0
113,High,left,30.0,2.417877048736737,0.0,13.0,High,2.0
114,High,right,30.0,4.389185618589776,0.0,14.0,High,2.0
115,High,left,30.0,4.900486426883681,1.0,15.0,High,2.0
116,High,right,30.0,0.5694558549734876,0.0,16.0,High,2.0
117,High,left,30.0,-1.9022627298710697,1.0,17.0,High,2.0
118,High,right,30.0,4.151141246425056,1.0,18.0,High,2.0
119,High,left,30.0,1.0808063657412699,1.0,19.0,High,2.0
120,High,left,30.0,2.6782925326806604,0.0,20.0,High,2.0
121,High,right,30.0,7.0472039727300615,0.0,21.0,High,2.0
122,High,left,30.0,0.6368109155410782,1.0,22.0,High,2.0
123,High,left,30.0,2.4369647075397554,0.0,23.0,High,2.0
124,High,left,30.0,1.416479684307392,0.0,24.0,High,2.0
125,High,right,30.0,1.7838517411589467,0.0,25.0,High,2.0
126,High,right,30.0,2.526617366212948,1.0,26.0,High,2.0
127,High,left,30.0,-0.029034717621654327,0.0,27.0,High,2.0
128,High,left,30.0,6.182805108969453,1.0,28.0,High,2.0
129,High,right,30.0,3.717741973408618,0.0,29.0,High,2.0
130,High,left,30.0,2.58822439286017,0.0,30.0,High,2.0
131,High,right,30.0,5.082965185718763,0.0,31.0,High,2.0
132,High,right,30.0,0.9288109942489,0.0,32.0,High,2.0
133,High,left,30.0,1.4587639360030547,1.0,33.0,High,2.0
134,High,left,30.0,4.754524423504533,0.0,34.0,High,2.0
135,High,left,30.0,3.82599719990708,1.0,35.0,High,2.0
136,High,left,30.0,7.629579469150135,0.0,36.0,High,2.0
137,High,left,30.0,2.859541970731621,0.0,37.0,High,2.0
138,High,left,30.0,0.8400203647578377,0.0,38.0,High,2.0
139,High,left,30.0,1.0569665690264378,0.0,39.0,High,2.0
140,High,left,30.0,0.06769252875466991,0.0,40.0,High,2.0
141,High,left,30.0,2.040284311023127,1.0,41.0,High,2.0
142,High,left,30.0,1.1754182868823377,0.0,42.0,High,2.0
143,High,left,30.0,2.081357781722218,0.0,43.0,High,2.0
144,High,left,30.0,-0.18570066710491817,1.0,44.0,High,2.0
145,High,right,30.0,1.3806843437271645,0.0,45.0,High,2.0
146,High,right,30.0,0.89055783330915,1.0,46.0,High,2.0
147,High,left,30.0,3.1934666843760393,1.0,47.0,High,2.0
148,High,right,30.0,2.9669540023665015,0.0,48.0,High,2.0
149,High,left,30.0,-1.9260675409103756,0.0,49.0,High,2.0
150,Low,left,60.0,5.296636487354725,0.0,0.0,High,3.0
151,Low,left,60.0,-2.336910098353825,0.0,1.0,High,3.0
152,Low,right,60.0,5.8011170286579326,0.0,2.0,High,3.0
153,Low,right,60.0,3.416496877935394,0.0,3.0,High,3.0
154,Low,left,60.0,3.1472256923383677,1.0,4.0,High,3.0
155,Low,left,60.0,1.6706146776949427,0.0,5.0,High,3.0
156,Low,right,60.0,2.5261814082237066,1.0,6.0,High,3.0
157,Low,left,60.0,5.050704271396748,1.0,7.0,High,3.0
158,Low,right,60.0,2.493295567789421,1.0,8.0,High,3.0
159,Low,left,60.0,3.609396878681753,0.0,9.0,High,3.0
160,Low,right,60.0,-0.8729319550074648,1.0,10.0,High,3.0
161,Low,right,60.0,3.7404849397112336,0.0,11.0,High,3.0
162,Low,left,60.0,2.2544353494151395,0.0,12.0,High,3.0
163,Low,right,60.0,1.7654850349363604,1.0,13.0,High,3.0
164,Low,right,60.0,0.7849126796289456,0.0,14.0,High,3.0
165,Low,left,60.0,-0.1838595914019976,0.0,15.0,High,3.0
166,Low,left,60.0,2.4253167127677258,1.0,16.0,High,3.0
167,Low,right,60.0,2.3391909383596694,1.0,17.0,High,3.0
168,Low,right,60.0,1.0542752293043702,0.0,18.0,High,3.0
169,Low,right,60.0,1.9525280503074933,0.0,19.0,High,3.0
170,Low,left,60.0,2.471881298257035,1.0,20.0,High,3.0
171,Low,right,60.0,-0.707713992150548,0.0,21.0,High,3.0
172,Low,left,60.0,2.8509213904762416,0.0,22.0,High,3.0
173,Low,left,60.0,-1.3198562806248315,0.0,23.0,High,3.0
174,Low,left,60.0,4.704638784197726,0.0,24.0,High,3.0
175,Low,right,60.0,0.6399946343327729,0.0,25.0,High,3.0
176,Low,left,60.0,0.4741250586958141,1.0,26.0,High,3.0
177,Low,left,60.0,1.80853464731791,1.0,27.0,High,3.0
178,Low,right,60.0,4.314276462854938,1.0,28.0,High,3.0
179,Low,right,60.0,0.6803844910342458,0.0,29.0,High,3.0
180,Low,left,60.0,0.8258218447091721,1.0,30.0,High,3.0
181,Low,right,60.0,1.3614456807347235,1.0,31.0,High,3.0
182,Low,left,60.0,2.3469195868432657,1.0,32.0,High,3.0
183,Low,left,60.0,2.2454428705257334,1.0,33.0,High,3.0
184,Low,left,60.0,-0.15353623360428892,0.0,34.0,High,3.0
185,Low,left,60.0,0.5299525697233229,1.0,35.0,High,3.0
186,Low,right,60.0,5.753939597634039,0.0,36.0,High,3.0
187,Low,left,60.0,6.76463388195519,1.0,37.0,High,3.0
188,Low,left,60.0,1.1800157542398841,1.0,38.0,High,3.0
189,Low,left,60.0,0.6658271590696867,0.0,39.0,High,3.0
190,Low,right,60.0,0.31580086278845965,1.0,40.0,High,3.0
191,Low,right,60.0,-2.378180037346492,1.0,41.0,High,3.0
192,Low,right,60.0,0.8989193583439095,0.0,42.0,High,3.0
193,Low,left,60.0,4.145828863761205,0.0,43.0,High,3.0
194,Low,left,60.0,3.376443788598391,0.0,44.0,High,3.0
195,Low,right,60.0,0.44383343993945923,1.0,45.0,High,3.0
196,Low,right,60.0,0.15577614527523242,0.0,46.0,High,3.0
197,Low,right,60.0,3.3696982183643165,0.0,47.0,High,3.0
198,Low,right,60.0,0.7298712980357418,1.0,48.0,High,3.0
199,Low,right,60.0,2.236992892671819,0.0,49.0,High,3.0
200,High,right,60.0,-1.1158776242282182,1.0,0.0,Low,4.0
201,High,left,60.0,6.644082906920495,1.0,1.0,Low,4.0
202,High,right,60.0,1.0492427039622434,0.0,2.0,Low,4.0
203,High,left,60.0,-2.0126288157798284,0.0,3.0,Low,4.0
204,High,left,60.0,2.9279516969075328,0.0,4.0,Low,4.0
205,High,left,60.0,2.1137769837080738,1.0,5.0,Low,4.0
206,High,left,60.0,4.409941761005031,1.0,6.0,Low,4.0
207,High,right,60.0,-0.8047488566108947,0.0,7.0,Low,4.0
208,High,right,60.0,4.012304588162431,1.0,8.0,Low,4.0
209,High,right,60.0,1.7062657585521648,0.0,9.0,Low,4.0
210,High,right,60.0,0.7580445747887452,0.0,10.0,Low,4.0
211,High,right,60.0,-0.3220266694129519,0.0,11.0,Low,4.0
212,High,right,60.0,4.114431570576631,1.0,12.0,Low,4.0
213,High,right,60.0,0.6135719883437232,0.0,13.0,Low,4.0
214,High,right,60.0,2.734648700062208,0.0,14.0,Low,4.0
215,High,right,60.0,0.4464660972545629,0.0,15.0,Low,4.0
216,High,right,60.0,2.327960187154001,0.0,16.0,Low,4.0
217,High,right,60.0,0.6771728650151079,1.0,17.0,Low,4.0
218,High,left,60.0,2.8965841683332716,1.0,18.0,Low,4.0
219,High,right,60.0,2.5056095694280653,0.0,19.0,Low,4.0
220,High,left,60.0,-1.0702592986613828,0.0,20.0,Low,4.0
221,High,right,60.0,-1.3247062862976768,0.0,21.0,Low,4.0
222,High,left,60.0,1.2195507449368486,1.0,22.0,Low,4.0
223,High,right,60.0,-1.5120262120924706,1.0,23.0,Low,4.0
224,High,right,60.0,0.10473106909192453,0.0,24.0,Low,4.0
225,High,right,60.0,2.015864237373353,1.0,25.0,Low,4.0
226,High,right,60.0,4.296570144538954,1.0,26.0,Low,4.0
227,High,left,60.0,2.788902737344764,0.0,27.0,Low,4.0
228,High,right,60.0,0.2006030503454319,1.0,28.0,Low,4.0
229,High,left,60.0,1.1219571802206239,0.0,29.0,Low,4.0
230,High,left,60.0,3.6576002842994235,1.0,30.0,Low,4.0
231,High,right,60.0,-1.6066930930124346,0.0,31.0,Low,4.0
232,High,left,60.0,0.1767668729009555,0.0,32.0,Low,4.0
233,High,left,60.0,4.267747939385384,1.0,33.0,Low,4.0
234,High,left,60.0,-0.24945623208911716,0.0,34.0,Low,4.0
235,High,left,60.0,0.09670257962784601,1.0,35.0,Low,4.0
236,High,right,60.0,2.496373406660661,1.0,36.0,Low,4.0
237,High,left,60.0,0.20442416291204069,1.0,37.0,Low,4.0
238,High,left,60.0,2.3003923866516747,0.0,38.0,Low,4.0
239,High,right,60.0,3.395185237300633,1.0,39.0,Low,4.0
240,High,right,60.0,-2.263435029975434,0.0,40.0,Low,4.0
241,High,left,60.0,1.3666291866773905,0.0,41.0,Low,4.0
242,High,right,60.0,-0.32222516158771186,1.0,42.0,Low,4.0
243,High,left,60.0,2.75098648617981,1.0,43.0,Low,4.0
244,High,right,60.0,3.4257828499262803,1.0,44.0,Low,4.0
245,High,right,60.0,2.4215850843743842,0.0,45.0,Low,4.0
246,High,left,60.0,0.41920014275028894,0.0,46.0,Low,4.0
247,High,left,60.0,-0.9735935035052004,0.0,47.0,Low,4.0
248,High,left,60.0,5.502359868893642,1.0,48.0,Low,4.0
249,High,right,60.0,2.1980558983163236,1.0,49.0,Low,4.0
250,Low,right,30.0,3.7253032837926483,1.0,0.0,Low,5.0
251,Low,left,30.0,3.772562968125486,1.0,1.0,Low,5.0
252,Low,left,30.0,0.5428371368135345,1.0,2.0,Low,5.0
253,Low,right,30.0,5.513630670748588,0.0,3.0,Low,5.0
254,Low,right,30.0,1.9987629850022932,1.0,4.0,Low,5.0
255,Low,right,30.0,1.9793868195980446,1.0,5.0,Low,5.0
256,Low,right,30.0,2.0195250884873084,1.0,6.0,Low,5.0
257,Low,left,30.0,3.010467335836685,0.0,7.0,Low,5.0
258,Low,right,30.0,3.389215090585938,0.0,8.0,Low,5.0
259,Low,left,30.0,5.249599611431661,1.0,9.0,Low,5.0
260,Low,right,30.0,-1.3257473441944598,0.0,10.0,Low,5.0
261,Low,left,30.0,-1.7886377009121281,0.0,11.0,Low,5.0
262,Low,left,30.0,-1.4620925979461399,0.0,12.0,Low,5.0
263,Low,left,30.0,1.9389185899141488,0.0,13.0,Low,5.0
264,Low,right,30.0,-4.150912078812095,0.0,14.0,Low,5.0
265,Low,right,30.0,4.634650558082729,1.0,15.0,Low,5.0
266,Low,right,30.0,1.9326235750191005,0.0,16.0,Low,5.0
267,Low,right,30.0,2.2645082005989767,0.0,17.0,Low,5.0
268,Low,left,30.0,1.9444595664765258,0.0,18.0,Low,5.0
269,Low,left,30.0,4.662850782794584,0.0,19.0,Low,5.0
270,Low,right,30.0,3.9224595285083117,1.0,20.0,Low,5.0
271,Low,left,30.0,2.3329283294909002,0.0,21.0,Low,5.0
272,Low,right,30.0,1.3808962213386788,1.0,22.0,Low,5.0
273,Low,left,30.0,0.5364401719139931,0.0,23.0,Low,5.0
274,Low,right,30.0,6.0557022807865675,0.0,24.0,Low,5.0
275,Low,left,30.0,0.7615309113042447,0.0,25.0,Low,5.0
276,Low,right,30.0,1.6148490880097723,1.0,26.0,Low,5.0
277,Low,left,30.0,1.0371130973725255,1.0,27.0,Low,5.0
278,Low,left,30.0,1.2068251419847593,1.0,28.0,Low,5.0
279,Low,right,30.0,4.346970962742835,1.0,29.0,Low,5.0
280,Low,left,30.0,1.1604473552721304,0.0,30.0,Low,5.0
281,Low,left,30.0,3.4440009673922924,0.0,31.0,Low,5.0
282,Low,left,30.0,0.021904222914847615,1.0,32.0,Low,5.0
283,Low,right,30.0,1.4622064148217238,1.0,33.0,Low,5.0
284,Low,left,30.0,2.4534864719568024,1.0,34.0,Low,5.0
285,Low,right,30.0,2.970426345917528,1.0,35.0,Low,5.0
286,Low,left,30.0,2.448996601262954,0.0,36.0,Low,5.0
287,Low,right,30.0,3.0336815315963213,0.0,37.0,Low,5.0
288,Low,left,30.0,3.6325123790055893,0.0,38.0,Low,5.0
289,Low,left,30.0,2.015994331287555,0.0,39.0,Low,5.0
290,Low,right,30.0,5.4363998741722055,0.0,40.0,Low,5.0
291,Low,right,30.0,2.678469958067044,0.0,41.0,Low,5.0
292,Low,right,30.0,4.198113598042746,0.0,42.0,Low,5.0
293,Low,right,30.0,3.835074491113275,0.0,43.0,Low,5.0
294,Low,left,30.0,5.599417309932109,0.0,44.0,Low,5.0
295,Low,left,30.0,4.188812741762609,0.0,45.0,Low,5.0
296,Low,right,30.0,0.3427568487726751,0.0,46.0,Low,5.0
297,Low,left,30.0,2.290237184249333,0.0,47.0,Low,5.0
298,Low,right,30.0,1.3585653423485604,0.0,48.0,Low,5.0
299,Low,right,30.0,1.886750873364611,1.0,49.0,Low,5.0
300,High,right,60.0,2.7715574866150323,0.0,0.0,High,6.0
301,High,right,60.0,3.20620116757565,1.0,1.0,High,6.0
302,High,left,60.0,-1.1584279052487552,0.0,2.0,High,6.0
303,High,left,60.0,0.2297055990830401,1.0,3.0,High,6.0
304,High,left,60.0,-0.8499281185467544,0.0,4.0,High,6.0
305,High,left,60.0,-2.8827770754974633,1.0,5.0,High,6.0
306,High,left,60.0,0.20546634930852736,0.0,6.0,High,6.0
307,High,left,60.0,0.9237821509556035,0.0,7.0,High,6.0
308,High,right,60.0,2.278149377164713,1.0,8.0,High,6.0
309,High,right,60.0,2.4270301390269546,0.0,9.0,High,6.0
310,High,right,60.0,3.026626081814494,0.0,10.0,High,6.0
311,High,left,60.0,3.9251297822017586,1.0,11.0,High,6.0
312,High,left,60.0,2.78696842660501,1.0,12.0,High,6.0
313,High,right,60.0,4.560431315628612,0.0,13.0,High,6.0
314,High,right,60.0,2.5787322600445384,1.0,14.0,High,6.0
315,High,right,60.0,5.445010937784204,1.0,15.0,High,6.0
316,High,left,60.0,-1.4198644659180553,0.0,16.0,High,6.0
317,High,right,60.0,2.9196177389891855,1.0,17.0,High,6.0
318,High,left,60.0,2.5099766286732192,0.0,18.0,High,6.0
319,High,left,60.0,2.4474154337221243,1.0,19.0,High,6.0
320,High,right,60.0,2.910232553245417,0.0,20.0,High,6.0
321,High,right,60.0,1.41482075968837,0.0,21.0,High,6.0
322,High,left,60.0,4.929380730050722,0.0,22.0,High,6.0
323,High,left,60.0,1.1750686664683687,0.0,23.0,High,6.0
324,High,left,60.0,3.528895459824162,0.0,24.0,High,6.0
325,High,right,60.0,4.979516820676519,1.0,25.0,High,6.0
326,High,right,60.0,1.362547568361569,1.0,26.0,High,6.0
327,High,left,60.0,3.435190847448615,0.0,27.0,High,6.0
328,High,left,60.0,-1.2452756067090833,0.0,28.0,High,6.0
329,High,left,60.0,2.7002146928636566,0.0,29.0,High,6.0
330,High,left,60.0,3.552390179504682,0.0,30.0,High,6.0
331,High,left,60.0,1.4532831857679533,1.0,31.0,High,6.0
332,High,right,60.0,2.100218355760177,0.0,32.0,High,6.0
333,High,left,60.0,-0.03070507251249066,0.0,33.0,High,6.0
334,High,left,60.0,1.4221099456945359,1.0,34.0,High,6.0
335,High,right,60.0,2.3156036212839632,0.0,35.0,High,6.0
336,High,left,60.0,0.4358397348950387,0.0,36.0,High,6.0
337,High,left,60.0,0.10422621721295444,0.0,37.0,High,6.0
338,High,right,60.0,2.1469948476653498,0.0,38.0,High,6.0
339,High,left,60.0,-0.963626981325727,0.0,39.0,High,6.0
340,High,left,60.0,3.0062280439161757,1.0,40.0,High,6.0
341,High,left,60.0,2.301469700423419,0.0,41.0,High,6.0
342,High,right,60.0,0.8722926518850591,1.0,42.0,High,6.0
343,High,right,60.0,0.4986787705489635,1.0,43.0,High,6.0
344,High,right,60.0,1.542560733214214,1.0,44.0,High,6.0
345,High,left,60.0,3.673134732211426,0.0,45.0,High,6.0
346,High,right,60.0,2.0581980662205694,0.0,46.0,High,6.0
347,High,right,60.0,-2.1686824739242074,1.0,47.0,High,6.0
348,High,right,60.0,2.3008564877752407,1.0,48.0,High,6.0
349,High,left,60.0,-0.4908916921979989,0.0,49.0,High,6.0
350,Low,left,90.0,-0.8223243205090447,1.0,0.0,High,7.0
351,Low,left,90.0,5.588593284515605,1.0,1.0,High,7.0
352,Low,left,90.0,1.1341570982583644,0.0,2.0,High,7.0
353,Low,left,90.0,0.8622227499465619,0.0,3.0,High,7.0
354,Low,left,90.0,-1.095568262390331,0.0,4.0,High,7.0
355,Low,left,90.0,4.593651620574917,0.0,5.0,High,7.0
356,Low,right,90.0,0.6406395185639004,1.0,6.0,High,7.0
357,Low,right,90.0,2.577666045359129,0.0,7.0,High,7.0
358,Low,right,90.0,3.100589223138174,1.0,8.0,High,7.0
359,Low,left,90.0,-0.0075840136183058515,1.0,9.0,High,7.0
360,Low,left,90.0,5.425273320616313,1.0,10.0,High,7.0
361,Low,right,90.0,3.0093294816081704,0.0,11.0,High,7.0
362,Low,left,90.0,4.52444829875529,0.0,12.0,High,7.0
363,Low,right,90.0,3.4124370029362767,0.0,13.0,High,7.0
364,Low,right,90.0,1.6453839523536136,1.0,14.0,High,7.0
365,Low,right,90.0,-2.344223138996078,1.0,15.0,High,7.0
366,Low,right,90.0,3.8026984225704963,1.0,16.0,High,7.0
367,Low,right,90.0,2.954566572306483,0.0,17.0,High,7.0
368,Low,right,90.0,1.7571392433624973,1.0,18.0,High,7.0
369,Low,left,90.0,0.8765377550838138,0.0,19.0,High,7.0
370,Low,right,90.0,2.0890709028867147,1.0,20.0,High,7.0
371,Low,left,90.0,3.463569107263545,0.0,21.0,High,7.0
372,Low,left,90.0,2.4462567201861334,1.0,22.0,High,7.0
373,Low,left,90.0,5.019813541413168,0.0,23.0,High,7.0
374,Low,right,90.0,5.217108069805056,1.0,24.0,High,7.0
375,Low,left,90.0,-0.2550879626547975,1.0,25.0,High,7.0
376,Low,right,90.0,3.8961101200023514,0.0,26.0,High,7.0
377,Low,right,90.0,0.5753839248323214,1.0,27.0,High,7.0
378,Low,left,90.0,-1.024142767974364,0.0,28.0,High,7.0
379,Low,right,90.0,3.024257855081926,0.0,29.0,High,7.0
380,Low,right,90.0,0.5952629967905952,1.0,30.0,High,7.0
381,Low,left,90.0,5.464083726839262,1.0,31.0,High,7.0
382,Low,left,90.0,1.9943476621775542,0.0,32.0,High,7.0
383,Low,right,90.0,-1.9954528826213895,0.0,33.0,High,7.0
384,Low,left,90.0,3.6535560053596194,0.0,34.0,High,7.0
385,Low,left,90.0,4.179735653711227,1.0,35.0,High,7.0
386,Low,left,90.0,4.268228182558201,1.0,36.0,High,7.0
387,Low,right,90.0,-2.4309723274778428,0.0,37.0,High,7.0
388,Low,right,90.0,0.8924665552245454,1.0,38.0,High,7.0
389,Low,left,90.0,-0.627566047581047,0.0,39.0,High,7.0
390,Low,left,90.0,0.8680515514891713,1.0,40.0,High,7.0
391,Low,right,90.0,4.894323697147622,1.0,41.0,High,7.0
392,Low,right,90.0,1.8761988384391564,0.0,42.0,High,7.0
393,Low,left,90.0,3.108976356470839,0.0,43.0,High,7.0
394,Low,left,90.0,5.377251109386066,0.0,44.0,High,7.0
395,Low,left,90.0,1.8629693506826819,0.0,45.0,High,7.0
396,Low,right,90.0,2.8762274992258847,1.0,46.0,High,7.0
397,Low,right,90.0,0.19535221036397,1.0,47.0,High,7.0
398,Low,left,90.0,4.815193838125789,0.0,48.0,High,7.0
399,Low,left,90.0,-0.3419024907534891,1.0,49.0,High,7.0
400,High,right,90.0,1.100813881936237,0.0,0.0,High,8.0
401,High,left,90.0,-0.7345349876336114,0.0,1.0,High,8.0
402,High,right,90.0,3.0082973731750253,1.0,2.0,High,8.0
403,High,right,90.0,1.562161470037589,1.0,3.0,High,8.0
404,High,left,90.0,3.3307471208229433,1.0,4.0,High,8.0
405,High,right,90.0,1.5289780297770332,1.0,5.0,High,8.0
406,High,left,90.0,3.0837071339706785,1.0,6.0,High,8.0
407,High,left,90.0,0.36744777357175273,1.0,7.0,High,8.0
408,High,left,90.0,3.20062651504733,1.0,8.0,High,8.0
409,High,right,90.0,-1.7424761034988836,0.0,9.0,High,8.0
410,High,right,90.0,5.2216071205147685,0.0,10.0,High,8.0
411,High,left,90.0,-0.6482275573341698,0.0,11.0,High,8.0
412,High,right,90.0,0.07933124704945649,0.0,12.0,High,8.0
413,High,left,90.0,-0.3439925528183463,0.0,13.0,High,8.0
414,High,right,90.0,1.7484953951693312,0.0,14.0,High,8.0
415,High,left,90.0,6.3819890161880455,1.0,15.0,High,8.0
416,High,left,90.0,-0.7189688975310062,1.0,16.0,High,8.0
417,High,right,90.0,4.348526458695744,1.0,17.0,High,8.0
418,High,right,90.0,6.9026610462793805,0.0,18.0,High,8.0
419,High,left,90.0,6.220999842985633,0.0,19.0,High,8.0
420,High,right,90.0,4.292041918268641,0.0,20.0,High,8.0
421,High,right,90.0,4.129261057383483,1.0,21.0,High,8.0
422,High,right,90.0,-0.031132064175304563,0.0,22.0,High,8.0
423,High,left,90.0,5.135454217183276,0.0,23.0,High,8.0
424,High,left,90.0,-0.24443782722462815,1.0,24.0,High,8.0
425,High,left,90.0,5.219425340227275,0.0,25.0,High,8.0
426,High,left,90.0,2.156606832137674,1.0,26.0,High,8.0
427,High,left,90.0,2.098550196201072,1.0,27.0,High,8.0
428,High,left,90.0,3.25092240979085,1.0,28.0,High,8.0
429,High,left,90.0,2.5873592946821637,0.0,29.0,High,8.0
430,High,left,90.0,2.760770396629895,1.0,30.0,High,8.0
431,High,left,90.0,0.48040331428975414,1.0,31.0,High,8.0
432,High,left,90.0,-0.1659841664874635,0.0,32.0,High,8.0
433,High,right,90.0,1.458206128681761,1.0,33.0,High,8.0
434,High,left,90.0,4.942559424532971,0.0,34.0,High,8.0
435,High,right,90.0,1.45430511719191,0.0,35.0,High,8.0
436,High,left,90.0,2.726085738741719,1.0,36.0,High,8.0
437,High,left,90.0,2.4734461147235116,1.0,37.0,High,8.0
438,High,right,90.0,2.255430259432901,1.0,38.0,High,8.0
439,High,right,90.0,1.4886476591956255,1.0,39.0,High,8.0
440,High,right,90.0,2.2682051065763518,1.0,40.0,High,8.0
441,High,right,90.0,4.612572585219242,1.0,41.0,High,8.0
442,High,right,90.0,5.9070975146202445,0.0,42.0,High,8.0
443,High,left,90.0,1.2786992977595992,0.0,43.0,High,8.0
444,High,right,90.0,3.34292640598063,0.0,44.0,High,8.0
445,High,left,90.0,2.416506844907394,1.0,45.0,High,8.0
446,High,right,90.0,3.583771269158118,0.0,46.0,High,8.0
447,High,left,90.0,2.340811179241376,1.0,47.0,High,8.0
448,High,left,90.0,0.8625996958271682,0.0,48.0,High,8.0
449,High,left,90.0,0.8397890279419211,0.0,49.0,High,8.0
450,Low,left,60.0,2.664974712842028,0.0,0.0,Low,9.0
451,Low,left,60.0,-4.558558988283351,1.0,1.0,Low,9.0
452,Low,right,60.0,3.3697096629755645,0.0,2.0,Low,9.0
453,Low,right,60.0,7.43237520833036,1.0,3.0,Low,9.0
454,Low,right,60.0,-0.4636122439160282,1.0,4.0,Low,9.0
455,Low,right,60.0,4.319457670714563,1.0,5.0,Low,9.0
456,Low,left,60.0,1.4875468692366396,0.0,6.0,Low,9.0
457,Low,right,60.0,1.110921317800854,0.0,7.0,Low,9.0
458,Low,right,60.0,4.36233235715674,1.0,8.0,Low,9.0
459,Low,right,60.0,2.114960064591948,1.0,9.0,Low,9.0
460,Low,left,60.0,5.172808812898678,1.0,10.0,Low,9.0
461,Low,left,60.0,0.654253418024928,0.0,11.0,Low,9.0
462,Low,right,60.0,1.839503521886151,1.0,12.0,Low,9.0
463,Low,right,60.0,0.17877076781616275,1.0,13.0,Low,9.0
464,Low,left,60.0,4.505491049691846,0.0,14.0,Low,9.0
465,Low,right,60.0,2.719059777364757,1.0,15.0,Low,9.0
466,Low,right,60.0,1.0960130306553597,0.0,16.0,Low,9.0
467,Low,left,60.0,-1.9772421142804646,1.0,17.0,Low,9.0
468,Low,left,60.0,0.6016518484529295,0.0,18.0,Low,9.0
469,Low,right,60.0,1.8216902234115704,0.0,19.0,Low,9.0
470,Low,right,60.0,-0.9467570867799553,0.0,20.0,Low,9.0
471,Low,right,60.0,3.7440747658831417,1.0,21.0,Low,9.0
472,Low,left,60.0,-0.4813883968451571,1.0,22.0,Low,9.0
473,Low,right,60.0,4.466245265418835,0.0,23.0,Low,9.0
474,Low,right,60.0,2.4674282380219177,1.0,24.0,Low,9.0
475,Low,right,60.0,1.2324956498462178,0.0,25.0,Low,9.0
476,Low,left,60.0,4.735499967737817,0.0,26.0,Low,9.0
477,Low,right,60.0,1.7112507248932687,1.0,27.0,Low,9.0
478,Low,left,60.0,0.6579488777675881,1.0,28.0,Low,9.0
479,Low,left,60.0,3.648924916932319,1.0,29.0,Low,9.0
480,Low,left,60.0,5.71165333423136,0.0,30.0,Low,9.0
481,Low,right,60.0,4.391379381249351,1.0,31.0,Low,9.0
482,Low,left,60.0,3.5840748046768596,1.0,32.0,Low,9.0
483,Low,left,60.0,5.058876468094438,1.0,33.0,Low,9.0
484,Low,left,60.0,1.2221768337425665,1.0,34.0,Low,9.0
485,Low,left,60.0,2.5301689299131054,1.0,35.0,Low,9.0
486,Low,left,60.0,-3.063344403087111,1.0,36.0,Low,9.0
487,Low,left,60.0,0.6930074449294685,1.0,37.0,Low,9.0
488,Low,left,60.0,4.3005128719602865,0.0,38.0,Low,9.0
489,Low,left,60.0,-0.7154657679797354,0.0,39.0,Low,9.0
490,Low,left,60.0,1.8500864443636456,1.0,40.0,Low,9.0
491,Low,right,60.0,-1.2554722675141925,0.0,41.0,Low,9.0
492,Low,right,60.0,3.2537237086969863,1.0,42.0,Low,9.0
493,Low,right,60.0,3.8719022792116164,1.0,43.0,Low,9.0
494,Low,left,60.0,-1.8590681138927176,1.0,44.0,Low,9.0
495,Low,left,60.0,2.062490899465425,1.0,45.0,Low,9.0
496,Low,right,60.0,2.367279610770931,0.0,46.0,Low,9.0
497,Low,left,60.0,0.7999550765145738,1.0,47.0,Low,9.0
498,Low,right,60.0,-0.6459798678749236,1.0,48.0,Low,9.0
499,Low,left,60.0,1.3104538377394737,1.0,49.0,Low,9.0
500,High,right,90.0,4.136834219759255,1.0,0.0,Low,10.0
501,High,right,90.0,2.921290619673208,1.0,1.0,Low,10.0
502,High,left,90.0,3.7622503114716173,0.0,2.0,Low,10.0
503,High,left,90.0,0.033165105239196135,0.0,3.0,Low,10.0
504,High,right,90.0,3.7238691169492806,1.0,4.0,Low,10.0
505,High,right,90.0,0.3887659194005856,0.0,5.0,Low,10.0
506,High,left,90.0,3.5805677609086546,0.0,6.0,Low,10.0
507,High,right,90.0,1.9609423253236642,0.0,7.0,Low,10.0
508,High,left,90.0,-1.0001538492866744,0.0,8.0,Low,10.0
509,High,left,90.0,0.4008469362812117,0.0,9.0,Low,10.0
510,High,right,90.0,2.5674295373854936,0.0,10.0,Low,10.0
511,High,left,90.0,2.025807211046543,1.0,11.0,Low,10.0
512,High,right,90.0,3.049145183770201,1.0,12.0,Low,10.0
513,High,right,90.0,3.959593317990482,1.0,13.0,Low,10.0
514,High,left,90.0,2.71391961378601,1.0,14.0,Low,10.0
515,High,left,90.0,2.3123943314911957,0.0,15.0,Low,10.0
516,High,right,90.0,3.4205228077823,1.0,16.0,Low,10.0
517,High,right,90.0,2.1709338009748853,1.0,17.0,Low,10.0
518,High,right,90.0,1.2993541015654586,1.0,18.0,Low,10.0
519,High,left,90.0,3.059599374701172,1.0,19.0,Low,10.0
520,High,left,90.0,2.738752084923248,1.0,20.0,Low,10.0
521,High,left,90.0,4.845280834140019,1.0,21.0,Low,10.0
522,High,right,90.0,4.534605620298517,0.0,22.0,Low,10.0
523,High,left,90.0,-0.010432573977758874,1.0,23.0,Low,10.0
524,High,right,90.0,3.0861291251575373,0.0,24.0,Low,10.0
525,High,left,90.0,-0.024889693479154262,0.0,25.0,Low,10.0
526,High,left,90.0,-0.2482433350927038,1.0,26.0,Low,10.0
527,High,right,90.0,2.1466548710875983,1.0,27.0,Low,10.0
528,High,right,90.0,5.502463134640314,0.0,28.0,Low,10.0
529,High,left,90.0,4.505805631949928,1.0,29.0,Low,10.0
530,High,left,90.0,0.5621616144819759,1.0,30.0,Low,10.0
531,High,right,90.0,0.20665167700497755,0.0,31.0,Low,10.0
532,High,left,90.0,2.4781580404336325,1.0,32.0,Low,10.0
533,High,right,90.0,-0.18003544084091594,0.0,33.0,Low,10.0
534,High,left,90.0,2.556210007140333,1.0,34.0,Low,10.0
535,High,right,90.0,0.7946746672383163,0.0,35.0,Low,10.0
536,High,left,90.0,2.5734282492774545,0.0,36.0,Low,10.0
537,High,right,90.0,5.428330203065876,0.0,37.0,Low,10.0
538,High,left,90.0,2.8428832472079724,0.0,38.0,Low,10.0
539,High,left,90.0,4.597058795458356,1.0,39.0,Low,10.0
540,High,left,90.0,0.4316122286062474,1.0,40.0,Low,10.0
541,High,left,90.0,4.300642581715086,1.0,41.0,Low,10.0
542,High,left,90.0,3.7664494745125134,0.0,42.0,Low,10.0
543,High,right,90.0,0.3173919358543478,1.0,43.0,Low,10.0
544,High,left,90.0,0.693569643366108,1.0,44.0,Low,10.0
545,High,left,90.0,2.953580777116508,1.0,45.0,Low,10.0
546,High,left,90.0,-1.4872864899427158,0.0,46.0,Low,10.0
547,High,right,90.0,-1.6076060558936793,1.0,47.0,Low,10.0
548,High,right,90.0,3.5086324822342068,0.0,48.0,Low,10.0
549,High,right,90.0,0.9340256948039476,0.0,49.0,Low,10.0
550,Low,left,90.0,4.402303330327172,0.0,0.0,Low,11.0
551,Low,right,90.0,2.154821129578708,0.0,1.0,Low,11.0
552,Low,right,90.0,2.793420675781914,0.0,2.0,Low,11.0
553,Low,left,90.0,4.713320908283615,0.0,3.0,Low,11.0
554,Low,right,90.0,-2.241680928905276,0.0,4.0,Low,11.0
555,Low,left,90.0,0.8922590333444538,1.0,5.0,Low,11.0
556,Low,right,90.0,0.34188871649628094,1.0,6.0,Low,11.0
557,Low,right,90.0,3.0505153613465747,1.0,7.0,Low,11.0
558,Low,left,90.0,2.1060352979949126,1.0,8.0,Low,11.0
559,Low,left,90.0,3.730024271878358,1.0,9.0,Low,11.0
560,Low,right,90.0,3.0402702607914973,0.0,10.0,Low,11.0
561,Low,right,90.0,-0.13938609045442307,0.0,11.0,Low,11.0
562,Low,left,90.0,1.558025344495087,0.0,12.0,Low,11.0
563,Low,right,90.0,-0.34834775995933676,1.0,13.0,Low,11.0
564,Low,right,90.0,7.281141045952998,1.0,14.0,Low,11.0
565,Low,right,90.0,1.3623131140689022,0.0,15.0,Low,11.0
566,Low,right,90.0,5.505677304678901,0.0,16.0,Low,11.0
567,Low,left,90.0,3.129048135187751,0.0,17.0,Low,11.0
568,Low,left,90.0,4.569531815982062,1.0,18.0,Low,11.0
569,Low,right,90.0,5.560672113884827,1.0,19.0,Low,11.0
570,Low,right,90.0,2.408774106794898,0.0,20.0,Low,11.0
571,Low,left,90.0,2.4652308018775364,0.0,21.0,Low,11.0
572,Low,right,90.0,1.9468666386929416,0.0,22.0,Low,11.0
573,Low,left,90.0,1.5176143379591378,0.0,23.0,Low,11.0
574,Low,right,90.0,1.1469635441293882,1.0,24.0,Low,11.0
575,Low,right,90.0,1.1562651397177328,1.0,25.0,Low,11.0
576,Low,left,90.0,2.8283563046068134,1.0,26.0,Low,11.0
577,Low,right,90.0,0.6185991010648322,0.0,27.0,Low,11.0
578,Low,right,90.0,3.7747421008578805,1.0,28.0,Low,11.0
579,Low,left,90.0,1.9634528748612385,0.0,29.0,Low,11.0
580,Low,right,90.0,0.9927532305707145,0.0,30.0,Low,11.0
581,Low,left,90.0,2.1258506932572923,0.0,31.0,Low,11.0
582,Low,right,90.0,2.597571760487947,0.0,32.0,Low,11.0
583,Low,left,90.0,1.9450142755055808,0.0,33.0,Low,11.0
584,Low,right,90.0,1.8468449615020983,0.0,34.0,Low,11.0
585,Low,left,90.0,-0.5208026012258808,0.0,35.0,Low,11.0
586,Low,left,90.0,2.635636458162981,1.0,36.0,Low,11.0
587,Low,right,90.0,2.813051879047628,1.0,37.0,Low,11.0
588,Low,left,90.0,7.89206311416136,1.0,38.0,Low,11.0
589,Low,right,90.0,-0.8094731113266507,0.0,39.0,Low,11.0
590,Low,right,90.0,1.7179518750989207,0.0,40.0,Low,11.0
591,Low,left,90.0,2.353571074707474,1.0,41.0,Low,11.0
592,Low,left,90.0,3.504329105378039,0.0,42.0,Low,11.0
593,Low,right,90.0,5.935799077648914,0.0,43.0,Low,11.0
594,Low,left,90.0,-0.5826722881547011,1.0,44.0,Low,11.0
595,Low,left,90.0,3.5255349535750375,0.0,45.0,Low,11.0
596,Low,right,90.0,3.612541187853545,0.0,46.0,Low,11.0
597,Low,right,90.0,5.0535843691919675,0.0,47.0,Low,11.0
598,Low,right,90.0,1.9094342517856648,0.0,48.0,Low,11.0
599,Low,left,90.0,7.684268439773631,0.0,49.0,Low,11.0
