word,trials.thisRepN,trials.thisTrialN,trials.thisN,trials.thisIndex,text.started,text.stopped,mouse_4.x,mouse_4.y,mouse_4.leftButton,mouse_4.midButton,mouse_4.rightButton,mouse_4.started,mouse_4.stopped,introText.started,introText.stopped,mouse.x,mouse.y,mouse.leftButton,mouse.midButton,mouse.rightButton,mouse.started,mouse.stopped,InstructValenceText.started,InstructValenceText.stopped,Valence.started,Valence.stopped,mouse_2.x,mouse_2.y,mouse_2.leftButton,mouse_2.midButton,mouse_2.rightButton,mouse_2.started,mouse_2.stopped,InstructArousalText.started,InstructArousalText.stopped,Arousal.started,Arousal.stopped,mouse_3.x,mouse_3.y,mouse_3.leftButton,mouse_3.midButton,mouse_3.rightButton,mouse_3.started,mouse_3.stopped,WordPresentation.started,WordPresentation.stopped,ArousalGuide.started,ArousalGuide.stopped,text_3.started,text_3.stopped,A_key_resp.keys,A_key_resp.rt,A_key_resp.started,A_key_resp.stopped,WordPresentation2.started,WordPresentation2.stopped,ValenceImage.started,ValenceImage.stopped,text_2.started,text_2.stopped,key_resp.keys,key_resp.rt,key_resp.started,key_resp.stopped,ParticipantID,date,expName,psychopyVersion,frameRate,
,,,,,13.805677660999208,None,0.07111111111111111,0.006666666666666667,1,0,0,0.003098233999480726,None,,,,,,,,,,,,,,,,,,,,,,,,,,,,,,,,,,,,,,,,,,,,,,,,,,,,3456,2019_Oct_21_1434,SurveyExpMetaMem,3.2.3,59.815567431743,
,,,,,,,,,,,,,,14.12212135200025,None,0.07111111111111111,0.006666666666666667,1,0,0,0.011752539398003137,None,,,,,,,,,,,,,,,,,,,,,,,,,,,,,,,,,,,,,,,,,,,3456,2019_Oct_21_1434,SurveyExpMetaMem,3.2.3,59.815567431743,
,,,,,,,,,,,,,,,,,,,,,,,14.407613742001558,None,14.407613742001558,None,0.07111111111111111,0.006666666666666667,1,0,0,0.012331133399129612,None,,,,,,,,,,,,,,,,,,,,,,,,,,,,,,,,3456,2019_Oct_21_1434,SurveyExpMetaMem,3.2.3,59.815567431743,
,,,,,,,,,,,,,,,,,,,,,,,,,,,,,,,,,,14.709229839001637,None,14.709229839001637,None,0.07111111111111111,0.006666666666666667,1,0,0,0.014405613397684647,None,,,,,,,,,,,,,,,,,,,,,3456,2019_Oct_21_1434,SurveyExpMetaMem,3.2.3,59.815567431743,
pester,0,0,0,1034,,,,,,,,,,,,,,,,,,,,,,,,,,,,,,,,,,,,,,,,,15.175897206001537,None,15.175897206001537,None,15.175897206001537,None,9,1.2905412910004088,0.0015155928012973163,None,16.495480277000752,None,16.495480277000752,None,16.495480277000752,None,1,0.6611834739996993,0.003940668397262925,None,3456,2019_Oct_21_1434,SurveyExpMetaMem,3.2.3,59.815567431743,
familiar,0,1,1,802,,,,,,,,,,,,,,,,,,,,,,,,,,,,,,,,,,,,,,,,,17.180267899999308,None,17.180267899999308,None,17.180267899999308,None,2,0.5806507540000894,0.01649189380259486,None,17.783335096999508,None,17.783335096999508,None,17.783335096999508,None,3,0.5371843140019337,0.006493548400612781,None,3456,2019_Oct_21_1434,SurveyExpMetaMem,3.2.3,59.815567431743,
worse,0,2,2,329,,,,,,,,,,,,,,,,,,,,,,,,,,,,,,,,,,,,,,,,,18.33390724399942,None,18.33390724399942,None,18.33390724399942,None,3,0.670378544000414,0.005170585398445837,None,19.019430293999903,None,19.019430293999903,None,19.019430293999903,None,4,0.3979523970010632,0.010684346398193156,None,3456,2019_Oct_21_1434,SurveyExpMetaMem,3.2.3,59.815567431743,
honeymoon,0,3,3,124,,,,,,,,,,,,,,,,,,,,,,,,,,,,,,,,,,,,,,,,,19.43708867099849,None,19.43708867099849,None,19.43708867099849,None,5,0.39055983000071137,0.006441910398280015,None,19.837611751001532,None,19.837611751001532,None,19.837611751001532,None,6,0.47428667599888286,0.006972522402065806,None,3456,2019_Oct_21_1434,SurveyExpMetaMem,3.2.3,59.815567431743,
electrocute,0,4,4,1049,,,,,,,,,,,,,,,,,,,,,,,,,,,,,,,,,,,,,,,,,20.32214332100193,None,20.32214332100193,None,20.32214332100193,None,7,0.8126696719991742,0.004301291395677254,None,21.15821061799943,None,21.15821061799943,None,21.15821061799943,None,7,0.7733457020003698,0.008361791395145701,None,3456,2019_Oct_21_1434,SurveyExpMetaMem,3.2.3,59.815567431743,
vampire,0,5,5,1176,,,,,,,,,,,,,,,,,,,,,,,,,,,,,,,,,,,,,,,,,21.943267381000624,None,21.943267381000624,None,21.943267381000624,None,6,0.6102623250008037,0.00625733039851184,None,22.57812323300095,None,22.57812323300095,None,22.57812323300095,None,6,0.38750480900125694,0.008159043398336507,None,3456,2019_Oct_21_1434,SurveyExpMetaMem,3.2.3,59.815567431743,
troubled,0,6,6,952,,,,,,,,,,,,,,,,,,,,,,,,,,,,,,,,,,,,,,,,,22.980494652001653,None,22.980494652001653,None,22.980494652001653,None,6,0.30615374600165524,0.008109222399070859,None,23.297019961999467,None,23.297019961999467,None,23.297019961999467,None,6,0.5045958050031913,0.009070554402569542,None,3456,2019_Oct_21_1434,SurveyExpMetaMem,3.2.3,59.815567431743,
eager,0,7,7,230,,,,,,,,,,,,,,,,,,,,,,,,,,,,,,,,,,,,,,,,,23.815586157001235,None,23.815586157001235,None,23.815586157001235,None,6,0.3837405829981435,0.005447964398626937,None,24.216383245999168,None,24.216383245999168,None,24.216383245999168,None,4,0.22302840199699858,0.009174223399895709,None,3456,2019_Oct_21_1434,SurveyExpMetaMem,3.2.3,59.815567431743,
soap,0,8,8,755,,,,,,,,,,,,,,,,,,,,,,,,,,,,,,,,,,,,,,,,,24.451238456000283,None,24.451238456000283,None,24.451238456000283,None,4,0.3723224310015212,0.00819214739749441,None,24.834778020998783,None,24.834778020998783,None,24.834778020998783,None,4,0.18892914699972607,0.009702742398076225,None,3456,2019_Oct_21_1434,SurveyExpMetaMem,3.2.3,59.815567431743,
grovel,0,9,9,435,,,,,,,,,,,,,,,,,,,,,,,,,,,,,,,,,,,,,,,,,25.03608155300026,None,25.03608155300026,None,25.03608155300026,None,4,0.3525469250016613,0.008624856400274439,None,25.40298121199885,None,25.40298121199885,None,25.40298121199885,None,4,0.3072133200003009,0.008768108400545316,None,3456,2019_Oct_21_1434,SurveyExpMetaMem,3.2.3,59.815567431743,
ail,0,10,10,461,,,,,,,,,,,,,,,,,,,,,,,,,,,,,,,,,,,,,,,,,25.720026619001146,None,25.720026619001146,None,25.720026619001146,None,4,0.19102791600016644,0.009112582400121028,None,25.92036701300094,None,25.92036701300094,None,25.92036701300094,None,4,0.23825709300217568,0.010883577400818467,None,3456,2019_Oct_21_1434,SurveyExpMetaMem,3.2.3,59.815567431743,
python,0,11,11,1163,,,,,,,,,,,,,,,,,,,,,,,,,,,,,,,,,,,,,,,,,26.171647194001707,None,26.171647194001707,None,26.171647194001707,None,4,0.20015266700283973,0.009207705395965604,None,26.389490569999907,None,26.389490569999907,None,26.389490569999907,None,4,0.1867285920016002,0.009497966399067082,None,3456,2019_Oct_21_1434,SurveyExpMetaMem,3.2.3,59.815567431743,
waste,0,12,12,358,,,,,,,,,,,,,,,,,,,,,,,,,,,,,,,,,,,,,,,,,26.58951832599996,None,26.58951832599996,None,26.58951832599996,None,4,0.18223134900108562,0.009125058397330577,None,26.790617964001285,None,26.790617964001285,None,26.790617964001285,None,4,0.1808367689991428,0.009240512401447631,None,3456,2019_Oct_21_1434,SurveyExpMetaMem,3.2.3,59.815567431743,
wane,0,13,13,564,,,,,,,,,,,,,,,,,,,,,,,,,,,,,,,,,,,,,,,,,26.991044203001366,None,26.991044203001366,None,26.991044203001366,None,4,0.18139836999762338,0.008900548400561092,None,27.191079861000617,None,27.191079861000617,None,27.191079861000617,None,4,0.1664920630028064,0.009717484397697262,None,3456,2019_Oct_21_1434,SurveyExpMetaMem,3.2.3,59.815567431743,
condescension,0,14,14,483,,,,,,,,,,,,,,,,,,,,,,,,,,,,,,,,,,,,,,,,,27.374976150000293,None,27.374976150000293,None,27.374976150000293,None,4,0.16016279800169286,0.007441646397637669,None,27.55880009700195,None,27.55880009700195,None,27.55880009700195,None,4,0.15004024600057164,0.007391659397399053,None,3456,2019_Oct_21_1434,SurveyExpMetaMem,3.2.3,59.815567431743,
insane,0,15,15,1051,,,,,,,,,,,,,,,,,,,,,,,,,,,,,,,,,,,,,,,,,27.726115383000433,None,27.726115383000433,None,27.726115383000433,None,4,0.1788184929973795,0.008401643397519365,None,27.926637838001625,None,27.926637838001625,None,27.926637838001625,None,4,0.17863891100205365,0.00878891739921528,None,3456,2019_Oct_21_1434,SurveyExpMetaMem,3.2.3,59.815567431743,
inspired,0,16,16,26,,,,,,,,,,,,,,,,,,,,,,,,,,,,,,,,,,,,,,,,,28.126741054999002,None,28.126741054999002,None,28.126741054999002,None,4,0.1806350110018684,0.006277072399825556,None,28.326905187001103,None,28.326905187001103,None,28.326905187001103,None,4,0.20025233699925593,0.008687450401339447,None,3456,2019_Oct_21_1434,SurveyExpMetaMem,3.2.3,59.815567431743,
muddy,0,17,17,570,,,,,,,,,,,,,,,,,,,,,,,,,,,,,,,,,,,,,,,,,28.54403525700036,None,28.54403525700036,None,28.54403525700036,None,4,0.16981647799912025,0.008728330398298567,None,28.72779011899911,None,28.72779011899911,None,28.72779011899911,None,4,0.16224468600194086,0.009232990400050767,None,3456,2019_Oct_21_1434,SurveyExpMetaMem,3.2.3,59.815567431743,
wail,0,18,18,1138,,,,,,,,,,,,,,,,,,,,,,,,,,,,,,,,,,,,,,,,,28.913061586001277,None,28.913061586001277,None,28.913061586001277,None,4,0.1727545879984973,0.008800548395811347,None,29.096010126999317,None,29.096010126999317,None,29.096010126999317,None,2,0.28761968100297963,0.010256741399643943,None,3456,2019_Oct_21_1434,SurveyExpMetaMem,3.2.3,59.815567431743,
scam,0,19,19,326,,,,,,,,,,,,,,,,,,,,,,,,,,,,,,,,,,,,,,,,,29.39724566899895,None,29.39724566899895,None,29.39724566899895,None,3,0.11512206900079036,0.009771903401997406,None,29.52970640300191,None,29.52970640300191,None,29.52970640300191,None,4,0.04728068800250185,0.009177959400403779,None,3456,2019_Oct_21_1434,SurveyExpMetaMem,3.2.3,59.815567431743,
worthwhile,0,20,20,273,,,,,,,,,,,,,,,,,,,,,,,,,,,,,,,,,,,,,,,,,29.59714752199943,None,29.59714752199943,None,29.59714752199943,None,2,0.1666309230022307,0.00704783839682932,None,29.781483542999922,None,29.781483542999922,None,29.781483542999922,None,3,0.040518753998185275,0.007670107399462722,None,3456,2019_Oct_21_1434,SurveyExpMetaMem,3.2.3,59.815567431743,
gullible,0,21,21,520,,,,,,,,,,,,,,,,,,,,,,,,,,,,,,,,,,,,,,,,,29.831478970998432,None,29.831478970998432,None,29.831478970998432,None,4,0.09349494599882746,0.008202661399991484,None,29.94783126599941,None,29.94783126599941,None,29.94783126599941,None,2,0.11099859900059528,0.009907501400448382,None,3456,2019_Oct_21_1434,SurveyExpMetaMem,3.2.3,59.815567431743,
untroubled,0,22,22,892,,,,,,,,,,,,,,,,,,,,,,,,,,,,,,,,,,,,,,,,,30.081588403998467,None,30.081588403998467,None,30.081588403998467,None,3,0.04242252800031565,0.007220056399091845,None,30.148224210999615,None,30.148224210999615,None,30.148224210999615,None,4,0.07079169099961291,0.006911499400303001,None,3456,2019_Oct_21_1434,SurveyExpMetaMem,3.2.3,59.815567431743,
writer,0,23,23,641,,,,,,,,,,,,,,,,,,,,,,,,,,,,,,,,,,,,,,,,,30.23182757700124,None,30.23182757700124,None,30.23182757700124,None,2,0.12675523800135124,0.006924516397702973,None,30.382866848998674,None,30.382866848998674,None,30.382866848998674,None,3,0.0582799520016124,0.007853325398173183,None,3456,2019_Oct_21_1434,SurveyExpMetaMem,3.2.3,59.815567431743,
embrace,0,24,24,180,,,,,,,,,,,,,,,,,,,,,,,,,,,,,,,,,,,,,,,,,30.44974758399985,None,30.44974758399985,None,30.44974758399985,None,4,0.05429833100060932,0.007204445399111137,None,30.516638731998682,None,30.516638731998682,None,30.516638731998682,None,2,0.12985222299903398,0.009791984397452325,None,3456,2019_Oct_21_1434,SurveyExpMetaMem,3.2.3,59.815567431743,
climax,0,25,25,20,,,,,,,,,,,,,,,,,,,,,,,,,,,,,,,,,,,,,,,,,30.667677241999627,None,30.667677241999627,None,30.667677241999627,None,3,0.042212421001750045,0.008404633397731232,None,30.717577849001827,None,30.717577849001827,None,30.717577849001827,None,4,0.055901114999869606,0.008841567396302707,None,3456,2019_Oct_21_1434,SurveyExpMetaMem,3.2.3,59.815567431743,
modest,0,26,26,717,,,,,,,,,,,,,,,,,,,,,,,,,,,,,,,,,,,,,,,,,30.79996956800096,None,30.79996956800096,None,30.79996956800096,None,2,0.13249370799894677,0.007798792397807119,None,30.95049283499975,None,30.95049283499975,None,30.95049283499975,None,3,0.0423706020010286,0.008079452400124865,None,3456,2019_Oct_21_1434,SurveyExpMetaMem,3.2.3,59.815567431743,
unhappy,0,27,27,300,,,,,,,,,,,,,,,,,,,,,,,,,,,,,,,,,,,,,,,,,31.017933020000783,None,31.017933020000783,None,31.017933020000783,None,4,0.05863629899977241,0.007148292395868339,None,31.10210681299941,None,31.10210681299941,None,31.10210681299941,None,2,0.12409797300279024,0.007592478395963553,None,3456,2019_Oct_21_1434,SurveyExpMetaMem,3.2.3,59.815567431743,
pond,0,28,28,785,,,,,,,,,,,,,,,,,,,,,,,,,,,,,,,,,,,,,,,,,31.234701991001202,None,31.234701991001202,None,31.234701991001202,None,3,0.042414527997607365,0.008571016398491338,None,31.285180778999347,None,31.285180778999347,None,31.285180778999347,None,4,0.07573564000267652,0.008735048402741086,None,3456,2019_Oct_21_1434,SurveyExpMetaMem,3.2.3,59.815567431743,
crazy,0,29,29,204,,,,,,,,,,,,,,,,,,,,,,,,,,,,,,,,,,,,,,,,,31.385325118000765,None,31.385325118000765,None,31.385325118000765,None,2,0.09850517100130673,0.007495346395444358,None,31.502746995000052,None,31.502746995000052,None,31.502746995000052,None,3,0.0037501560000237077,0.01036058239697013,None,3456,2019_Oct_21_1434,SurveyExpMetaMem,3.2.3,59.815567431743,
critic,0,30,30,1079,,,,,,,,,,,,,,,,,,,,,,,,,,,,,,,,,,,,,,,,,31.53644071400049,None,31.53644071400049,None,31.53644071400049,None,4,0.07803123999838135,0.00907979439580231,None,31.63582749499983,None,31.63582749499983,None,31.63582749499983,None,7,0.37457769000320695,0.008926590395276435,None,3456,2019_Oct_21_1434,SurveyExpMetaMem,3.2.3,59.815567431743,
thirsty,0,31,31,1135,,,,,,,,,,,,,,,,,,,,,,,,,,,,,,,,,,,,,,,,,32.02033984800073,None,32.02033984800073,None,32.02033984800073,None,4,0.012251211002876516,0.0071815423980297055,None,32.05394243599949,None,32.05394243599949,None,32.05394243599949,None,7,0.10050521700031823,0.007333978395763552,None,3456,2019_Oct_21_1434,SurveyExpMetaMem,3.2.3,59.815567431743,
satisfaction,0,32,32,90,,,,,,,,,,,,,,,,,,,,,,,,,,,,,,,,,,,,,,,,,32.170923833000415,None,32.170923833000415,None,32.170923833000415,None,4,0.06238903899793513,0.005423284397693351,None,32.25420292000126,None,32.25420292000126,None,32.25420292000126,None,7,0.03466371299873572,0.006050225394574227,None,3456,2019_Oct_21_1434,SurveyExpMetaMem,3.2.3,59.815567431743,
vodka,0,33,33,150,,,,,,,,,,,,,,,,,,,,,,,,,,,,,,,,,,,,,,,,,32.30546297899855,None,32.30546297899855,None,32.30546297899855,None,4,0.09545575899755931,0.005585298396908911,None,32.42149037299896,None,32.42149037299896,None,32.42149037299896,None,4,0.11451210400264245,0.006483400400611572,None,3456,2019_Oct_21_1434,SurveyExpMetaMem,3.2.3,59.815567431743,
glum,0,34,34,361,,,,,,,,,,,,,,,,,,,,,,,,,,,,,,,,,,,,,,,,,32.55499059399881,None,32.55499059399881,None,32.55499059399881,None,4,0.14030846999958158,0.007678468402446015,None,32.70477987399863,None,32.70477987399863,None,32.70477987399863,None,7,0.018336817000090377,0.0073448523980914615,None,3456,2019_Oct_21_1434,SurveyExpMetaMem,3.2.3,59.815567431743,
celebration,0,35,35,194,,,,,,,,,,,,,,,,,,,,,,,,,,,,,,,,,,,,,,,,,32.73943265300113,None,32.73943265300113,None,32.73943265300113,None,7,0.10903293499723077,0.005326742397301132,None,32.8728633339997,None,32.8728633339997,None,32.8728633339997,None,7,0.12207898599808686,0.009037541400175542,None,3456,2019_Oct_21_1434,SurveyExpMetaMem,3.2.3,59.815567431743,
tree,0,36,36,806,,,,,,,,,,,,,,,,,,,,,,,,,,,,,,,,,,,,,,,,,33.006458849999035,None,33.006458849999035,None,33.006458849999035,None,4,0.011305528001685161,0.00845057039623498,None,33.040009889999055,None,33.040009889999055,None,33.040009889999055,None,7,0.08253042199794436,0.008588783395680366,None,3456,2019_Oct_21_1434,SurveyExpMetaMem,3.2.3,59.815567431743,
uneasy,0,37,37,1084,,,,,,,,,,,,,,,,,,,,,,,,,,,,,,,,,,,,,,,,,33.13998577899838,None,33.13998577899838,None,33.13998577899838,None,4,0.04156186700129183,0.007643239398021251,None,33.20677986499868,None,33.20677986499868,None,33.20677986499868,None,7,0.12628650200349512,0.008877687399944989,None,3456,2019_Oct_21_1434,SurveyExpMetaMem,3.2.3,59.815567431743,
reveal,0,38,38,157,,,,,,,,,,,,,,,,,,,,,,,,,,,,,,,,,,,,,,,,,33.35708074500144,None,33.35708074500144,None,33.35708074500144,None,7,0.07838753599935444,0.007026228395261569,None,33.457465288000094,None,33.457465288000094,None,33.457465288000094,None,4,0.05196828100088169,0.007985071395523846,None,3456,2019_Oct_21_1434,SurveyExpMetaMem,3.2.3,59.815567431743,
droop,0,39,39,393,,,,,,,,,,,,,,,,,,,,,,,,,,,,,,,,,,,,,,,,,33.524086608998914,None,33.524086608998914,None,33.524086608998914,None,7,0.029070402000797912,0.007825978398614097,None,33.573976797000796,None,33.573976797000796,None,33.573976797000796,None,4,0.08149864699953469,0.008115170399833005,None,3456,2019_Oct_21_1434,SurveyExpMetaMem,3.2.3,59.815567431743,
furniture,0,40,40,747,,,,,,,,,,,,,,,,,,,,,,,,,,,,,,,,,,,,,,,,,33.67485176400078,None,33.67485176400078,None,33.67485176400078,None,7,0.09505724900009227,0.008663578402774874,None,33.77536725399841,None,33.77536725399841,None,33.77536725399841,None,4,0.03547868000168819,0.00992926639810321,None,3456,2019_Oct_21_1434,SurveyExpMetaMem,3.2.3,59.815567431743,
sports,0,41,41,59,,,,,,,,,,,,,,,,,,,,,,,,,,,,,,,,,,,,,,,,,33.84188239799914,None,33.84188239799914,None,33.84188239799914,None,7,0.039264496001123916,0.008378508395253448,None,33.89152101400032,None,33.89152101400032,None,33.89152101400032,None,4,0.09876759499820764,0.01035120740198181,None,3456,2019_Oct_21_1434,SurveyExpMetaMem,3.2.3,59.815567431743,
stunning,0,42,42,82,,,,,,,,,,,,,,,,,,,,,,,,,,,,,,,,,,,,,,,,,34.008249583999714,None,34.008249583999714,None,34.008249583999714,None,7,0.09915001000263146,0.00843986439940636,None,34.125945365001826,None,34.125945365001826,None,34.125945365001826,None,4,0.012388480001391144,0.010101784395374125,None,3456,2019_Oct_21_1434,SurveyExpMetaMem,3.2.3,59.815567431743,
rifle,0,43,43,1159,,,,,,,,,,,,,,,,,,,,,,,,,,,,,,,,,,,,,,,,,34.15935659599927,None,34.15935659599927,None,34.15935659599927,None,7,0.05467607700120425,0.010248250400763936,None,34.22626231200047,None,34.22626231200047,None,34.22626231200047,None,4,0.09200704999966547,0.010639441399689531,None,3456,2019_Oct_21_1434,SurveyExpMetaMem,3.2.3,59.815567431743,
royalty,0,44,44,162,,,,,,,,,,,,,,,,,,,,,,,,,,,,,,,,,,,,,,,,,34.3263904910018,None,34.3263904910018,None,34.3263904910018,None,7,0.11683579199961969,0.0068651023975689895,None,34.44372884100085,None,34.44372884100085,None,34.44372884100085,None,4,0.014556154997990234,0.009810285395360552,None,3456,2019_Oct_21_1434,SurveyExpMetaMem,3.2.3,59.815567431743,
number,0,45,45,656,,,,,,,,,,,,,,,,,,,,,,,,,,,,,,,,,,,,,,,,,34.493865464999544,None,34.493865464999544,None,34.493865464999544,None,7,0.05367005100197275,0.007692299397604074,None,34.560258639001404,None,34.560258639001404,None,34.560258639001404,None,4,0.08683052299966221,0.004492716398090124,None,3456,2019_Oct_21_1434,SurveyExpMetaMem,3.2.3,59.815567431743,
cling,0,46,46,582,,,,,,,,,,,,,,,,,,,,,,,,,,,,,,,,,,,,,,,,,34.66180885599897,None,34.66180885599897,None,34.66180885599897,None,7,0.0037996999999450054,0.008928300394472899,None,34.69400957700054,None,34.69400957700054,None,34.69400957700054,None,7,0.07661609999922803,0.007953539396112319,None,3456,2019_Oct_21_1434,SurveyExpMetaMem,3.2.3,59.815567431743,
apprehension,0,47,47,1075,,,,,,,,,,,,,,,,,,,,,,,,,,,,,,,,,,,,,,,,,34.79497615799846,None,34.79497615799846,None,34.79497615799846,None,4,0.024364125001739012,0.007557529399491614,None,34.84435034700073,None,34.84435034700073,None,34.84435034700073,None,7,0.0471948379999958,0.008353690398507752,None,3456,2019_Oct_21_1434,SurveyExpMetaMem,3.2.3,59.815567431743,
restaurant,0,48,48,65,,,,,,,,,,,,,,,,,,,,,,,,,,,,,,,,,,,,,,,,,34.91215168599956,None,34.91215168599956,None,34.91215168599956,None,4,0.07638856000266969,0.00644269939584774,None,35.011756502000935,None,35.011756502000935,None,35.011756502000935,None,7,0.10259344599762699,0.007830141399608692,None,3456,2019_Oct_21_1434,SurveyExpMetaMem,3.2.3,59.815567431743,
lounge,0,49,49,836,,,,,,,,,,,,,,,,,,,,,,,,,,,,,,,,,,,,,,,,,35.12909473599939,None,35.12909473599939,None,35.12909473599939,None,4,0.03381114399962826,0.00835094139983994,None,35.179466596000566,None,35.179466596000566,None,35.179466596000566,None,7,0.05713890900005936,0.005589960397628602,None,3456,2019_Oct_21_1434,SurveyExpMetaMem,3.2.3,59.815567431743,
hinder,0,50,50,480,,,,,,,,,,,,,,,,,,,,,,,,,,,,,,,,,,,,,,,,,35.262083474000974,None,35.262083474000974,None,35.262083474000974,None,4,0.07788237100248807,0.006735980397934327,None,35.36255112299841,None,35.36255112299841,None,35.36255112299841,None,7,0.11130654900262016,0.009041653396707261,None,3456,2019_Oct_21_1434,SurveyExpMetaMem,3.2.3,59.815567431743,
fantastic,0,51,51,291,,,,,,,,,,,,,,,,,,,,,,,,,,,,,,,,,,,,,,,,,35.496887483001046,None,35.496887483001046,None,35.496887483001046,None,4,0.034026983001240296,0.008937116395827616,None,35.547140321999905,None,35.547140321999905,None,35.547140321999905,None,7,0.03532807800002047,0.00841601740103215,None,3456,2019_Oct_21_1434,SurveyExpMetaMem,3.2.3,59.815567431743,
extreme,0,52,52,8,,,,,,,,,,,,,,,,,,,,,,,,,,,,,,,,,,,,,,,,,35.597101284998644,None,35.597101284998644,None,35.597101284998644,None,7,0.10237500600123894,0.008891266399587039,None,35.71424252699944,None,35.71424252699944,None,35.71424252699944,None,4,0.15972984000109136,0.009126213397394167,None,3456,2019_Oct_21_1434,SurveyExpMetaMem,3.2.3,59.815567431743,
gloat,0,53,53,543,,,,,,,,,,,,,,,,,,,,,,,,,,,,,,,,,,,,,,,,,35.89832192800168,None,35.89832192800168,None,35.89832192800168,None,7,0.00630205099878367,0.007655642399186036,None,35.93034205799995,None,35.93034205799995,None,35.93034205799995,None,7,0.08168317000308889,0.008688369402079843,None,3456,2019_Oct_21_1434,SurveyExpMetaMem,3.2.3,59.815567431743,
compassion,0,54,54,191,,,,,,,,,,,,,,,,,,,,,,,,,,,,,,,,,,,,,,,,,36.03041153199956,None,36.03041153199956,None,36.03041153199956,None,4,0.016606396999122808,0.007505656401917804,None,36.063572631999705,None,36.063572631999705,None,36.063572631999705,None,7,0.08802846500111627,0.008102670399239287,None,3456,2019_Oct_21_1434,SurveyExpMetaMem,3.2.3,59.815567431743,
camera,0,55,55,758,,,,,,,,,,,,,,,,,,,,,,,,,,,,,,,,,,,,,,,,,36.1652471540001,None,36.1652471540001,None,36.1652471540001,None,4,0.04388465399824781,0.009343475401692558,None,36.231589467999584,None,36.231589467999584,None,36.231589467999584,None,7,0.031778308999491856,0.00837078439508332,None,3456,2019_Oct_21_1434,SurveyExpMetaMem,3.2.3,59.815567431743,
leaves,0,56,56,774,,,,,,,,,,,,,,,,,,,,,,,,,,,,,,,,,,,,,,,,,36.28129303899914,None,36.28129303899914,None,36.28129303899914,None,7,0.08077204400251503,0.008491715394484345,None,36.3820524440016,None,36.3820524440016,None,36.3820524440016,None,4,0.016064309002103982,0.008650768399093067,None,3456,2019_Oct_21_1434,SurveyExpMetaMem,3.2.3,59.815567431743,
pulpit,0,57,57,619,,,,,,,,,,,,,,,,,,,,,,,,,,,,,,,,,,,,,,,,,36.41665911599921,None,36.41665911599921,None,36.41665911599921,None,7,0.07536692299981951,0.009018787397508277,None,36.499056307999126,None,36.499056307999126,None,36.499056307999126,None,4,0.06762004299889668,0.008649272396723973,None,3456,2019_Oct_21_1434,SurveyExpMetaMem,3.2.3,59.815567431743,
gunshot,0,58,58,1012,,,,,,,,,,,,,,,,,,,,,,,,,,,,,,,,,,,,,,,,,36.582813853001426,None,36.582813853001426,None,36.582813853001426,None,7,0.030243843997595832,0.009280970400141086,None,36.63243530899854,None,36.63243530899854,None,36.63243530899854,None,7,0.07337332799943397,0.007020409400865901,None,3456,2019_Oct_21_1434,SurveyExpMetaMem,3.2.3,59.815567431743,
fraud,0,59,59,1019,,,,,,,,,,,,,,,,,,,,,,,,,,,,,,,,,,,,,,,,,36.71667146999971,None,36.71667146999971,None,36.71667146999971,None,4,0.020581053002388217,0.009213053399435012,None,36.74961258999974,None,36.74961258999974,None,36.74961258999974,None,7,0.0782631739966746,0.00873238739950466,None,3456,2019_Oct_21_1434,SurveyExpMetaMem,3.2.3,59.815567431743,
enthusiastic,0,60,60,97,,,,,,,,,,,,,,,,,,,,,,,,,,,,,,,,,,,,,,,,,36.850074400001176,None,36.850074400001176,None,36.850074400001176,None,4,0.08185857799981022,0.00745148539863294,None,36.951006077000784,None,36.951006077000784,None,36.951006077000784,None,7,0.00963460999992094,0.007687889399676351,None,3456,2019_Oct_21_1434,SurveyExpMetaMem,3.2.3,59.815567431743,
horse,0,61,61,738,,,,,,,,,,,,,,,,,,,,,,,,,,,,,,,,,,,,,,,,,36.98417476399845,None,36.98417476399845,None,36.98417476399845,None,4,0.08937185899776523,0.006966741399082821,None,37.08383282000068,None,37.08383282000068,None,37.08383282000068,None,7,0.08876056500230334,0.0065794753973023035,None,3456,2019_Oct_21_1434,SurveyExpMetaMem,3.2.3,59.815567431743,
chaos,0,62,62,1171,,,,,,,,,,,,,,,,,,,,,,,,,,,,,,,,,,,,,,,,,37.18425245600156,None,37.18425245600156,None,37.18425245600156,None,4,0.10387459000048693,0.00732152039927314,None,37.30189278599937,None,37.30189278599937,None,37.30189278599937,None,7,0.07324692600013805,0.00950427339921589,None,3456,2019_Oct_21_1434,SurveyExpMetaMem,3.2.3,59.815567431743,
fire,0,63,63,1099,,,,,,,,,,,,,,,,,,,,,,,,,,,,,,,,,,,,,,,,,37.385812511998665,None,37.385812511998665,None,37.385812511998665,None,4,0.08938589999888791,0.010734775398304919,None,37.48506478800118,None,37.48506478800118,None,37.48506478800118,None,7,0.007891312001447659,0.00977266739573679,None,3456,2019_Oct_21_1434,SurveyExpMetaMem,3.2.3,59.815567431743,
roach,0,64,64,974,,,,,,,,,,,,,,,,,,,,,,,,,,,,,,,,,,,,,,,,,37.519075915999565,None,37.519075915999565,None,37.519075915999565,None,7,0.09920323699770961,0.00808858740128926,None,37.63669214100082,None,37.63669214100082,None,37.63669214100082,None,4,0.02155646499886643,0.007771017397317337,None,3456,2019_Oct_21_1434,SurveyExpMetaMem,3.2.3,59.815567431743,
sexual,0,65,65,115,,,,,,,,,,,,,,,,,,,,,,,,,,,,,,,,,,,,,,,,,37.669215980000445,None,37.669215980000445,None,37.669215980000445,None,7,0.05902609499753453,0.007575729399832198,None,37.75301862800188,None,37.75301862800188,None,37.75301862800188,None,4,0.06881526199867949,0.008878530399670126,None,3456,2019_Oct_21_1434,SurveyExpMetaMem,3.2.3,59.815567431743,
drunk,0,66,66,5,,,,,,,,,,,,,,,,,,,,,,,,,,,,,,,,,,,,,,,,,37.83623165600147,None,37.83623165600147,None,37.83623165600147,None,7,0.027289932000712724,0.010198876396316336,None,37.86968683300074,None,37.86968683300074,None,37.86968683300074,None,4,0.13706861099853995,0.009081582400540356,None,3456,2019_Oct_21_1434,SurveyExpMetaMem,3.2.3,59.815567431743,
distracted,0,67,67,574,,,,,,,,,,,,,,,,,,,,,,,,,,,,,,,,,,,,,,,,,38.019796184998995,None,38.019796184998995,None,38.019796184998995,None,7,0.037597095000819536,0.007770231401082128,None,38.0705278159985,None,38.0705278159985,None,38.0705278159985,None,7,0.10134531600124319,0.008372484397114022,None,3456,2019_Oct_21_1434,SurveyExpMetaMem,3.2.3,59.815567431743,
frown,0,68,68,305,,,,,,,,,,,,,,,,,,,,,,,,,,,,,,,,,,,,,,,,,38.187282495000545,None,38.187282495000545,None,38.187282495000545,None,7,0.11986663000061526,0.008095107397821266,None,38.32031756699871,None,38.32031756699871,None,38.32031756699871,None,4,0.03458803600005922,0.008653450397105189,None,3456,2019_Oct_21_1434,SurveyExpMetaMem,3.2.3,59.815567431743,
hope,0,69,69,173,,,,,,,,,,,,,,,,,,,,,,,,,,,,,,,,,,,,,,,,,38.371347701999184,None,38.371347701999184,None,38.371347701999184,None,7,0.07436004199917079,0.0076895784004591405,None,38.454757348001294,None,38.454757348001294,None,38.454757348001294,None,4,0.05421033600214287,0.008744230395677732,None,3456,2019_Oct_21_1434,SurveyExpMetaMem,3.2.3,59.815567431743,
authentic,0,70,70,800,,,,,,,,,,,,,,,,,,,,,,,,,,,,,,,,,,,,,,,,,38.52180616699843,None,38.52180616699843,None,38.52180616699843,None,7,0.002469104998453986,0.007820737399015343,None,38.55469923700002,None,38.55469923700002,None,38.55469923700002,None,7,0.08066650700129685,0.008256405395513866,None,3456,2019_Oct_21_1434,SurveyExpMetaMem,3.2.3,59.815567431743,
confidence,0,71,71,272,,,,,,,,,,,,,,,,,,,,,,,,,,,,,,,,,,,,,,,,,38.65518003699981,None,38.65518003699981,None,38.65518003699981,None,4,0.02863806799723534,0.007942145395645639,None,38.705470331999095,None,38.705470331999095,None,38.705470331999095,None,7,0.06656177100012428,0.007865470401156927,None,3456,2019_Oct_21_1434,SurveyExpMetaMem,3.2.3,59.815567431743,
fatigue,0,72,72,366,,,,,,,,,,,,,,,,,,,,,,,,,,,,,,,,,,,,,,,,,38.789491106999776,None,38.789491106999776,None,38.789491106999776,None,4,0.057633286000054795,0.007125262400222709,None,38.873272647000704,None,38.873272647000704,None,38.873272647000704,None,7,0.01091523499781033,0.008089582399406936,None,3456,2019_Oct_21_1434,SurveyExpMetaMem,3.2.3,59.815567431743,
tumor,0,73,73,976,,,,,,,,,,,,,,,,,,,,,,,,,,,,,,,,,,,,,,,,,38.90542434999952,None,38.90542434999952,None,38.90542434999952,None,7,0.07519930900161853,0.006282151400228031,None,39.006424922001315,None,39.006424922001315,None,39.006424922001315,None,4,0.029471474001184106,0.007934210396342678,None,3456,2019_Oct_21_1434,SurveyExpMetaMem,3.2.3,59.815567431743,
policy,0,74,74,576,,,,,,,,,,,,,,,,,,,,,,,,,,,,,,,,,,,,,,,,,39.05654027700075,None,39.05654027700075,None,39.05654027700075,None,7,0.053184406002401374,0.006015649392793421,None,39.12308363899865,None,39.12308363899865,None,39.12308363899865,None,4,0.06276050399901578,0.008494355395669118,None,3456,2019_Oct_21_1434,SurveyExpMetaMem,3.2.3,59.815567431743,
cease,0,75,75,573,,,,,,,,,,,,,,,,,,,,,,,,,,,,,,,,,,,,,,,,,39.205920339998556,None,39.205920339998556,None,39.205920339998556,None,7,0.01933804599684663,0.008987382399936905,None,39.240545399999974,None,39.240545399999974,None,39.240545399999974,None,4,0.10133706700071343,0.009138717396126594,None,3456,2019_Oct_21_1434,SurveyExpMetaMem,3.2.3,59.815567431743,
clearer,0,76,76,822,,,,,,,,,,,,,,,,,,,,,,,,,,,,,,,,,,,,,,,,,39.35662866400162,None,39.35662866400162,None,39.35662866400162,None,7,0.10934872399957385,0.006760499392839847,None,39.49051127200073,None,39.49051127200073,None,39.49051127200073,None,4,0.024738070998864714,0.008248561400250765,None,3456,2019_Oct_21_1434,SurveyExpMetaMem,3.2.3,59.815567431743,
spice,0,77,77,56,,,,,,,,,,,,,,,,,,,,,,,,,,,,,,,,,,,,,,,,,39.52446074299951,None,39.52446074299951,None,39.52446074299951,None,7,0.07086849699771847,0.008469005399092566,None,39.60821455800033,None,39.60821455800033,None,39.60821455800033,None,4,0.06461225299790385,0.00937869739937014,None,3456,2019_Oct_21_1434,SurveyExpMetaMem,3.2.3,59.815567431743,
window,0,78,78,742,,,,,,,,,,,,,,,,,,,,,,,,,,,,,,,,,,,,,,,,,39.69121093600188,None,39.69121093600188,None,39.69121093600188,None,7,0.03622222000194597,0.009568191399011994,None,39.74020431200188,None,39.74020431200188,None,39.74020431200188,None,7,0.0919287680007983,0.009204207395669073,None,3456,2019_Oct_21_1434,SurveyExpMetaMem,3.2.3,59.815567431743,
herbal,0,79,79,743,,,,,,,,,,,,,,,,,,,,,,,,,,,,,,,,,,,,,,,,,39.842411212001025,None,39.842411212001025,None,39.842411212001025,None,4,0.0029786109989800025,0.008573052396968706,None,39.87541720900117,None,39.87541720900117,None,39.87541720900117,None,7,0.055358837998937815,0.007682785399083514,None,3456,2019_Oct_21_1434,SurveyExpMetaMem,3.2.3,59.815567431743,
report,0,80,80,518,,,,,,,,,,,,,,,,,,,,,,,,,,,,,,,,,,,,,,,,,39.941468140001234,None,39.941468140001234,None,39.941468140001234,None,4,0.06375596500220126,0.00880799339938676,None,40.02558170799966,None,40.02558170799966,None,40.02558170799966,None,7,0.0360430289983924,0.00852195439802017,None,3456,2019_Oct_21_1434,SurveyExpMetaMem,3.2.3,59.815567431743,
self,0,81,81,121,,,,,,,,,,,,,,,,,,,,,,,,,,,,,,,,,,,,,,,,,40.07575015800103,None,40.07575015800103,None,40.07575015800103,None,4,0.09594875899711042,0.010107387399330037,None,40.192005627999606,None,40.192005627999606,None,40.192005627999606,None,7,0.12237136600015219,0.008435667397861835,None,3456,2019_Oct_21_1434,SurveyExpMetaMem,3.2.3,59.815567431743,
chess,0,82,82,628,,,,,,,,,,,,,,,,,,,,,,,,,,,,,,,,,,,,,,,,,40.32640829700176,None,40.32640829700176,None,40.32640829700176,None,4,0.013279318998684175,0.008674327400512993,None,40.359899293001945,None,40.359899293001945,None,40.359899293001945,None,7,0.0965546009974787,0.008954288401582744,None,3456,2019_Oct_21_1434,SurveyExpMetaMem,3.2.3,59.815567431743,
bargain,0,83,83,279,,,,,,,,,,,,,,,,,,,,,,,,,,,,,,,,,,,,,,,,,40.476749933000974,None,40.476749933000974,None,40.476749933000974,None,7,0.11049555800127564,0.007035671402263688,None,40.610852136000176,None,40.610852136000176,None,40.610852136000176,None,4,0.07517350900161546,0.007499983399611665,None,3456,2019_Oct_21_1434,SurveyExpMetaMem,3.2.3,59.815567431743,
sexy,0,84,84,244,,,,,,,,,,,,,,,,,,,,,,,,,,,,,,,,,,,,,,,,,40.711263722001604,None,40.711263722001604,None,40.711263722001604,None,7,0.10127704700062168,0.007767107399558881,None,40.82750584400128,None,40.82750584400128,None,40.82750584400128,None,4,0.041512444000545656,0.009425486397958593,None,3456,2019_Oct_21_1434,SurveyExpMetaMem,3.2.3,59.815567431743,
,,,,,,,,,,,,,,,,,,,,,,,,,,,,,,,,,,,,,,,,,,,,,40.87749329199869,None,40.87749329199869,None,40.87749329199869,None,7,0.06060188799892785,0.007187492396042217,None,,,,,,,,,,,,,,,,
