mouse_4.x,mouse_4.y,mouse_4.leftButton,mouse_4.midButton,mouse_4.rightButton,mouse.x,mouse.y,mouse.leftButton,mouse.midButton,mouse.rightButton,mouse_2.x,mouse_2.y,mouse_2.leftButton,mouse_2.midButton,mouse_2.rightButton,mouse_3.x,mouse_3.y,mouse_3.leftButton,mouse_3.midButton,mouse_3.rightButton,A_key_resp.keys,A_key_resp.rt,key_resp.keys,key_resp.rt,trials.thisRepN,trials.thisTrialN,trials.thisN,trials.thisIndex,trials.ran,trials.order,word,ParticipantID,date,expName,psychopyVersion,OS,frameRate
0.138888889,-0.125,1,0,0,0.294444444,-0.062037037,1,0,0,-0.085185185,-0.230555556,1,0,0,-0.085185185,-0.230555556,1,0,0,6,14.12999988,4,6.226000071,1,0,1200,1103,1,1199,mob,45880,2019-10-22_10h31.42.780,SurveyExpMetaMem,3.2.3,Win32,60
,,,,,,,,,,,,,,,,,,,,3,4.277999878,5,3.782999992,1,0,1200,596,1,1199,factory,45880,2019-10-22_10h31.42.780,SurveyExpMetaMem,3.2.3,Win32,60
,,,,,,,,,,,,,,,,,,,,7,13.40299988,5,2.311000109,1,0,1200,76,1,1199,midnight,45880,2019-10-22_10h31.42.780,SurveyExpMetaMem,3.2.3,Win32,60
,,,,,,,,,,,,,,,,,,,,5,2.546999931,5,0.417999983,1,0,1200,480,1,1199,hinder,45880,2019-10-22_10h31.42.780,SurveyExpMetaMem,3.2.3,Win32,60
,,,,,,,,,,,,,,,,,,,,7,2.845999956,3,1.628000021,1,0,1200,1082,1,1199,hazard,45880,2019-10-22_10h31.42.780,SurveyExpMetaMem,3.2.3,Win32,60
,,,,,,,,,,,,,,,,,,,,2,4.649000168,3,2.239000082,1,0,1200,548,1,1199,vague,45880,2019-10-22_10h31.42.780,SurveyExpMetaMem,3.2.3,Win32,60
,,,,,,,,,,,,,,,,,,,,2,3.947000027,3,1.494000196,1,0,1200,447,1,1199,dishes,45880,2019-10-22_10h31.42.780,SurveyExpMetaMem,3.2.3,Win32,60
,,,,,,,,,,,,,,,,,,,,3,3.545000076,2,1.559000015,1,0,1200,345,1,1199,unfortunate,45880,2019-10-22_10h31.42.780,SurveyExpMetaMem,3.2.3,Win32,60
,,,,,,,,,,,,,,,,,,,,6,2.852999926,2,2.361000061,1,0,1200,952,1,1199,troubled,45880,2019-10-22_10h31.42.780,SurveyExpMetaMem,3.2.3,Win32,60
,,,,,,,,,,,,,,,,,,,,5,3.119000196,7,1.736000061,1,0,1200,858,1,1199,donate,45880,2019-10-22_10h31.42.780,SurveyExpMetaMem,3.2.3,Win32,60
,,,,,,,,,,,,,,,,,,,,3,2.769999981,5,1.828000069,1,0,1200,521,1,1199,laundry,45880,2019-10-22_10h31.42.780,SurveyExpMetaMem,3.2.3,Win32,60
,,,,,,,,,,,,,,,,,,,,1,2.188999891,6,4.40899992,1,0,1200,735,1,1199,tea,45880,2019-10-22_10h31.42.780,SurveyExpMetaMem,3.2.3,Win32,60
,,,,,,,,,,,,,,,,,,,,9,2.656999826,2,2.830000162,1,0,1200,1149,1,1199,fight,45880,2019-10-22_10h31.42.780,SurveyExpMetaMem,3.2.3,Win32,60
,,,,,,,,,,,,,,,,,,,,7,2.787999868,2,4.789999962,1,0,1200,1001,1,1199,rude,45880,2019-10-22_10h31.42.780,SurveyExpMetaMem,3.2.3,Win32,60
,,,,,,,,,,,,,,,,,,,,5,1.794999838,5,0.541999817,1,0,1200,519,1,1199,listless,45880,2019-10-22_10h31.42.780,SurveyExpMetaMem,3.2.3,Win32,60
,,,,,,,,,,,,,,,,,,,,8,3.447999954,8,0.715000153,1,0,1200,143,1,1199,weekend,45880,2019-10-22_10h31.42.780,SurveyExpMetaMem,3.2.3,Win32,60
,,,,,,,,,,,,,,,,,,,,4,5.114999771,5,2.083999872,1,0,1200,647,1,1199,accord,45880,2019-10-22_10h31.42.780,SurveyExpMetaMem,3.2.3,Win32,60
,,,,,,,,,,,,,,,,,,,,5,2.542999983,5,0.664999962,1,0,1200,765,1,1199,candid,45880,2019-10-22_10h31.42.780,SurveyExpMetaMem,3.2.3,Win32,60
,,,,,,,,,,,,,,,,,,,,8,3.371000051,2,1.78399992,1,0,1200,940,1,1199,war,45880,2019-10-22_10h31.42.780,SurveyExpMetaMem,3.2.3,Win32,60
,,,,,,,,,,,,,,,,,,,,2,3.112999916,5,1.646000147,1,0,1200,690,1,1199,similar,45880,2019-10-22_10h31.42.780,SurveyExpMetaMem,3.2.3,Win32,60
,,,,,,,,,,,,,,,,,,,,2,8.09100008,2,0.710999966,1,0,1200,308,1,1199,worthless,45880,2019-10-22_10h31.42.780,SurveyExpMetaMem,3.2.3,Win32,60
,,,,,,,,,,,,,,,,,,,,5,3.515000105,5,0.404999971,1,0,1200,1138,1,1199,wail,45880,2019-10-22_10h31.42.780,SurveyExpMetaMem,3.2.3,Win32,60
,,,,,,,,,,,,,,,,,,,,5,1.34800005,5,0.276000023,1,0,1200,514,1,1199,defer,45880,2019-10-22_10h31.42.780,SurveyExpMetaMem,3.2.3,Win32,60
,,,,,,,,,,,,,,,,,,,,2,1.743000031,9,1.5,1,0,1200,643,1,1199,library,45880,2019-10-22_10h31.42.780,SurveyExpMetaMem,3.2.3,Win32,60
,,,,,,,,,,,,,,,,,,,,5,0.04399991,1,3.540999889,1,0,1200,317,1,1199,cry,45880,2019-10-22_10h31.42.780,SurveyExpMetaMem,3.2.3,Win32,60
,,,,,,,,,,,,,,,,,,,,2,4.596999884,7,2.661999941,1,0,1200,632,1,1199,avenue,45880,2019-10-22_10h31.42.780,SurveyExpMetaMem,3.2.3,Win32,60
,,,,,,,,,,,,,,,,,,,,5,2.162999868,5,0.237999916,1,0,1200,673,1,1199,bedspread,45880,2019-10-22_10h31.42.780,SurveyExpMetaMem,3.2.3,Win32,60
,,,,,,,,,,,,,,,,,,,,7,3.368000031,2,0.611000061,1,0,1200,366,1,1199,fatigue,45880,2019-10-22_10h31.42.780,SurveyExpMetaMem,3.2.3,Win32,60
,,,,,,,,,,,,,,,,,,,,7,2.822999954,5,2.16899991,1,0,1200,151,1,1199,react,45880,2019-10-22_10h31.42.780,SurveyExpMetaMem,3.2.3,Win32,60
,,,,,,,,,,,,,,,,,,,,6,2.110000134,5,0.364000082,1,0,1200,41,1,1199,progress,45880,2019-10-22_10h31.42.780,SurveyExpMetaMem,3.2.3,Win32,60
,,,,,,,,,,,,,,,,,,,,2,2.536999941,6,1.512999773,1,0,1200,774,1,1199,leaves,45880,2019-10-22_10h31.42.780,SurveyExpMetaMem,3.2.3,Win32,60
,,,,,,,,,,,,,,,,,,,,6,4.647000074,3,0.288999796,1,0,1200,205,1,1199,outspoken,45880,2019-10-22_10h31.42.780,SurveyExpMetaMem,3.2.3,Win32,60
,,,,,,,,,,,,,,,,,,,,2,3.131999969,8,0.684000015,1,0,1200,711,1,1199,sympathetic,45880,2019-10-22_10h31.42.780,SurveyExpMetaMem,3.2.3,Win32,60
,,,,,,,,,,,,,,,,,,,,3,1.907000065,7,2.080000162,1,0,1200,763,1,1199,vegetables,45880,2019-10-22_10h31.42.780,SurveyExpMetaMem,3.2.3,Win32,60
,,,,,,,,,,,,,,,,,,,,8,1.952000141,2,1.238999844,1,0,1200,1000,1,1199,threat,45880,2019-10-22_10h31.42.780,SurveyExpMetaMem,3.2.3,Win32,60
,,,,,,,,,,,,,,,,,,,,8,3.070000172,2,0.782999992,1,0,1200,328,1,1199,disgrace,45880,2019-10-22_10h31.42.780,SurveyExpMetaMem,3.2.3,Win32,60
,,,,,,,,,,,,,,,,,,,,5,2.649999857,5,0.67599988,1,0,1200,430,1,1199,cancel,45880,2019-10-22_10h31.42.780,SurveyExpMetaMem,3.2.3,Win32,60
,,,,,,,,,,,,,,,,,,,,5,2.864000082,5,0.41899991,1,0,1200,92,1,1199,justice,45880,2019-10-22_10h31.42.780,SurveyExpMetaMem,3.2.3,Win32,60
,,,,,,,,,,,,,,,,,,,,6,2.54399991,2,0.463999987,1,0,1200,307,1,1199,sick,45880,2019-10-22_10h31.42.780,SurveyExpMetaMem,3.2.3,Win32,60
,,,,,,,,,,,,,,,,,,,,5,2.845000029,5,0.235000134,1,0,1200,418,1,1199,cheapskate,45880,2019-10-22_10h31.42.780,SurveyExpMetaMem,3.2.3,Win32,60
,,,,,,,,,,,,,,,,,,,,5,5.631999969,5,0.953999996,1,0,1200,285,1,1199,gold,45880,2019-10-22_10h31.42.780,SurveyExpMetaMem,3.2.3,Win32,60
,,,,,,,,,,,,,,,,,,,,6,3.82400012,7,0.397000074,1,0,1200,828,1,1199,cooperative,45880,2019-10-22_10h31.42.780,SurveyExpMetaMem,3.2.3,Win32,60
,,,,,,,,,,,,,,,,,,,,6,3.127000093,7,0.437000036,1,0,1200,279,1,1199,bargain,45880,2019-10-22_10h31.42.780,SurveyExpMetaMem,3.2.3,Win32,60
,,,,,,,,,,,,,,,,,,,,7,2.450000048,7,1.507000208,1,0,1200,158,1,1199,engage,45880,2019-10-22_10h31.42.780,SurveyExpMetaMem,3.2.3,Win32,60
,,,,,,,,,,,,,,,,,,,,3,2.427999973,5,0.766000032,1,0,1200,740,1,1199,groceries,45880,2019-10-22_10h31.42.780,SurveyExpMetaMem,3.2.3,Win32,60
,,,,,,,,,,,,,,,,,,,,8,2.614000082,3,0.397000074,1,0,1200,956,1,1199,crushed,45880,2019-10-22_10h31.42.780,SurveyExpMetaMem,3.2.3,Win32,60
,,,,,,,,,,,,,,,,,,,,5,4.563999891,5,0.381000042,1,0,1200,1180,1,1199,heat,45880,2019-10-22_10h31.42.780,SurveyExpMetaMem,3.2.3,Win32,60
,,,,,,,,,,,,,,,,,,,,6,5.27699995,6,1.305000067,1,0,1200,331,1,1199,casket,45880,2019-10-22_10h31.42.780,SurveyExpMetaMem,3.2.3,Win32,60
,,,,,,,,,,,,,,,,,,,,5,2.177000046,5,0.267999887,1,0,1200,388,1,1199,mildew,45880,2019-10-22_10h31.42.780,SurveyExpMetaMem,3.2.3,Win32,60
,,,,,,,,,,,,,,,,,,,,5,3.220000029,8,1.299000025,1,0,1200,274,1,1199,song,45880,2019-10-22_10h31.42.780,SurveyExpMetaMem,3.2.3,Win32,60
,,,,,,,,,,,,,,,,,,,,7,4.614000082,7,0.254000187,1,0,1200,135,1,1199,applause,45880,2019-10-22_10h31.42.780,SurveyExpMetaMem,3.2.3,Win32,60
,,,,,,,,,,,,,,,,,,,,5,1.467999935,5,0.372999907,1,0,1200,43,1,1199,diamond,45880,2019-10-22_10h31.42.780,SurveyExpMetaMem,3.2.3,Win32,60
,,,,,,,,,,,,,,,,,,,,8,4.412999868,2,0.27699995,1,0,1200,943,1,1199,trauma,45880,2019-10-22_10h31.42.780,SurveyExpMetaMem,3.2.3,Win32,60
,,,,,,,,,,,,,,,,,,,,5,2.205000162,5,0.257999897,1,0,1200,719,1,1199,western,45880,2019-10-22_10h31.42.780,SurveyExpMetaMem,3.2.3,Win32,60
,,,,,,,,,,,,,,,,,,,,7,3.357999802,7,0.174000025,1,0,1200,90,1,1199,satisfaction,45880,2019-10-22_10h31.42.780,SurveyExpMetaMem,3.2.3,Win32,60
,,,,,,,,,,,,,,,,,,,,2,2.340999842,3,1.40199995,1,0,1200,524,1,1199,sigh,45880,2019-10-22_10h31.42.780,SurveyExpMetaMem,3.2.3,Win32,60
,,,,,,,,,,,,,,,,,,,,3,3.479000092,3,0.720000029,1,0,1200,479,1,1199,period,45880,2019-10-22_10h31.42.780,SurveyExpMetaMem,3.2.3,Win32,60
,,,,,,,,,,,,,,,,,,,,5,4.289000034,3,1.947999954,1,0,1200,1199,1,1199,expensive,45880,2019-10-22_10h31.42.780,SurveyExpMetaMem,3.2.3,Win32,60
,,,,,,,,,,,,,,,,,,,,7,4.398999929,4,0.13499999,1,0,1200,324,1,1199,inferiority,45880,2019-10-22_10h31.42.780,SurveyExpMetaMem,3.2.3,Win32,60
,,,,,,,,,,,,,,,,,,,,9,3.321000099,2,0.22300005,1,0,1200,950,1,1199,murder,45880,2019-10-22_10h31.42.780,SurveyExpMetaMem,3.2.3,Win32,60
,,,,,,,,,,,,,,,,,,,,9,1.700999975,2,0.240999937,1,0,1200,949,1,1199,thief,45880,2019-10-22_10h31.42.780,SurveyExpMetaMem,3.2.3,Win32,60
,,,,,,,,,,,,,,,,,,,,4,4.884000063,3,0.444999933,1,0,1200,442,1,1199,foolish,45880,2019-10-22_10h31.42.780,SurveyExpMetaMem,3.2.3,Win32,60
,,,,,,,,,,,,,,,,,,,,7,3.361999989,7,2.835000038,1,0,1200,718,1,1199,flow,45880,2019-10-22_10h31.42.780,SurveyExpMetaMem,3.2.3,Win32,60
,,,,,,,,,,,,,,,,,,,,5,2.226999998,5,0.209000111,1,0,1200,627,1,1199,introductory,45880,2019-10-22_10h31.42.780,SurveyExpMetaMem,3.2.3,Win32,60
,,,,,,,,,,,,,,,,,,,,3,3.687000036,7,0.588999987,1,0,1200,821,1,1199,cottage,45880,2019-10-22_10h31.42.780,SurveyExpMetaMem,3.2.3,Win32,60
,,,,,,,,,,,,,,,,,,,,4,9.153000116,2,0.972000122,1,0,1200,934,1,1199,sob,45880,2019-10-22_10h31.42.780,SurveyExpMetaMem,3.2.3,Win32,60
,,,,,,,,,,,,,,,,,,,,7,3.186000109,5,2.381000042,1,0,1200,102,1,1199,motorcycle,45880,2019-10-22_10h31.42.780,SurveyExpMetaMem,3.2.3,Win32,60
,,,,,,,,,,,,,,,,,,,,4,2.910000086,3,0.188999891,1,0,1200,364,1,1199,stink,45880,2019-10-22_10h31.42.780,SurveyExpMetaMem,3.2.3,Win32,60
,,,,,,,,,,,,,,,,,,,,7,3.767999887,7,0.407999992,1,0,1200,99,1,1199,funny,45880,2019-10-22_10h31.42.780,SurveyExpMetaMem,3.2.3,Win32,60
,,,,,,,,,,,,,,,,,,,,7,2.613999844,7,0.210000038,1,0,1200,97,1,1199,enthusiastic,45880,2019-10-22_10h31.42.780,SurveyExpMetaMem,3.2.3,Win32,60
,,,,,,,,,,,,,,,,,,,,8,5.972000122,3,1.151000023,1,0,1200,357,1,1199,whine,45880,2019-10-22_10h31.42.780,SurveyExpMetaMem,3.2.3,Win32,60
,,,,,,,,,,,,,,,,,,,,5,1.358999968,5,0.397000074,1,0,1200,795,1,1199,soup,45880,2019-10-22_10h31.42.780,SurveyExpMetaMem,3.2.3,Win32,60
,,,,,,,,,,,,,,,,,,,,5,3.525000095,5,0.312000036,1,0,1200,400,1,1199,urine,45880,2019-10-22_10h31.42.780,SurveyExpMetaMem,3.2.3,Win32,60
,,,,,,,,,,,,,,,,,,,,3,2.968999863,7,0.179000139,1,0,1200,335,1,1199,decay,45880,2019-10-22_10h31.42.780,SurveyExpMetaMem,3.2.3,Win32,60
,,,,,,,,,,,,,,,,,,,,2,19.19599986,8,1.096999884,1,0,1200,863,1,1199,fireplace,45880,2019-10-22_10h31.42.780,SurveyExpMetaMem,3.2.3,Win32,60
,,,,,,,,,,,,,,,,,,,,5,1.556999922,5,0.192000151,1,0,1200,781,1,1199,emerald,45880,2019-10-22_10h31.42.780,SurveyExpMetaMem,3.2.3,Win32,60
,,,,,,,,,,,,,,,,,,,,8,3.00999999,2,0.13499999,1,0,1200,945,1,1199,demon,45880,2019-10-22_10h31.42.780,SurveyExpMetaMem,3.2.3,Win32,60
,,,,,,,,,,,,,,,,,,,,2,2.611999989,5,0.547999859,1,0,1200,618,1,1199,ceiling,45880,2019-10-22_10h31.42.780,SurveyExpMetaMem,3.2.3,Win32,60
,,,,,,,,,,,,,,,,,,,,7,3.348999977,5,0.274999857,1,0,1200,535,1,1199,ramble,45880,2019-10-22_10h31.42.780,SurveyExpMetaMem,3.2.3,Win32,60
,,,,,,,,,,,,,,,,,,,,2,2.184000015,7,0.380000114,1,0,1200,325,1,1199,disability,45880,2019-10-22_10h31.42.780,SurveyExpMetaMem,3.2.3,Win32,60
,,,,,,,,,,,,,,,,,,,,5,1.508000135,5,0.350000143,1,0,1200,1169,1,1199,enforcement,45880,2019-10-22_10h31.42.780,SurveyExpMetaMem,3.2.3,Win32,60
,,,,,,,,,,,,,,,,,,,,5,3.985000134,8,0.294999838,1,0,1200,123,1,1199,favorite,45880,2019-10-22_10h31.42.780,SurveyExpMetaMem,3.2.3,Win32,60
,,,,,,,,,,,,,,,,,,,,1,2.517999887,6,1.837999821,1,0,1200,703,1,1199,book,45880,2019-10-22_10h31.42.780,SurveyExpMetaMem,3.2.3,Win32,60
,,,,,,,,,,,,,,,,,,,,8,2.630000114,8,0.95600009,1,0,1200,247,1,1199,graduate,45880,2019-10-22_10h31.42.780,SurveyExpMetaMem,3.2.3,Win32,60
,,,,,,,,,,,,,,,,,,,,7,2.659999847,7,0.21600008,1,0,1200,245,1,1199,beach,45880,2019-10-22_10h31.42.780,SurveyExpMetaMem,3.2.3,Win32,60
,,,,,,,,,,,,,,,,,,,,7,1.792999983,7,0.207999945,1,0,1200,275,1,1199,brilliant,45880,2019-10-22_10h31.42.780,SurveyExpMetaMem,3.2.3,Win32,60
,,,,,,,,,,,,,,,,,,,,7,1.279999971,7,0.235999823,1,0,1200,47,1,1199,enjoy,45880,2019-10-22_10h31.42.780,SurveyExpMetaMem,3.2.3,Win32,60
,,,,,,,,,,,,,,,,,,,,5,2.733999968,5,0.282999992,1,0,1200,266,1,1199,juice,45880,2019-10-22_10h31.42.780,SurveyExpMetaMem,3.2.3,Win32,60
,,,,,,,,,,,,,,,,,,,,2,3.388999939,2,0.347000122,1,0,1200,420,1,1199,smoke,45880,2019-10-22_10h31.42.780,SurveyExpMetaMem,3.2.3,Win32,60
,,,,,,,,,,,,,,,,,,,,8,2.894999981,8,0.265999794,1,0,1200,215,1,1199,salary,45880,2019-10-22_10h31.42.780,SurveyExpMetaMem,3.2.3,Win32,60
,,,,,,,,,,,,,,,,,,,,7,3.451999903,3,0.305000067,1,0,1200,382,1,1199,vulnerable,45880,2019-10-22_10h31.42.780,SurveyExpMetaMem,3.2.3,Win32,60
,,,,,,,,,,,,,,,,,,,,5,2.646999836,5,0.2900002,1,0,1200,648,1,1199,beads,45880,2019-10-22_10h31.42.780,SurveyExpMetaMem,3.2.3,Win32,60
,,,,,,,,,,,,,,,,,,,,7,3.71600008,3,0.21600008,1,0,1200,1097,1,1199,bees,45880,2019-10-22_10h31.42.780,SurveyExpMetaMem,3.2.3,Win32,60
,,,,,,,,,,,,,,,,,,,,5,1.707999945,5,0.19299984,1,0,1200,66,1,1199,zest,45880,2019-10-22_10h31.42.780,SurveyExpMetaMem,3.2.3,Win32,60
,,,,,,,,,,,,,,,,,,,,8,1.941999912,8,0.180999994,1,0,1200,288,1,1199,tasty,45880,2019-10-22_10h31.42.780,SurveyExpMetaMem,3.2.3,Win32,60
,,,,,,,,,,,,,,,,,,,,6,5.019999981,8,0.573999882,1,0,1200,26,1,1199,inspired,45880,2019-10-22_10h31.42.780,SurveyExpMetaMem,3.2.3,Win32,60
,,,,,,,,,,,,,,,,,,,,4,3.850000143,4,0.171000004,1,0,1200,912,1,1199,rabies,45880,2019-10-22_10h31.42.780,SurveyExpMetaMem,3.2.3,Win32,60
,,,,,,,,,,,,,,,,,,,,5,1.253999949,5,0.207000017,1,0,1200,434,1,1199,frail,45880,2019-10-22_10h31.42.780,SurveyExpMetaMem,3.2.3,Win32,60
,,,,,,,,,,,,,,,,,,,,5,2.45299983,5,0.18599987,1,0,1200,412,1,1199,mucus,45880,2019-10-22_10h31.42.780,SurveyExpMetaMem,3.2.3,Win32,60
,,,,,,,,,,,,,,,,,,,,4,3.243000031,4,0.657000065,1,0,1200,342,1,1199,alienation,45880,2019-10-22_10h31.42.780,SurveyExpMetaMem,3.2.3,Win32,60
,,,,,,,,,,,,,,,,,,,,8,2.830000162,3,1.144999981,1,0,1200,1009,1,1199,frightened,45880,2019-10-22_10h31.42.780,SurveyExpMetaMem,3.2.3,Win32,60
,,,,,,,,,,,,,,,,,,,,5,1.828000069,5,0.210999966,1,0,1200,770,1,1199,buffalo,45880,2019-10-22_10h31.42.780,SurveyExpMetaMem,3.2.3,Win32,60
,,,,,,,,,,,,,,,,,,,,7,5.689999819,1,1.176000118,1,0,1200,900,1,1199,suicide,45880,2019-10-22_10h31.42.780,SurveyExpMetaMem,3.2.3,Win32,60
,,,,,,,,,,,,,,,,,,,,2,2.087999821,2,1.416000128,1,0,1200,381,1,1199,sloppy,45880,2019-10-22_10h31.42.780,SurveyExpMetaMem,3.2.3,Win32,60
,,,,,,,,,,,,,,,,,,,,7,3.789999962,2,0.152999878,1,0,1200,935,1,1199,despise,45880,2019-10-22_10h31.42.780,SurveyExpMetaMem,3.2.3,Win32,60
,,,,,,,,,,,,,,,,,,,,3,2.690000057,7,1.584000111,1,0,1200,852,1,1199,caring,45880,2019-10-22_10h31.42.780,SurveyExpMetaMem,3.2.3,Win32,60
,,,,,,,,,,,,,,,,,,,,6,2.011000156,6,0.242000103,1,0,1200,583,1,1199,obey,45880,2019-10-22_10h31.42.780,SurveyExpMetaMem,3.2.3,Win32,60
,,,,,,,,,,,,,,,,,,,,5,1.756999969,5,0.171999931,1,0,1200,984,1,1199,despairing,45880,2019-10-22_10h31.42.780,SurveyExpMetaMem,3.2.3,Win32,60
,,,,,,,,,,,,,,,,,,,,7,4.078999996,2,0.386999846,1,0,1200,537,1,1199,absurd,45880,2019-10-22_10h31.42.780,SurveyExpMetaMem,3.2.3,Win32,60
,,,,,,,,,,,,,,,,,,,,7,2.687000036,2,0.973999977,1,0,1200,1086,1,1199,irritate,45880,2019-10-22_10h31.42.780,SurveyExpMetaMem,3.2.3,Win32,60
,,,,,,,,,,,,,,,,,,,,5,2.078999996,5,0.24000001,1,0,1200,820,1,1199,oxygen,45880,2019-10-22_10h31.42.780,SurveyExpMetaMem,3.2.3,Win32,60
,,,,,,,,,,,,,,,,,,,,6,3.980000019,7,0.195999861,1,0,1200,221,1,1199,sparkle,45880,2019-10-22_10h31.42.780,SurveyExpMetaMem,3.2.3,Win32,60
,,,,,,,,,,,,,,,,,,,,2,2.843000174,3,0.513000011,1,0,1200,474,1,1199,weary,45880,2019-10-22_10h31.42.780,SurveyExpMetaMem,3.2.3,Win32,60
,,,,,,,,,,,,,,,,,,,,8,2.784999847,2,0.855000019,1,0,1200,1055,1,1199,alarm,45880,2019-10-22_10h31.42.780,SurveyExpMetaMem,3.2.3,Win32,60
,,,,,,,,,,,,,,,,,,,,7,2.004999876,3,0.373999834,1,0,1200,1085,1,1199,sever,45880,2019-10-22_10h31.42.780,SurveyExpMetaMem,3.2.3,Win32,60
,,,,,,,,,,,,,,,,,,,,2,2.024000168,3,1.292000055,1,0,1200,374,1,1199,sluggish,45880,2019-10-22_10h31.42.780,SurveyExpMetaMem,3.2.3,Win32,60
,,,,,,,,,,,,,,,,,,,,1,2.457000017,8,1.795000076,1,0,1200,753,1,1199,patience,45880,2019-10-22_10h31.42.780,SurveyExpMetaMem,3.2.3,Win32,60
,,,,,,,,,,,,,,,,,,,,6,15.67400002,6,0.226999998,1,0,1200,1096,1,1199,flood,45880,2019-10-22_10h31.42.780,SurveyExpMetaMem,3.2.3,Win32,60
,,,,,,,,,,,,,,,,,,,,7,4.816999912,7,0.542999983,1,0,1200,86,1,1199,talent,45880,2019-10-22_10h31.42.780,SurveyExpMetaMem,3.2.3,Win32,60
,,,,,,,,,,,,,,,,,,,,3,4.051000118,7,0.246999979,1,0,1200,23,1,1199,earn,45880,2019-10-22_10h31.42.780,SurveyExpMetaMem,3.2.3,Win32,60
,,,,,,,,,,,,,,,,,,,,3,6.951999903,6,2.125,1,0,1200,278,1,1199,king,45880,2019-10-22_10h31.42.780,SurveyExpMetaMem,3.2.3,Win32,60
,,,,,,,,,,,,,,,,,,,,3,11.06799984,5,1.376999855,1,0,1200,57,1,1199,important,45880,2019-10-22_10h31.42.780,SurveyExpMetaMem,3.2.3,Win32,60
,,,,,,,,,,,,,,,,,,,,8,4.717000008,9,1.796999931,1,0,1200,197,1,1199,happy,45880,2019-10-22_10h31.42.780,SurveyExpMetaMem,3.2.3,Win32,60
,,,,,,,,,,,,,,,,,,,,5,3.503000021,3,1.845000029,1,0,1200,687,1,1199,skinny,45880,2019-10-22_10h31.42.780,SurveyExpMetaMem,3.2.3,Win32,60
,,,,,,,,,,,,,,,,,,,,7,2.815999985,8,1.036999941,1,0,1200,232,1,1199,prosper,45880,2019-10-22_10h31.42.780,SurveyExpMetaMem,3.2.3,Win32,60
,,,,,,,,,,,,,,,,,,,,1,3.743999958,1,3.156000137,1,0,1200,310,1,1199,lonely,45880,2019-10-22_10h31.42.780,SurveyExpMetaMem,3.2.3,Win32,60
,,,,,,,,,,,,,,,,,,,,5,1.667999983,5,0.292999983,1,0,1200,994,1,1199,repulsed,45880,2019-10-22_10h31.42.780,SurveyExpMetaMem,3.2.3,Win32,60
,,,,,,,,,,,,,,,,,,,,5,1.16899991,5,0.238999844,1,0,1200,730,1,1199,slogan,45880,2019-10-22_10h31.42.780,SurveyExpMetaMem,3.2.3,Win32,60
,,,,,,,,,,,,,,,,,,,,2,5.003999949,4,1.894000053,1,0,1200,4,1,1199,night,45880,2019-10-22_10h31.42.780,SurveyExpMetaMem,3.2.3,Win32,60
,,,,,,,,,,,,,,,,,,,,2,2.359999895,3,1.440000057,1,0,1200,478,1,1199,numb,45880,2019-10-22_10h31.42.780,SurveyExpMetaMem,3.2.3,Win32,60
,,,,,,,,,,,,,,,,,,,,4,1.995000124,4,0.22300005,1,0,1200,454,1,1199,damp,45880,2019-10-22_10h31.42.780,SurveyExpMetaMem,3.2.3,Win32,60
,,,,,,,,,,,,,,,,,,,,2,2.17599988,2,0.203000069,1,0,1200,416,1,1199,boring,45880,2019-10-22_10h31.42.780,SurveyExpMetaMem,3.2.3,Win32,60
,,,,,,,,,,,,,,,,,,,,5,1.812000036,5,0.204999924,1,0,1200,748,1,1199,town,45880,2019-10-22_10h31.42.780,SurveyExpMetaMem,3.2.3,Win32,60
,,,,,,,,,,,,,,,,,,,,8,1.761999846,2,0.687000036,1,0,1200,936,1,1199,assault,45880,2019-10-22_10h31.42.780,SurveyExpMetaMem,3.2.3,Win32,60
,,,,,,,,,,,,,,,,,,,,5,17.03500009,5,0.201999903,1,0,1200,649,1,1199,donkey,45880,2019-10-22_10h31.42.780,SurveyExpMetaMem,3.2.3,Win32,60
,,,,,,,,,,,,,,,,,,,,5,14.94900012,5,0.157000065,1,0,1200,375,1,1199,manure,45880,2019-10-22_10h31.42.780,SurveyExpMetaMem,3.2.3,Win32,60
,,,,,,,,,,,,,,,,,,,,2,1.782999992,7,1.598999977,1,0,1200,680,1,1199,candle,45880,2019-10-22_10h31.42.780,SurveyExpMetaMem,3.2.3,Win32,60
,,,,,,,,,,,,,,,,,,,,5,10.11500001,3,2.052999973,1,0,1200,255,1,1199,ass,45880,2019-10-22_10h31.42.780,SurveyExpMetaMem,3.2.3,Win32,60
,,,,,,,,,,,,,,,,,,,,2,9.639000177,6,2.088000059,1,0,1200,615,1,1199,lad,45880,2019-10-22_10h31.42.780,SurveyExpMetaMem,3.2.3,Win32,60
,,,,,,,,,,,,,,,,,,,,6,4.271999836,4,0.76699996,1,0,1200,50,1,1199,bolt,45880,2019-10-22_10h31.42.780,SurveyExpMetaMem,3.2.3,Win32,60
,,,,,,,,,,,,,,,,,,,,8,4.807999849,2,0.81099987,1,0,1200,1018,1,1199,distress,45880,2019-10-22_10h31.42.780,SurveyExpMetaMem,3.2.3,Win32,60
,,,,,,,,,,,,,,,,,,,,2,4.032000065,3,0.328999996,1,0,1200,355,1,1199,graveyard,45880,2019-10-22_10h31.42.780,SurveyExpMetaMem,3.2.3,Win32,60
,,,,,,,,,,,,,,,,,,,,4,2.434999943,4,1.092000008,1,0,1200,467,1,1199,FALSE,45880,2019-10-22_10h31.42.780,SurveyExpMetaMem,3.2.3,Win32,60
,,,,,,,,,,,,,,,,,,,,8,37.81099987,8,0.479000092,1,0,1200,176,1,1199,champ,45880,2019-10-22_10h31.42.780,SurveyExpMetaMem,3.2.3,Win32,60
,,,,,,,,,,,,,,,,,,,,3,2.877000093,3,1.276000023,1,0,1200,702,1,1199,den,45880,2019-10-22_10h31.42.780,SurveyExpMetaMem,3.2.3,Win32,60
,,,,,,,,,,,,,,,,,,,,3,11.11099982,4,11.24199986,1,0,1200,167,1,1199,casino,45880,2019-10-22_10h31.42.780,SurveyExpMetaMem,3.2.3,Win32,60
,,,,,,,,,,,,,,,,,,,,6,4.362999916,6,1.578000069,1,0,1200,13,1,1199,mingle,45880,2019-10-22_10h31.42.780,SurveyExpMetaMem,3.2.3,Win32,60
,,,,,,,,,,,,,,,,,,,,5,9.592000008,5,0.181999922,1,0,1200,793,1,1199,virtue,45880,2019-10-22_10h31.42.780,SurveyExpMetaMem,3.2.3,Win32,60
,,,,,,,,,,,,,,,,,,,,3,2.436999798,7,0.506000042,1,0,1200,174,1,1199,snow,45880,2019-10-22_10h31.42.780,SurveyExpMetaMem,3.2.3,Win32,60
,,,,,,,,,,,,,,,,,,,,5,9.575000048,5,0.222999811,1,0,1200,390,1,1199,impair,45880,2019-10-22_10h31.42.780,SurveyExpMetaMem,3.2.3,Win32,60
,,,,,,,,,,,,,,,,,,,,5,10.20600009,5,0.795000076,1,0,1200,444,1,1199,mold,45880,2019-10-22_10h31.42.780,SurveyExpMetaMem,3.2.3,Win32,60
,,,,,,,,,,,,,,,,,,,,7,3.449999809,3,0.976000071,1,0,1200,1114,1,1199,foe,45880,2019-10-22_10h31.42.780,SurveyExpMetaMem,3.2.3,Win32,60
,,,,,,,,,,,,,,,,,,,,2,39.18400002,7,0.577000141,1,0,1200,611,1,1199,herring,45880,2019-10-22_10h31.42.780,SurveyExpMetaMem,3.2.3,Win32,60
,,,,,,,,,,,,,,,,,,,,7,2.967999935,3,0.847000122,1,0,1200,508,1,1199,haphazard,45880,2019-10-22_10h31.42.780,SurveyExpMetaMem,3.2.3,Win32,60
,,,,,,,,,,,,,,,,,,,,4,16.71199989,5,8.175000191,1,0,1200,704,1,1199,flute,45880,2019-10-22_10h31.42.780,SurveyExpMetaMem,3.2.3,Win32,60
,,,,,,,,,,,,,,,,,,,,2,2.529999971,5,1.019000053,1,0,1200,767,1,1199,civil,45880,2019-10-22_10h31.42.780,SurveyExpMetaMem,3.2.3,Win32,60
,,,,,,,,,,,,,,,,,,,,6,2.167999983,4,0.448999882,1,0,1200,1059,1,1199,harsh,45880,2019-10-22_10h31.42.780,SurveyExpMetaMem,3.2.3,Win32,60
,,,,,,,,,,,,,,,,,,,,3,1.801000118,7,0.913000107,1,0,1200,881,1,1199,protected,45880,2019-10-22_10h31.42.780,SurveyExpMetaMem,3.2.3,Win32,60
,,,,,,,,,,,,,,,,,,,,5,1.929000139,5,0.20600009,1,0,1200,825,1,1199,swan,45880,2019-10-22_10h31.42.780,SurveyExpMetaMem,3.2.3,Win32,60
,,,,,,,,,,,,,,,,,,,,2,22.49000001,2,0.198999882,1,0,1200,353,1,1199,blister,45880,2019-10-22_10h31.42.780,SurveyExpMetaMem,3.2.3,Win32,60
,,,,,,,,,,,,,,,,,,,,8,2.543000221,4,0.812000036,1,0,1200,1017,1,1199,aggravated,45880,2019-10-22_10h31.42.780,SurveyExpMetaMem,3.2.3,Win32,60
,,,,,,,,,,,,,,,,,,,,3,3.98300004,3,0.154000044,1,0,1200,354,1,1199,cowardice,45880,2019-10-22_10h31.42.780,SurveyExpMetaMem,3.2.3,Win32,60
,,,,,,,,,,,,,,,,,,,,7,39.9749999,4,1.503000021,1,0,1200,440,1,1199,forgot,45880,2019-10-22_10h31.42.780,SurveyExpMetaMem,3.2.3,Win32,60
,,,,,,,,,,,,,,,,,,,,4,27.28499985,4,0.114000082,1,0,1200,132,1,1199,silly,45880,2019-10-22_10h31.42.780,SurveyExpMetaMem,3.2.3,Win32,60
,,,,,,,,,,,,,,,,,,,,7,25.79999995,9,1.535000086,1,0,1200,142,1,1199,christmas,45880,2019-10-22_10h31.42.780,SurveyExpMetaMem,3.2.3,Win32,60
,,,,,,,,,,,,,,,,,,,,7,17.58000016,6,0.319999933,1,0,1200,68,1,1199,perfect,45880,2019-10-22_10h31.42.780,SurveyExpMetaMem,3.2.3,Win32,60
,,,,,,,,,,,,,,,,,,,,7,4.54700017,5,2.628000021,1,0,1200,204,1,1199,crazy,45880,2019-10-22_10h31.42.780,SurveyExpMetaMem,3.2.3,Win32,60
,,,,,,,,,,,,,,,,,,,,7,3.131000042,3,0.460999966,1,0,1200,1011,1,1199,robber,45880,2019-10-22_10h31.42.780,SurveyExpMetaMem,3.2.3,Win32,60
,,,,,,,,,,,,,,,,,,,,2,60.73799992,6,0.345999956,1,0,1200,751,1,1199,listen,45880,2019-10-22_10h31.42.780,SurveyExpMetaMem,3.2.3,Win32,60
,,,,,,,,,,,,,,,,,,,,3,3.897000074,3,0.144000053,1,0,1200,883,1,1199,sky,45880,2019-10-22_10h31.42.780,SurveyExpMetaMem,3.2.3,Win32,60
,,,,,,,,,,,,,,,,,,,,6,0.343999863,3,5.760999918,1,0,1200,1115,1,1199,invade,45880,2019-10-22_10h31.42.780,SurveyExpMetaMem,3.2.3,Win32,60
,,,,,,,,,,,,,,,,,,,,2,4.638999939,6,0.868999958,1,0,1200,212,1,1199,belief,45880,2019-10-22_10h31.42.780,SurveyExpMetaMem,3.2.3,Win32,60
,,,,,,,,,,,,,,,,,,,,3,2.98300004,6,0.509000063,1,0,1200,695,1,1199,teacher,45880,2019-10-22_10h31.42.780,SurveyExpMetaMem,3.2.3,Win32,60
,,,,,,,,,,,,,,,,,,,,4,2.15899992,6,0.348999977,1,0,1200,641,1,1199,writer,45880,2019-10-22_10h31.42.780,SurveyExpMetaMem,3.2.3,Win32,60
,,,,,,,,,,,,,,,,,,,,7,4.211000204,3,0.304000139,1,0,1200,923,1,1199,punish,45880,2019-10-22_10h31.42.780,SurveyExpMetaMem,3.2.3,Win32,60
,,,,,,,,,,,,,,,,,,,,3,4.667000055,7,0.407999992,1,0,1200,835,1,1199,helpful,45880,2019-10-22_10h31.42.780,SurveyExpMetaMem,3.2.3,Win32,60
,,,,,,,,,,,,,,,,,,,,2,2.190000057,6,0.99000001,1,0,1200,754,1,1199,reflection,45880,2019-10-22_10h31.42.780,SurveyExpMetaMem,3.2.3,Win32,60
,,,,,,,,,,,,,,,,,,,,5,4.09800005,2,0.712000132,1,0,1200,423,1,1199,stain,45880,2019-10-22_10h31.42.780,SurveyExpMetaMem,3.2.3,Win32,60
,,,,,,,,,,,,,,,,,,,,6,2.457999945,3,1.038000107,1,0,1200,429,1,1199,cough,45880,2019-10-22_10h31.42.780,SurveyExpMetaMem,3.2.3,Win32,60
,,,,,,,,,,,,,,,,,,,,3,2.943000078,6,1.104000092,1,0,1200,873,1,1199,useful,45880,2019-10-22_10h31.42.780,SurveyExpMetaMem,3.2.3,Win32,60
,,,,,,,,,,,,,,,,,,,,3,3.095999956,2,1.219000101,1,0,1200,916,1,1199,starvation,45880,2019-10-22_10h31.42.780,SurveyExpMetaMem,3.2.3,Win32,60
,,,,,,,,,,,,,,,,,,,,7,2.306999922,2,1.694000006,1,0,1200,1003,1,1199,jealousy,45880,2019-10-22_10h31.42.780,SurveyExpMetaMem,3.2.3,Win32,60
,,,,,,,,,,,,,,,,,,,,7,4.022000074,3,0.617000103,1,0,1200,1172,1,1199,overwhelmed,45880,2019-10-22_10h31.42.780,SurveyExpMetaMem,3.2.3,Win32,60
,,,,,,,,,,,,,,,,,,,,9,2.447000027,9,2.342000008,1,0,1200,115,1,1199,sexual,45880,2019-10-22_10h31.42.780,SurveyExpMetaMem,3.2.3,Win32,60
,,,,,,,,,,,,,,,,,,,,3,3.712000132,5,1.171999931,1,0,1200,1064,1,1199,sinful,45880,2019-10-22_10h31.42.780,SurveyExpMetaMem,3.2.3,Win32,60
,,,,,,,,,,,,,,,,,,,,5,4.832000017,5,0.759000063,1,0,1200,776,1,1199,doll,45880,2019-10-22_10h31.42.780,SurveyExpMetaMem,3.2.3,Win32,60
,,,,,,,,,,,,,,,,,,,,8,3.967000008,2,1.34100008,1,0,1200,1023,1,1199,disorder,45880,2019-10-22_10h31.42.780,SurveyExpMetaMem,3.2.3,Win32,60
,,,,,,,,,,,,,,,,,,,,7,4.338000059,7,1.258000135,1,0,1200,764,1,1199,coin,45880,2019-10-22_10h31.42.780,SurveyExpMetaMem,3.2.3,Win32,60
,,,,,,,,,,,,,,,,,,,,5,5.296000004,5,0.279999971,1,0,1200,586,1,1199,cab,45880,2019-10-22_10h31.42.780,SurveyExpMetaMem,3.2.3,Win32,60
,,,,,,,,,,,,,,,,,,,,7,3.769999981,7,0.223999977,1,0,1200,175,1,1199,playground,45880,2019-10-22_10h31.42.780,SurveyExpMetaMem,3.2.3,Win32,60
,,,,,,,,,,,,,,,,,,,,3,3.639999866,7,0.700999975,1,0,1200,139,1,1199,generosity,45880,2019-10-22_10h31.42.780,SurveyExpMetaMem,3.2.3,Win32,60
,,,,,,,,,,,,,,,,,,,,2,2.339999914,7,1.552999973,1,0,1200,731,1,1199,decency,45880,2019-10-22_10h31.42.780,SurveyExpMetaMem,3.2.3,Win32,60
,,,,,,,,,,,,,,,,,,,,5,1.616999865,5,0.23300004,1,0,1200,657,1,1199,peanut,45880,2019-10-22_10h31.42.780,SurveyExpMetaMem,3.2.3,Win32,60
,,,,,,,,,,,,,,,,,,,,4,4.382999897,6,0.630000114,1,0,1200,98,1,1199,affection,45880,2019-10-22_10h31.42.780,SurveyExpMetaMem,3.2.3,Win32,60
,,,,,,,,,,,,,,,,,,,,5,4.809999943,7,1.184999943,1,0,1200,692,1,1199,medicine,45880,2019-10-22_10h31.42.780,SurveyExpMetaMem,3.2.3,Win32,60
,,,,,,,,,,,,,,,,,,,,8,4.63499999,5,0.476999998,1,0,1200,1101,1,1199,scary,45880,2019-10-22_10h31.42.780,SurveyExpMetaMem,3.2.3,Win32,60
,,,,,,,,,,,,,,,,,,,,5,1.842999935,5,0.17599988,1,0,1200,87,1,1199,cookie,45880,2019-10-22_10h31.42.780,SurveyExpMetaMem,3.2.3,Win32,60
,,,,,,,,,,,,,,,,,,,,5,3.743999958,3,1.128999949,1,0,1200,259,1,1199,thin,45880,2019-10-22_10h31.42.780,SurveyExpMetaMem,3.2.3,Win32,60
,,,,,,,,,,,,,,,,,,,,3,7.745999813,6,1.936000109,1,0,1200,1145,1,1199,officer,45880,2019-10-22_10h31.42.780,SurveyExpMetaMem,3.2.3,Win32,60
,,,,,,,,,,,,,,,,,,,,5,2.289999962,5,0.174000025,1,0,1200,838,1,1199,nestle,45880,2019-10-22_10h31.42.780,SurveyExpMetaMem,3.2.3,Win32,60
,,,,,,,,,,,,,,,,,,,,5,1.654999971,5,0.213999987,1,0,1200,53,1,1199,lotion,45880,2019-10-22_10h31.42.780,SurveyExpMetaMem,3.2.3,Win32,60
,,,,,,,,,,,,,,,,,,,,7,2.177999973,3,0.26699996,1,0,1200,963,1,1199,dreadful,45880,2019-10-22_10h31.42.780,SurveyExpMetaMem,3.2.3,Win32,60
,,,,,,,,,,,,,,,,,,,,5,4.998999834,5,0.138999939,1,0,1200,31,1,1199,brownie,45880,2019-10-22_10h31.42.780,SurveyExpMetaMem,3.2.3,Win32,60
,,,,,,,,,,,,,,,,,,,,8,4.520000219,7,0.457000017,1,0,1200,855,1,1199,girl,45880,2019-10-22_10h31.42.780,SurveyExpMetaMem,3.2.3,Win32,60
,,,,,,,,,,,,,,,,,,,,3,3.911999941,3,1.398999929,1,0,1200,706,1,1199,cat,45880,2019-10-22_10h31.42.780,SurveyExpMetaMem,3.2.3,Win32,60
,,,,,,,,,,,,,,,,,,,,7,5.022000074,2,0.261000156,1,0,1200,997,1,1199,injury,45880,2019-10-22_10h31.42.780,SurveyExpMetaMem,3.2.3,Win32,60
,,,,,,,,,,,,,,,,,,,,8,2.29399991,2,0.205999851,1,0,1200,999,1,1199,burdened,45880,2019-10-22_10h31.42.780,SurveyExpMetaMem,3.2.3,Win32,60
,,,,,,,,,,,,,,,,,,,,8,1.73300004,8,0.275000095,1,0,1200,193,1,1199,party,45880,2019-10-22_10h31.42.780,SurveyExpMetaMem,3.2.3,Win32,60
,,,,,,,,,,,,,,,,,,,,5,2.260000229,5,0.267000198,1,0,1200,582,1,1199,cling,45880,2019-10-22_10h31.42.780,SurveyExpMetaMem,3.2.3,Win32,60
,,,,,,,,,,,,,,,,,,,,7,4.548000097,2,0.266000032,1,0,1200,1019,1,1199,fraud,45880,2019-10-22_10h31.42.780,SurveyExpMetaMem,3.2.3,Win32,60
,,,,,,,,,,,,,,,,,,,,5,2.590999842,5,0.169999838,1,0,1200,220,1,1199,reef,45880,2019-10-22_10h31.42.780,SurveyExpMetaMem,3.2.3,Win32,60
,,,,,,,,,,,,,,,,,,,,5,2.335999966,5,0.247000217,1,0,1200,785,1,1199,pond,45880,2019-10-22_10h31.42.780,SurveyExpMetaMem,3.2.3,Win32,60
,,,,,,,,,,,,,,,,,,,,7,7.532000065,2,0.396999836,1,0,1200,1175,1,1199,prostitute,45880,2019-10-22_10h31.42.780,SurveyExpMetaMem,3.2.3,Win32,60
,,,,,,,,,,,,,,,,,,,,8,6.301000118,2,0.24000001,1,0,1200,988,1,1199,deserter,45880,2019-10-22_10h31.42.780,SurveyExpMetaMem,3.2.3,Win32,60
,,,,,,,,,,,,,,,,,,,,7,3.236999989,3,0.271000147,1,0,1200,1089,1,1199,ridicule,45880,2019-10-22_10h31.42.780,SurveyExpMetaMem,3.2.3,Win32,60
,,,,,,,,,,,,,,,,,,,,3,5.140000105,4,0.993999958,1,0,1200,490,1,1199,detached,45880,2019-10-22_10h31.42.780,SurveyExpMetaMem,3.2.3,Win32,60
,,,,,,,,,,,,,,,,,,,,2,5.038999796,8,0.27699995,1,0,1200,272,1,1199,confidence,45880,2019-10-22_10h31.42.780,SurveyExpMetaMem,3.2.3,Win32,60
,,,,,,,,,,,,,,,,,,,,5,1.431999922,5,0.177999973,1,0,1200,564,1,1199,wane,45880,2019-10-22_10h31.42.780,SurveyExpMetaMem,3.2.3,Win32,60
,,,,,,,,,,,,,,,,,,,,8,1.621999979,5,2.48300004,1,0,1200,236,1,1199,amaze,45880,2019-10-22_10h31.42.780,SurveyExpMetaMem,3.2.3,Win32,60
,,,,,,,,,,,,,,,,,,,,5,4.427000046,5,0.292000055,1,0,1200,736,1,1199,hawk,45880,2019-10-22_10h31.42.780,SurveyExpMetaMem,3.2.3,Win32,60
,,,,,,,,,,,,,,,,,,,,7,4.910000086,5,1.54399991,1,0,1200,1165,1,1199,revolt,45880,2019-10-22_10h31.42.780,SurveyExpMetaMem,3.2.3,Win32,60
,,,,,,,,,,,,,,,,,,,,5,3.410000086,4,1.597000122,1,0,1200,1102,1,1199,nuclear,45880,2019-10-22_10h31.42.780,SurveyExpMetaMem,3.2.3,Win32,60
,,,,,,,,,,,,,,,,,,,,2,3.77699995,4,2.392999887,1,0,1200,496,1,1199,slow,45880,2019-10-22_10h31.42.780,SurveyExpMetaMem,3.2.3,Win32,60
,,,,,,,,,,,,,,,,,,,,8,5.404999971,8,0.390000105,1,0,1200,198,1,1199,comedy,45880,2019-10-22_10h31.42.780,SurveyExpMetaMem,3.2.3,Win32,60
,,,,,,,,,,,,,,,,,,,,7,26.48199987,2,1.106999874,1,0,1200,921,1,1199,humiliation,45880,2019-10-22_10h31.42.780,SurveyExpMetaMem,3.2.3,Win32,60
,,,,,,,,,,,,,,,,,,,,5,3.552000046,6,1.411000013,1,0,1200,678,1,1199,lightbulb,45880,2019-10-22_10h31.42.780,SurveyExpMetaMem,3.2.3,Win32,60
,,,,,,,,,,,,,,,,,,,,5,1.961000204,5,0.506000042,1,0,1200,741,1,1199,wheat,45880,2019-10-22_10h31.42.780,SurveyExpMetaMem,3.2.3,Win32,60
,,,,,,,,,,,,,,,,,,,,2,15.04400015,5,0.746000051,1,0,1200,803,1,1199,tidy,45880,2019-10-22_10h31.42.780,SurveyExpMetaMem,3.2.3,Win32,60
,,,,,,,,,,,,,,,,,,,,2,27.19400001,6,33.98799992,1,0,1200,609,1,1199,candlestick,45880,2019-10-22_10h31.42.780,SurveyExpMetaMem,3.2.3,Win32,60
,,,,,,,,,,,,,,,,,,,,6,113.9750001,5,4.632999897,1,0,1200,37,1,1199,magnificence,45880,2019-10-22_10h31.42.780,SurveyExpMetaMem,3.2.3,Win32,60
,,,,,,,,,,,,,,,,,,,,3,3.147000074,5,0.659000158,1,0,1200,691,1,1199,circle,45880,2019-10-22_10h31.42.780,SurveyExpMetaMem,3.2.3,Win32,60
,,,,,,,,,,,,,,,,,,,,7,4.532000065,4,10.40199995,1,0,1200,1076,1,1199,embarrassed,45880,2019-10-22_10h31.42.780,SurveyExpMetaMem,3.2.3,Win32,60
,,,,,,,,,,,,,,,,,,,,2,36.43400002,7,0.447999954,1,0,1200,83,1,1199,appreciative,45880,2019-10-22_10h31.42.780,SurveyExpMetaMem,3.2.3,Win32,60
,,,,,,,,,,,,,,,,,,,,5,2.776000023,5,0.588999987,1,0,1200,483,1,1199,condescension,45880,2019-10-22_10h31.42.780,SurveyExpMetaMem,3.2.3,Win32,60
,,,,,,,,,,,,,,,,,,,,7,2.710000038,2,2.760999918,1,0,1200,991,1,1199,harass,45880,2019-10-22_10h31.42.780,SurveyExpMetaMem,3.2.3,Win32,60
,,,,,,,,,,,,,,,,,,,,4,25.60000014,3,0.273999929,1,0,1200,327,1,1199,misfortune,45880,2019-10-22_10h31.42.780,SurveyExpMetaMem,3.2.3,Win32,60
,,,,,,,,,,,,,,,,,,,,4,2.937000036,5,0.375999928,1,0,1200,544,1,1199,snail,45880,2019-10-22_10h31.42.780,SurveyExpMetaMem,3.2.3,Win32,60
,,,,,,,,,,,,,,,,,,,,3,20.76600003,2,0.855999947,1,0,1200,398,1,1199,handicapped,45880,2019-10-22_10h31.42.780,SurveyExpMetaMem,3.2.3,Win32,60
,,,,,,,,,,,,,,,,,,,,5,6.951999903,5,0.965999842,1,0,1200,119,1,1199,stereo,45880,2019-10-22_10h31.42.780,SurveyExpMetaMem,3.2.3,Win32,60
,,,,,,,,,,,,,,,,,,,,4,6.22300005,6,0.34800005,1,0,1200,631,1,1199,delicate,45880,2019-10-22_10h31.42.780,SurveyExpMetaMem,3.2.3,Win32,60
,,,,,,,,,,,,,,,,,,,,9,2.490999937,7,2.362999916,1,0,1200,5,1,1199,drunk,45880,2019-10-22_10h31.42.780,SurveyExpMetaMem,3.2.3,Win32,60
,,,,,,,,,,,,,,,,,,,,7,44.14599991,4,0.970999956,1,0,1200,505,1,1199,exhaust,45880,2019-10-22_10h31.42.780,SurveyExpMetaMem,3.2.3,Win32,60
,,,,,,,,,,,,,,,,,,,,6,3.344000101,4,12.90500021,1,0,1200,685,1,1199,makeup,45880,2019-10-22_10h31.42.780,SurveyExpMetaMem,3.2.3,Win32,60
,,,,,,,,,,,,,,,,,,,,2,2.436000109,7,0.756000042,1,0,1200,894,1,1199,sunset,45880,2019-10-22_10h31.42.780,SurveyExpMetaMem,3.2.3,Win32,60
,,,,,,,,,,,,,,,,,,,,6,8.173000097,5,1.126999855,1,0,1200,1129,1,1199,spanking,45880,2019-10-22_10h31.42.780,SurveyExpMetaMem,3.2.3,Win32,60
,,,,,,,,,,,,,,,,,,,,3,3.398000002,4,1.273999929,1,0,1200,922,1,1199,nightmare,45880,2019-10-22_10h31.42.780,SurveyExpMetaMem,3.2.3,Win32,60
,,,,,,,,,,,,,,,,,,,,3,3.586999893,6,1.518000126,1,0,1200,515,1,1199,blues,45880,2019-10-22_10h31.42.780,SurveyExpMetaMem,3.2.3,Win32,60
,,,,,,,,,,,,,,,,,,,,5,3.230000019,6,1.232000113,1,0,1200,880,1,1199,security,45880,2019-10-22_10h31.42.780,SurveyExpMetaMem,3.2.3,Win32,60
,,,,,,,,,,,,,,,,,,,,6,23.03699994,3,1.04700017,1,0,1200,424,1,1199,fault,45880,2019-10-22_10h31.42.780,SurveyExpMetaMem,3.2.3,Win32,60
,,,,,,,,,,,,,,,,,,,,4,2.288999796,5,1.904000044,1,0,1200,529,1,1199,small,45880,2019-10-22_10h31.42.780,SurveyExpMetaMem,3.2.3,Win32,60
,,,,,,,,,,,,,,,,,,,,2,2.007999897,7,1.516000032,1,0,1200,893,1,1199,nature,45880,2019-10-22_10h31.42.780,SurveyExpMetaMem,3.2.3,Win32,60
,,,,,,,,,,,,,,,,,,,,5,4.095999956,4,1.25999999,1,0,1200,879,1,1199,bird,45880,2019-10-22_10h31.42.780,SurveyExpMetaMem,3.2.3,Win32,60
,,,,,,,,,,,,,,,,,,,,5,2.431999922,5,1.335000038,1,0,1200,610,1,1199,miniature,45880,2019-10-22_10h31.42.780,SurveyExpMetaMem,3.2.3,Win32,60
,,,,,,,,,,,,,,,,,,,,5,7.207000017,5,0.24000001,1,0,1200,667,1,1199,dew,45880,2019-10-22_10h31.42.780,SurveyExpMetaMem,3.2.3,Win32,60
,,,,,,,,,,,,,,,,,,,,8,2.713000059,7,0.306999922,1,0,1200,154,1,1199,race,45880,2019-10-22_10h31.42.780,SurveyExpMetaMem,3.2.3,Win32,60
,,,,,,,,,,,,,,,,,,,,9,3.350000143,1,0.286000013,1,0,1200,903,1,1199,cancer,45880,2019-10-22_10h31.42.780,SurveyExpMetaMem,3.2.3,Win32,60
,,,,,,,,,,,,,,,,,,,,4,4.00999999,5,0.42599988,1,0,1200,380,1,1199,expire,45880,2019-10-22_10h31.42.780,SurveyExpMetaMem,3.2.3,Win32,60
,,,,,,,,,,,,,,,,,,,,7,3.84800005,7,0.361000061,1,0,1200,91,1,1199,pretty,45880,2019-10-22_10h31.42.780,SurveyExpMetaMem,3.2.3,Win32,60
,,,,,,,,,,,,,,,,,,,,5,1.647000074,5,0.194000006,1,0,1200,489,1,1199,timid,45880,2019-10-22_10h31.42.780,SurveyExpMetaMem,3.2.3,Win32,60
,,,,,,,,,,,,,,,,,,,,4,3.052999973,3,1.030999899,1,0,1200,1080,1,1199,broken,45880,2019-10-22_10h31.42.780,SurveyExpMetaMem,3.2.3,Win32,60
,,,,,,,,,,,,,,,,,,,,5,1.876999855,5,0.409999847,1,0,1200,790,1,1199,binoculars,45880,2019-10-22_10h31.42.780,SurveyExpMetaMem,3.2.3,Win32,60
,,,,,,,,,,,,,,,,,,,,8,2.062999964,7,0.26699996,1,0,1200,17,1,1199,outgoing,45880,2019-10-22_10h31.42.780,SurveyExpMetaMem,3.2.3,Win32,60
,,,,,,,,,,,,,,,,,,,,8,1.773000002,3,0.340000153,1,0,1200,1042,1,1199,brutal,45880,2019-10-22_10h31.42.780,SurveyExpMetaMem,3.2.3,Win32,60
,,,,,,,,,,,,,,,,,,,,7,3.956999779,7,1.340000153,1,0,1200,190,1,1199,rescue,45880,2019-10-22_10h31.42.780,SurveyExpMetaMem,3.2.3,Win32,60
,,,,,,,,,,,,,,,,,,,,3,6.920000076,5,0.34800005,1,0,1200,683,1,1199,scarf,45880,2019-10-22_10h31.42.780,SurveyExpMetaMem,3.2.3,Win32,60
,,,,,,,,,,,,,,,,,,,,6,3.440999985,7,0.378000021,1,0,1200,500,1,1199,nosey,45880,2019-10-22_10h31.42.780,SurveyExpMetaMem,3.2.3,Win32,60
,,,,,,,,,,,,,,,,,,,,6,7.38499999,5,0.25999999,1,0,1200,595,1,1199,vacuum,45880,2019-10-22_10h31.42.780,SurveyExpMetaMem,3.2.3,Win32,60
,,,,,,,,,,,,,,,,,,,,6,4.383000135,6,1.792999983,1,0,1200,22,1,1199,doughnut,45880,2019-10-22_10h31.42.780,SurveyExpMetaMem,3.2.3,Win32,60
,,,,,,,,,,,,,,,,,,,,8,2.5,8,0.861999989,1,0,1200,59,1,1199,sports,45880,2019-10-22_10h31.42.780,SurveyExpMetaMem,3.2.3,Win32,60
,,,,,,,,,,,,,,,,,,,,2,4.975000143,5,0.460000038,1,0,1200,14,1,1199,attain,45880,2019-10-22_10h31.42.780,SurveyExpMetaMem,3.2.3,Win32,60
,,,,,,,,,,,,,,,,,,,,5,2.294000149,5,1.476999998,1,0,1200,674,1,1199,fitting,45880,2019-10-22_10h31.42.780,SurveyExpMetaMem,3.2.3,Win32,60
,,,,,,,,,,,,,,,,,,,,7,3.174000025,7,0.125,1,0,1200,116,1,1199,carnival,45880,2019-10-22_10h31.42.780,SurveyExpMetaMem,3.2.3,Win32,60
,,,,,,,,,,,,,,,,,,,,5,1.606999874,5,0.138000011,1,0,1200,812,1,1199,harp,45880,2019-10-22_10h31.42.780,SurveyExpMetaMem,3.2.3,Win32,60
,,,,,,,,,,,,,,,,,,,,7,1.68900013,8,0.504000187,1,0,1200,298,1,1199,success,45880,2019-10-22_10h31.42.780,SurveyExpMetaMem,3.2.3,Win32,60
,,,,,,,,,,,,,,,,,,,,6,2.944999933,8,0.308000088,1,0,1200,88,1,1199,ambitious,45880,2019-10-22_10h31.42.780,SurveyExpMetaMem,3.2.3,Win32,60
,,,,,,,,,,,,,,,,,,,,8,3.273000002,1,0.450999975,1,0,1200,901,1,1199,rape,45880,2019-10-22_10h31.42.780,SurveyExpMetaMem,3.2.3,Win32,60
,,,,,,,,,,,,,,,,,,,,3,17.15100002,5,3.182999849,1,0,1200,110,1,1199,animal,45880,2019-10-22_10h31.42.780,SurveyExpMetaMem,3.2.3,Win32,60
,,,,,,,,,,,,,,,,,,,,3,12.17900014,6,9.262000084,1,0,1200,85,1,1199,like,45880,2019-10-22_10h31.42.780,SurveyExpMetaMem,3.2.3,Win32,60
,,,,,,,,,,,,,,,,,,,,5,7.904000044,5,4.322000027,1,0,1200,422,1,1199,doubtful,45880,2019-10-22_10h31.42.780,SurveyExpMetaMem,3.2.3,Win32,60
,,,,,,,,,,,,,,,,,,,,6,3.799000025,6,1.143000126,1,0,1200,708,1,1199,nursery,45880,2019-10-22_10h31.42.780,SurveyExpMetaMem,3.2.3,Win32,60
,,,,,,,,,,,,,,,,,,,,2,2.43900013,5,3.376000166,1,0,1200,332,1,1199,sewage,45880,2019-10-22_10h31.42.780,SurveyExpMetaMem,3.2.3,Win32,60
,,,,,,,,,,,,,,,,,,,,3,1.664000034,5,1.400000095,1,0,1200,744,1,1199,village,45880,2019-10-22_10h31.42.780,SurveyExpMetaMem,3.2.3,Win32,60
,,,,,,,,,,,,,,,,,,,,2,1.556999922,5,1.343999863,1,0,1200,815,1,1199,apple,45880,2019-10-22_10h31.42.780,SurveyExpMetaMem,3.2.3,Win32,60
,,,,,,,,,,,,,,,,,,,,7,4.477999926,7,0.677999973,1,0,1200,156,1,1199,gym,45880,2019-10-22_10h31.42.780,SurveyExpMetaMem,3.2.3,Win32,60
,,,,,,,,,,,,,,,,,,,,2,3.770999908,6,0.160000086,1,0,1200,163,1,1199,gem,45880,2019-10-22_10h31.42.780,SurveyExpMetaMem,3.2.3,Win32,60
,,,,,,,,,,,,,,,,,,,,5,3.825000048,2,1.711999893,1,0,1200,411,1,1199,bitter,45880,2019-10-22_10h31.42.780,SurveyExpMetaMem,3.2.3,Win32,60
,,,,,,,,,,,,,,,,,,,,7,2.755999804,8,1.407999992,1,0,1200,136,1,1199,dog,45880,2019-10-22_10h31.42.780,SurveyExpMetaMem,3.2.3,Win32,60
,,,,,,,,,,,,,,,,,,,,2,3.678999901,5,0.38499999,1,0,1200,624,1,1199,tower,45880,2019-10-22_10h31.42.780,SurveyExpMetaMem,3.2.3,Win32,60
,,,,,,,,,,,,,,,,,,,,2,4.555999994,6,0.374000072,1,0,1200,12,1,1199,mountain,45880,2019-10-22_10h31.42.780,SurveyExpMetaMem,3.2.3,Win32,60
,,,,,,,,,,,,,,,,,,,,3,2.678999901,7,1.301000118,1,0,1200,884,1,1199,grateful,45880,2019-10-22_10h31.42.780,SurveyExpMetaMem,3.2.3,Win32,60
,,,,,,,,,,,,,,,,,,,,7,4.727999926,8,1.644999981,1,0,1200,94,1,1199,engaged,45880,2019-10-22_10h31.42.780,SurveyExpMetaMem,3.2.3,Win32,60
,,,,,,,,,,,,,,,,,,,,6,6.809999943,3,1.148999929,1,0,1200,1088,1,1199,forbid,45880,2019-10-22_10h31.42.780,SurveyExpMetaMem,3.2.3,Win32,60
,,,,,,,,,,,,,,,,,,,,3,6.702000141,4,1.54700017,1,0,1200,1135,1,1199,thirsty,45880,2019-10-22_10h31.42.780,SurveyExpMetaMem,3.2.3,Win32,60
,,,,,,,,,,,,,,,,,,,,2,2.794999838,4,2.666999817,1,0,1200,561,1,1199,plain,45880,2019-10-22_10h31.42.780,SurveyExpMetaMem,3.2.3,Win32,60
,,,,,,,,,,,,,,,,,,,,7,11.15699983,4,2.586999893,1,0,1200,1161,1,1199,shock,45880,2019-10-22_10h31.42.780,SurveyExpMetaMem,3.2.3,Win32,60
,,,,,,,,,,,,,,,,,,,,7,1.590000153,3,1.92599988,1,0,1200,970,1,1199,worry,45880,2019-10-22_10h31.42.780,SurveyExpMetaMem,3.2.3,Win32,60
,,,,,,,,,,,,,,,,,,,,6,2.386000156,5,1.819999933,1,0,1200,485,1,1199,pinch,45880,2019-10-22_10h31.42.780,SurveyExpMetaMem,3.2.3,Win32,60
,,,,,,,,,,,,,,,,,,,,2,5.26699996,6,1.736000061,1,0,1200,805,1,1199,autumn,45880,2019-10-22_10h31.42.780,SurveyExpMetaMem,3.2.3,Win32,60
,,,,,,,,,,,,,,,,,,,,2,9.753999949,8,6.315999985,1,0,1200,242,1,1199,triumph,45880,2019-10-22_10h31.42.780,SurveyExpMetaMem,3.2.3,Win32,60
,,,,,,,,,,,,,,,,,,,,4,4.257999897,7,1.298000097,1,0,1200,35,1,1199,bright,45880,2019-10-22_10h31.42.780,SurveyExpMetaMem,3.2.3,Win32,60
,,,,,,,,,,,,,,,,,,,,3,2.85800004,9,1.518000126,1,0,1200,199,1,1199,laughter,45880,2019-10-22_10h31.42.780,SurveyExpMetaMem,3.2.3,Win32,60
,,,,,,,,,,,,,,,,,,,,5,4.350000143,5,1.137000084,1,0,1200,532,1,1199,recede,45880,2019-10-22_10h31.42.780,SurveyExpMetaMem,3.2.3,Win32,60
,,,,,,,,,,,,,,,,,,,,4,22.62199998,7,1.258000135,1,0,1200,130,1,1199,great,45880,2019-10-22_10h31.42.780,SurveyExpMetaMem,3.2.3,Win32,60
,,,,,,,,,,,,,,,,,,,,6,2.9599998,5,5.57400012,1,0,1200,268,1,1199,tickle,45880,2019-10-22_10h31.42.780,SurveyExpMetaMem,3.2.3,Win32,60
,,,,,,,,,,,,,,,,,,,,1,5.645999908,6,1.790999889,1,0,1200,542,1,1199,loose,45880,2019-10-22_10h31.42.780,SurveyExpMetaMem,3.2.3,Win32,60
,,,,,,,,,,,,,,,,,,,,6,2.428999901,3,1.665999889,1,0,1200,313,1,1199,rotten,45880,2019-10-22_10h31.42.780,SurveyExpMetaMem,3.2.3,Win32,60
,,,,,,,,,,,,,,,,,,,,7,8.148999929,3,1.294999838,1,0,1200,1025,1,1199,deadly,45880,2019-10-22_10h31.42.780,SurveyExpMetaMem,3.2.3,Win32,60
,,,,,,,,,,,,,,,,,,,,2,1.720999956,7,0.828000069,1,0,1200,851,1,1199,cool,45880,2019-10-22_10h31.42.780,SurveyExpMetaMem,3.2.3,Win32,60
,,,,,,,,,,,,,,,,,,,,2,2.079999924,7,0.513000011,1,0,1200,889,1,1199,wise,45880,2019-10-22_10h31.42.780,SurveyExpMetaMem,3.2.3,Win32,60
,,,,,,,,,,,,,,,,,,,,2,1.389000177,7,0.425000191,1,0,1200,898,1,1199,kindness,45880,2019-10-22_10h31.42.780,SurveyExpMetaMem,3.2.3,Win32,60
,,,,,,,,,,,,,,,,,,,,2,2.075000048,5,0.439999819,1,0,1200,659,1,1199,hair,45880,2019-10-22_10h31.42.780,SurveyExpMetaMem,3.2.3,Win32,60
,,,,,,,,,,,,,,,,,,,,5,5.743000031,3,1.057999849,1,0,1200,576,1,1199,policy,45880,2019-10-22_10h31.42.780,SurveyExpMetaMem,3.2.3,Win32,60
,,,,,,,,,,,,,,,,,,,,2,1.98300004,7,0.305000067,1,0,1200,833,1,1199,nice,45880,2019-10-22_10h31.42.780,SurveyExpMetaMem,3.2.3,Win32,60
,,,,,,,,,,,,,,,,,,,,9,17.9920001,9,1.250999928,1,0,1200,49,1,1199,ecstatic,45880,2019-10-22_10h31.42.780,SurveyExpMetaMem,3.2.3,Win32,60
,,,,,,,,,,,,,,,,,,,,5,3.895999908,5,4.697000027,1,0,1200,728,1,1199,patio,45880,2019-10-22_10h31.42.780,SurveyExpMetaMem,3.2.3,Win32,60
,,,,,,,,,,,,,,,,,,,,3,2.876000166,6,1.532999992,1,0,1200,654,1,1199,brief,45880,2019-10-22_10h31.42.780,SurveyExpMetaMem,3.2.3,Win32,60
,,,,,,,,,,,,,,,,,,,,5,18.898,3,1.375,1,0,1200,352,1,1199,negligent,45880,2019-10-22_10h31.42.780,SurveyExpMetaMem,3.2.3,Win32,60
,,,,,,,,,,,,,,,,,,,,3,2.952000141,3,0.375,1,0,1200,482,1,1199,cell,45880,2019-10-22_10h31.42.780,SurveyExpMetaMem,3.2.3,Win32,60
,,,,,,,,,,,,,,,,,,,,8,2.332000017,8,0.618000031,1,0,1200,194,1,1199,celebration,45880,2019-10-22_10h31.42.780,SurveyExpMetaMem,3.2.3,Win32,60
,,,,,,,,,,,,,,,,,,,,8,2.046999931,7,1.544999838,1,0,1200,54,1,1199,alcohol,45880,2019-10-22_10h31.42.780,SurveyExpMetaMem,3.2.3,Win32,60
,,,,,,,,,,,,,,,,,,,,3,2.999000072,3,0.401000023,1,0,1200,1193,1,1199,damn,45880,2019-10-22_10h31.42.780,SurveyExpMetaMem,3.2.3,Win32,60
,,,,,,,,,,,,,,,,,,,,2,2.438999891,4,1.282999992,1,0,1200,456,1,1199,piss,45880,2019-10-22_10h31.42.780,SurveyExpMetaMem,3.2.3,Win32,60
,,,,,,,,,,,,,,,,,,,,7,2.388999939,7,0.919999838,1,0,1200,96,1,1199,joke,45880,2019-10-22_10h31.42.780,SurveyExpMetaMem,3.2.3,Win32,60
,,,,,,,,,,,,,,,,,,,,5,2.026000023,5,0.200000048,1,0,1200,633,1,1199,cattle,45880,2019-10-22_10h31.42.780,SurveyExpMetaMem,3.2.3,Win32,60
,,,,,,,,,,,,,,,,,,,,2,2.941999912,7,0.361999989,1,0,1200,846,1,1199,able,45880,2019-10-22_10h31.42.780,SurveyExpMetaMem,3.2.3,Win32,60
,,,,,,,,,,,,,,,,,,,,4,2.478999853,6,1.525000095,1,0,1200,888,1,1199,refreshment,45880,2019-10-22_10h31.42.780,SurveyExpMetaMem,3.2.3,Win32,60
,,,,,,,,,,,,,,,,,,,,3,4.011000156,5,1.220000029,1,0,1200,122,1,1199,prince,45880,2019-10-22_10h31.42.780,SurveyExpMetaMem,3.2.3,Win32,60
,,,,,,,,,,,,,,,,,,,,3,3.103000164,5,0.513999939,1,0,1200,339,1,1199,chore,45880,2019-10-22_10h31.42.780,SurveyExpMetaMem,3.2.3,Win32,60
,,,,,,,,,,,,,,,,,,,,3,2.793000221,6,0.381999969,1,0,1200,761,1,1199,corn,45880,2019-10-22_10h31.42.780,SurveyExpMetaMem,3.2.3,Win32,60
,,,,,,,,,,,,,,,,,,,,3,3.255000114,5,0.395999908,1,0,1200,435,1,1199,grovel,45880,2019-10-22_10h31.42.780,SurveyExpMetaMem,3.2.3,Win32,60
,,,,,,,,,,,,,,,,,,,,2,3.148999929,3,1.463999987,1,0,1200,428,1,1199,end,45880,2019-10-22_10h31.42.780,SurveyExpMetaMem,3.2.3,Win32,60
,,,,,,,,,,,,,,,,,,,,3,8.842999935,5,0.32400012,1,0,1200,738,1,1199,horse,45880,2019-10-22_10h31.42.780,SurveyExpMetaMem,3.2.3,Win32,60
,,,,,,,,,,,,,,,,,,,,2,2.695000172,5,0.638000011,1,0,1200,772,1,1199,ornament,45880,2019-10-22_10h31.42.780,SurveyExpMetaMem,3.2.3,Win32,60
,,,,,,,,,,,,,,,,,,,,5,2.607000113,4,1.402999878,1,0,1200,405,1,1199,fatigued,45880,2019-10-22_10h31.42.780,SurveyExpMetaMem,3.2.3,Win32,60
,,,,,,,,,,,,,,,,,,,,2,3.813999891,7,0.842999935,1,0,1200,234,1,1199,redeem,45880,2019-10-22_10h31.42.780,SurveyExpMetaMem,3.2.3,Win32,60
,,,,,,,,,,,,,,,,,,,,7,2.465000153,3,0.444000006,1,0,1200,1136,1,1199,appall,45880,2019-10-22_10h31.42.780,SurveyExpMetaMem,3.2.3,Win32,60
,,,,,,,,,,,,,,,,,,,,6,2.297999859,3,1.388999939,1,0,1200,415,1,1199,grime,45880,2019-10-22_10h31.42.780,SurveyExpMetaMem,3.2.3,Win32,60
,,,,,,,,,,,,,,,,,,,,5,3.513999939,5,0.461999893,1,0,1200,605,1,1199,year,45880,2019-10-22_10h31.42.780,SurveyExpMetaMem,3.2.3,Win32,60
,,,,,,,,,,,,,,,,,,,,5,7.465000153,5,0.203000069,1,0,1200,468,1,1199,noose,45880,2019-10-22_10h31.42.780,SurveyExpMetaMem,3.2.3,Win32,60
,,,,,,,,,,,,,,,,,,,,7,3.114000082,8,0.280999899,1,0,1200,36,1,1199,puppy,45880,2019-10-22_10h31.42.780,SurveyExpMetaMem,3.2.3,Win32,60
,,,,,,,,,,,,,,,,,,,,3,4.756999969,3,0.306999922,1,0,1200,432,1,1199,resign,45880,2019-10-22_10h31.42.780,SurveyExpMetaMem,3.2.3,Win32,60
,,,,,,,,,,,,,,,,,,,,5,2.148999929,5,0.256999969,1,0,1200,393,1,1199,droop,45880,2019-10-22_10h31.42.780,SurveyExpMetaMem,3.2.3,Win32,60
,,,,,,,,,,,,,,,,,,,,6,2.997999907,4,1.516000032,1,0,1200,1079,1,1199,critic,45880,2019-10-22_10h31.42.780,SurveyExpMetaMem,3.2.3,Win32,60
,,,,,,,,,,,,,,,,,,,,7,2.576000214,5,1.573999882,1,0,1200,1014,1,1199,destroy,45880,2019-10-22_10h31.42.780,SurveyExpMetaMem,3.2.3,Win32,60
,,,,,,,,,,,,,,,,,,,,8,4.924999952,3,2.344000101,1,0,1200,1183,1,1199,emotional,45880,2019-10-22_10h31.42.780,SurveyExpMetaMem,3.2.3,Win32,60
,,,,,,,,,,,,,,,,,,,,5,1.870000124,5,0.443000078,1,0,1200,1074,1,1199,detain,45880,2019-10-22_10h31.42.780,SurveyExpMetaMem,3.2.3,Win32,60
,,,,,,,,,,,,,,,,,,,,2,2.140000105,5,0.318000078,1,0,1200,760,1,1199,shrimp,45880,2019-10-22_10h31.42.780,SurveyExpMetaMem,3.2.3,Win32,60
,,,,,,,,,,,,,,,,,,,,7,2.781000137,7,0.619999886,1,0,1200,262,1,1199,athletics,45880,2019-10-22_10h31.42.780,SurveyExpMetaMem,3.2.3,Win32,60
,,,,,,,,,,,,,,,,,,,,1,1.796000004,6,2.717999935,1,0,1200,664,1,1199,quiet,45880,2019-10-22_10h31.42.780,SurveyExpMetaMem,3.2.3,Win32,60
,,,,,,,,,,,,,,,,,,,,5,5.305999994,5,1.542000055,1,0,1200,1181,1,1199,blade,45880,2019-10-22_10h31.42.780,SurveyExpMetaMem,3.2.3,Win32,60
,,,,,,,,,,,,,,,,,,,,7,5.049000025,4,2.660000086,1,0,1200,1021,1,1199,attack,45880,2019-10-22_10h31.42.780,SurveyExpMetaMem,3.2.3,Win32,60
,,,,,,,,,,,,,,,,,,,,3,3.214999914,6,1.667999983,1,0,1200,389,1,1199,gloomy,45880,2019-10-22_10h31.42.780,SurveyExpMetaMem,3.2.3,Win32,60
,,,,,,,,,,,,,,,,,,,,3,3.200999975,3,1.539000034,1,0,1200,1154,1,1199,politics,45880,2019-10-22_10h31.42.780,SurveyExpMetaMem,3.2.3,Win32,60
,,,,,,,,,,,,,,,,,,,,5,5.881000042,5,0.24000001,1,0,1200,662,1,1199,bib,45880,2019-10-22_10h31.42.780,SurveyExpMetaMem,3.2.3,Win32,60
,,,,,,,,,,,,,,,,,,,,2,2.243999958,5,0.338000059,1,0,1200,575,1,1199,paragraph,45880,2019-10-22_10h31.42.780,SurveyExpMetaMem,3.2.3,Win32,60
,,,,,,,,,,,,,,,,,,,,2,1.532000065,5,0.297999859,1,0,1200,839,1,1199,flower,45880,2019-10-22_10h31.42.780,SurveyExpMetaMem,3.2.3,Win32,60
,,,,,,,,,,,,,,,,,,,,2,1.144999981,5,0.250999928,1,0,1200,720,1,1199,stable,45880,2019-10-22_10h31.42.780,SurveyExpMetaMem,3.2.3,Win32,60
,,,,,,,,,,,,,,,,,,,,5,1.162000179,5,0.276000023,1,0,1200,1010,1,1199,arson,45880,2019-10-22_10h31.42.780,SurveyExpMetaMem,3.2.3,Win32,60
,,,,,,,,,,,,,,,,,,,,2,1.511000156,5,0.248000145,1,0,1200,598,1,1199,feet,45880,2019-10-22_10h31.42.780,SurveyExpMetaMem,3.2.3,Win32,60
,,,,,,,,,,,,,,,,,,,,3,2.878000021,3,0.895999908,1,0,1200,453,1,1199,prude,45880,2019-10-22_10h31.42.780,SurveyExpMetaMem,3.2.3,Win32,60
,,,,,,,,,,,,,,,,,,,,7,2.315000057,8,0.387000084,1,0,1200,186,1,1199,holiday,45880,2019-10-22_10h31.42.780,SurveyExpMetaMem,3.2.3,Win32,60
,,,,,,,,,,,,,,,,,,,,3,3.944999933,7,4.555999994,1,0,1200,1033,1,1199,horror,45880,2019-10-22_10h31.42.780,SurveyExpMetaMem,3.2.3,Win32,60
,,,,,,,,,,,,,,,,,,,,7,3.822000027,7,0.238000154,1,0,1200,74,1,1199,explore,45880,2019-10-22_10h31.42.780,SurveyExpMetaMem,3.2.3,Win32,60
,,,,,,,,,,,,,,,,,,,,7,3.542999983,7,0.321000099,1,0,1200,217,1,1199,bravery,45880,2019-10-22_10h31.42.780,SurveyExpMetaMem,3.2.3,Win32,60
,,,,,,,,,,,,,,,,,,,,3,3.225000143,6,1.225000143,1,0,1200,200,1,1199,preach,45880,2019-10-22_10h31.42.780,SurveyExpMetaMem,3.2.3,Win32,60
,,,,,,,,,,,,,,,,,,,,2,3.820000172,5,2.22300005,1,0,1200,67,1,1199,penthouse,45880,2019-10-22_10h31.42.780,SurveyExpMetaMem,3.2.3,Win32,60
,,,,,,,,,,,,,,,,,,,,3,4.521999836,4,0.28399992,1,0,1200,129,1,1199,fly,45880,2019-10-22_10h31.42.780,SurveyExpMetaMem,3.2.3,Win32,60
,,,,,,,,,,,,,,,,,,,,2,3.883999825,5,0.315000057,1,0,1200,710,1,1199,gender,45880,2019-10-22_10h31.42.780,SurveyExpMetaMem,3.2.3,Win32,60
,,,,,,,,,,,,,,,,,,,,2,2.617000103,5,0.159999847,1,0,1200,865,1,1199,bliss,45880,2019-10-22_10h31.42.780,SurveyExpMetaMem,3.2.3,Win32,60
,,,,,,,,,,,,,,,,,,,,6,2.616000175,6,1.493000031,1,0,1200,832,1,1199,candy,45880,2019-10-22_10h31.42.780,SurveyExpMetaMem,3.2.3,Win32,60
,,,,,,,,,,,,,,,,,,,,2,5.605999947,2,0.217999935,1,0,1200,998,1,1199,virus,45880,2019-10-22_10h31.42.780,SurveyExpMetaMem,3.2.3,Win32,60
,,,,,,,,,,,,,,,,,,,,2,14.42700005,6,19.59900022,1,0,1200,128,1,1199,supper,45880,2019-10-22_10h31.42.780,SurveyExpMetaMem,3.2.3,Win32,60
,,,,,,,,,,,,,,,,,,,,2,19.26999998,6,0.390999794,1,0,1200,693,1,1199,key,45880,2019-10-22_10h31.42.780,SurveyExpMetaMem,3.2.3,Win32,60
,,,,,,,,,,,,,,,,,,,,4,2.493000031,3,0.460000038,1,0,1200,919,1,1199,loss,45880,2019-10-22_10h31.42.780,SurveyExpMetaMem,3.2.3,Win32,60
,,,,,,,,,,,,,,,,,,,,5,1.634000063,5,0.165999889,1,0,1200,597,1,1199,drool,45880,2019-10-22_10h31.42.780,SurveyExpMetaMem,3.2.3,Win32,60
,,,,,,,,,,,,,,,,,,,,3,5.601000071,6,1.184000015,1,0,1200,111,1,1199,band,45880,2019-10-22_10h31.42.780,SurveyExpMetaMem,3.2.3,Win32,60
,,,,,,,,,,,,,,,,,,,,7,4.730999947,2,1.069000006,1,0,1200,326,1,1199,scam,45880,2019-10-22_10h31.42.780,SurveyExpMetaMem,3.2.3,Win32,60
,,,,,,,,,,,,,,,,,,,,6,3.055000067,3,1.860999823,1,0,1200,394,1,1199,dump,45880,2019-10-22_10h31.42.780,SurveyExpMetaMem,3.2.3,Win32,60
,,,,,,,,,,,,,,,,,,,,6,3.271000147,5,0.404000044,1,0,1200,271,1,1199,applaud,45880,2019-10-22_10h31.42.780,SurveyExpMetaMem,3.2.3,Win32,60
,,,,,,,,,,,,,,,,,,,,2,9.872999907,3,0.256000042,1,0,1200,358,1,1199,waste,45880,2019-10-22_10h31.42.780,SurveyExpMetaMem,3.2.3,Win32,60
,,,,,,,,,,,,,,,,,,,,7,2.366999865,6,0.665999889,1,0,1200,184,1,1199,surprised,45880,2019-10-22_10h31.42.780,SurveyExpMetaMem,3.2.3,Win32,60
,,,,,,,,,,,,,,,,,,,,5,8.479000092,3,1.861000061,1,0,1200,1029,1,1199,abduction,45880,2019-10-22_10h31.42.780,SurveyExpMetaMem,3.2.3,Win32,60
,,,,,,,,,,,,,,,,,,,,2,2.947999954,4,1.006999969,1,0,1200,406,1,1199,tired,45880,2019-10-22_10h31.42.780,SurveyExpMetaMem,3.2.3,Win32,60
,,,,,,,,,,,,,,,,,,,,6,3.106999874,3,0.503000021,1,0,1200,373,1,1199,ignorance,45880,2019-10-22_10h31.42.780,SurveyExpMetaMem,3.2.3,Win32,60
,,,,,,,,,,,,,,,,,,,,9,3.164000034,9,2.506999969,1,0,1200,187,1,1199,excite,45880,2019-10-22_10h31.42.780,SurveyExpMetaMem,3.2.3,Win32,60
,,,,,,,,,,,,,,,,,,,,8,3.299999952,2,0.342000008,1,0,1200,1048,1,1199,paranoid,45880,2019-10-22_10h31.42.780,SurveyExpMetaMem,3.2.3,Win32,60
,,,,,,,,,,,,,,,,,,,,2,2.707000017,7,0.504999876,1,0,1200,1170,1,1199,police,45880,2019-10-22_10h31.42.780,SurveyExpMetaMem,3.2.3,Win32,60
,,,,,,,,,,,,,,,,,,,,5,3.776000023,7,0.766000032,1,0,1200,281,1,1199,summer,45880,2019-10-22_10h31.42.780,SurveyExpMetaMem,3.2.3,Win32,60
,,,,,,,,,,,,,,,,,,,,2,22.67900014,7,0.278000116,1,0,1200,792,1,1199,moral,45880,2019-10-22_10h31.42.780,SurveyExpMetaMem,3.2.3,Win32,60
,,,,,,,,,,,,,,,,,,,,5,4.546000004,5,1.055000067,1,0,1200,61,1,1199,zoom,45880,2019-10-22_10h31.42.780,SurveyExpMetaMem,3.2.3,Win32,60
,,,,,,,,,,,,,,,,,,,,2,2.427999973,6,1.579999924,1,0,1200,1178,1,1199,weight,45880,2019-10-22_10h31.42.780,SurveyExpMetaMem,3.2.3,Win32,60
,,,,,,,,,,,,,,,,,,,,3,4.27699995,3,1.84499979,1,0,1200,309,1,1199,homeless,45880,2019-10-22_10h31.42.780,SurveyExpMetaMem,3.2.3,Win32,60
,,,,,,,,,,,,,,,,,,,,4,4.023999929,3,1.674999952,1,0,1200,1002,1,1199,wounds,45880,2019-10-22_10h31.42.780,SurveyExpMetaMem,3.2.3,Win32,60
,,,,,,,,,,,,,,,,,,,,2,2.00999999,5,0.840000153,1,0,1200,807,1,1199,person,45880,2019-10-22_10h31.42.780,SurveyExpMetaMem,3.2.3,Win32,60
,,,,,,,,,,,,,,,,,,,,8,2.248000145,3,2.929999828,1,0,1200,981,1,1199,rage,45880,2019-10-22_10h31.42.780,SurveyExpMetaMem,3.2.3,Win32,60
,,,,,,,,,,,,,,,,,,,,2,3.146999836,5,0.292999983,1,0,1200,816,1,1199,hippotamus,45880,2019-10-22_10h31.42.780,SurveyExpMetaMem,3.2.3,Win32,60
,,,,,,,,,,,,,,,,,,,,8,2.207000017,1,1.127000093,1,0,1200,1036,1,1199,anxiety,45880,2019-10-22_10h31.42.780,SurveyExpMetaMem,3.2.3,Win32,60
,,,,,,,,,,,,,,,,,,,,5,5.746000051,3,0.995000124,1,0,1200,1043,1,1199,scold,45880,2019-10-22_10h31.42.780,SurveyExpMetaMem,3.2.3,Win32,60
,,,,,,,,,,,,,,,,,,,,5,5.190000057,5,0.209000111,1,0,1200,1093,1,1199,hive,45880,2019-10-22_10h31.42.780,SurveyExpMetaMem,3.2.3,Win32,60
,,,,,,,,,,,,,,,,,,,,7,2.644999981,7,1.13499999,1,0,1200,24,1,1199,model,45880,2019-10-22_10h31.42.780,SurveyExpMetaMem,3.2.3,Win32,60
,,,,,,,,,,,,,,,,,,,,2,3.042000055,5,0.367000103,1,0,1200,749,1,1199,glasses,45880,2019-10-22_10h31.42.780,SurveyExpMetaMem,3.2.3,Win32,60
,,,,,,,,,,,,,,,,,,,,5,1.322000027,5,0.178999901,1,0,1200,507,1,1199,smudge,45880,2019-10-22_10h31.42.780,SurveyExpMetaMem,3.2.3,Win32,60
,,,,,,,,,,,,,,,,,,,,5,51.75200009,3,0.43599987,1,0,1200,992,1,1199,addict,45880,2019-10-22_10h31.42.780,SurveyExpMetaMem,3.2.3,Win32,60
,,,,,,,,,,,,,,,,,,,,7,3.391000032,7,0.851000071,1,0,1200,10,1,1199,cheerleader,45880,2019-10-22_10h31.42.780,SurveyExpMetaMem,3.2.3,Win32,60
,,,,,,,,,,,,,,,,,,,,7,3.039000034,3,0.298999786,1,0,1200,917,1,1199,slave,45880,2019-10-22_10h31.42.780,SurveyExpMetaMem,3.2.3,Win32,60
,,,,,,,,,,,,,,,,,,,,5,1.405999899,5,0.223999977,1,0,1200,497,1,1199,pungent,45880,2019-10-22_10h31.42.780,SurveyExpMetaMem,3.2.3,Win32,60
,,,,,,,,,,,,,,,,,,,,2,1.592000008,5,0.764999866,1,0,1200,701,1,1199,telephone,45880,2019-10-22_10h31.42.780,SurveyExpMetaMem,3.2.3,Win32,60
,,,,,,,,,,,,,,,,,,,,2,1.375,5,0.523000002,1,0,1200,645,1,1199,telescope,45880,2019-10-22_10h31.42.780,SurveyExpMetaMem,3.2.3,Win32,60
,,,,,,,,,,,,,,,,,,,,2,1.157999992,5,0.569000006,1,0,1200,791,1,1199,shoes,45880,2019-10-22_10h31.42.780,SurveyExpMetaMem,3.2.3,Win32,60
,,,,,,,,,,,,,,,,,,,,7,7.552999973,7,0.138000011,1,0,1200,191,1,1199,compassion,45880,2019-10-22_10h31.42.780,SurveyExpMetaMem,3.2.3,Win32,60
,,,,,,,,,,,,,,,,,,,,2,1.992000103,5,0.356999874,1,0,1200,818,1,1199,priest,45880,2019-10-22_10h31.42.780,SurveyExpMetaMem,3.2.3,Win32,60
,,,,,,,,,,,,,,,,,,,,7,2.38499999,4,0.544000149,1,0,1200,469,1,1199,resent,45880,2019-10-22_10h31.42.780,SurveyExpMetaMem,3.2.3,Win32,60
,,,,,,,,,,,,,,,,,,,,8,1.875,8,0.495999813,1,0,1200,244,1,1199,sexy,45880,2019-10-22_10h31.42.780,SurveyExpMetaMem,3.2.3,Win32,60
,,,,,,,,,,,,,,,,,,,,2,8.059999943,6,0.371999979,1,0,1200,745,1,1199,inform,45880,2019-10-22_10h31.42.780,SurveyExpMetaMem,3.2.3,Win32,60
,,,,,,,,,,,,,,,,,,,,8,2.030999899,8,0.582000017,1,0,1200,283,1,1199,elated,45880,2019-10-22_10h31.42.780,SurveyExpMetaMem,3.2.3,Win32,60
,,,,,,,,,,,,,,,,,,,,5,2.220000029,5,0.138000011,1,0,1200,866,1,1199,haven,45880,2019-10-22_10h31.42.780,SurveyExpMetaMem,3.2.3,Win32,60
,,,,,,,,,,,,,,,,,,,,2,7.598999977,6,1.14199996,1,0,1200,727,1,1199,author,45880,2019-10-22_10h31.42.780,SurveyExpMetaMem,3.2.3,Win32,60
,,,,,,,,,,,,,,,,,,,,5,4.683000088,5,0.247999907,1,0,1200,1063,1,1199,quarrel,45880,2019-10-22_10h31.42.780,SurveyExpMetaMem,3.2.3,Win32,60
,,,,,,,,,,,,,,,,,,,,2,2.713999987,4,1.092000008,1,0,1200,577,1,1199,retreat,45880,2019-10-22_10h31.42.780,SurveyExpMetaMem,3.2.3,Win32,60
,,,,,,,,,,,,,,,,,,,,2,2.88499999,5,0.382999897,1,0,1200,493,1,1199,little,45880,2019-10-22_10h31.42.780,SurveyExpMetaMem,3.2.3,Win32,60
,,,,,,,,,,,,,,,,,,,,7,2.721000195,3,0.33100009,1,0,1200,933,1,1199,afraid,45880,2019-10-22_10h31.42.780,SurveyExpMetaMem,3.2.3,Win32,60
,,,,,,,,,,,,,,,,,,,,7,2.337999821,3,0.251000166,1,0,1200,1132,1,1199,anarchy,45880,2019-10-22_10h31.42.780,SurveyExpMetaMem,3.2.3,Win32,60
,,,,,,,,,,,,,,,,,,,,7,1.626999855,3,0.205000162,1,0,1200,1191,1,1199,evade,45880,2019-10-22_10h31.42.780,SurveyExpMetaMem,3.2.3,Win32,60
,,,,,,,,,,,,,,,,,,,,2,1.742999792,5,0.324999809,1,0,1200,107,1,1199,sandwich,45880,2019-10-22_10h31.42.780,SurveyExpMetaMem,3.2.3,Win32,60
,,,,,,,,,,,,,,,,,,,,4,3.671999931,4,0.645999908,1,0,1200,1173,1,1199,lurk,45880,2019-10-22_10h31.42.780,SurveyExpMetaMem,3.2.3,Win32,60
,,,,,,,,,,,,,,,,,,,,2,2.574999809,5,0.370000124,1,0,1200,612,1,1199,propeller,45880,2019-10-22_10h31.42.780,SurveyExpMetaMem,3.2.3,Win32,60
,,,,,,,,,,,,,,,,,,,,6,2.445000172,1,0.889999866,1,0,1200,319,1,1199,malaria,45880,2019-10-22_10h31.42.780,SurveyExpMetaMem,3.2.3,Win32,60
,,,,,,,,,,,,,,,,,,,,2,3.217000008,2,0.953999996,1,0,1200,392,1,1199,moody,45880,2019-10-22_10h31.42.780,SurveyExpMetaMem,3.2.3,Win32,60
,,,,,,,,,,,,,,,,,,,,1,3.947000027,9,1.902999878,1,0,1200,870,1,1199,safe,45880,2019-10-22_10h31.42.780,SurveyExpMetaMem,3.2.3,Win32,60
,,,,,,,,,,,,,,,,,,,,6,4.183999777,3,1.528000116,1,0,1200,1049,1,1199,electrocute,45880,2019-10-22_10h31.42.780,SurveyExpMetaMem,3.2.3,Win32,60
,,,,,,,,,,,,,,,,,,,,3,3.848999977,5,1.179000139,1,0,1200,552,1,1199,shadow,45880,2019-10-22_10h31.42.780,SurveyExpMetaMem,3.2.3,Win32,60
,,,,,,,,,,,,,,,,,,,,7,2.473999977,2,1.734999895,1,0,1200,983,1,1199,demonic,45880,2019-10-22_10h31.42.780,SurveyExpMetaMem,3.2.3,Win32,60
,,,,,,,,,,,,,,,,,,,,5,1.947000027,5,0.262000084,1,0,1200,1075,1,1199,apprehension,45880,2019-10-22_10h31.42.780,SurveyExpMetaMem,3.2.3,Win32,60
,,,,,,,,,,,,,,,,,,,,5,1.138999939,5,0.496000051,1,0,1200,594,1,1199,moss,45880,2019-10-22_10h31.42.780,SurveyExpMetaMem,3.2.3,Win32,60
,,,,,,,,,,,,,,,,,,,,5,4.394000053,3,0.767000198,1,0,1200,391,1,1199,detach,45880,2019-10-22_10h31.42.780,SurveyExpMetaMem,3.2.3,Win32,60
,,,,,,,,,,,,,,,,,,,,2,2.641000032,7,0.266000032,1,0,1200,876,1,1199,politeness,45880,2019-10-22_10h31.42.780,SurveyExpMetaMem,3.2.3,Win32,60
,,,,,,,,,,,,,,,,,,,,3,2.849999905,2,0.746000051,1,0,1200,920,1,1199,hurt,45880,2019-10-22_10h31.42.780,SurveyExpMetaMem,3.2.3,Win32,60
,,,,,,,,,,,,,,,,,,,,5,3.448999882,4,2.126999855,1,0,1200,315,1,1199,zit,45880,2019-10-22_10h31.42.780,SurveyExpMetaMem,3.2.3,Win32,60
,,,,,,,,,,,,,,,,,,,,2,1.812000036,6,1.39199996,1,0,1200,616,1,1199,coat,45880,2019-10-22_10h31.42.780,SurveyExpMetaMem,3.2.3,Win32,60
,,,,,,,,,,,,,,,,,,,,6,4.140000105,2,1.848999977,1,0,1200,946,1,1199,amputate,45880,2019-10-22_10h31.42.780,SurveyExpMetaMem,3.2.3,Win32,60
,,,,,,,,,,,,,,,,,,,,2,2.197000027,2,0.294999838,1,0,1200,371,1,1199,weakness,45880,2019-10-22_10h31.42.780,SurveyExpMetaMem,3.2.3,Win32,60
,,,,,,,,,,,,,,,,,,,,5,23.58899999,3,0.878000021,1,0,1200,451,1,1199,lame,45880,2019-10-22_10h31.42.780,SurveyExpMetaMem,3.2.3,Win32,60
,,,,,,,,,,,,,,,,,,,,7,2.031000137,7,0.297999859,1,0,1200,80,1,1199,wonderful,45880,2019-10-22_10h31.42.780,SurveyExpMetaMem,3.2.3,Win32,60
,,,,,,,,,,,,,,,,,,,,4,3.34800005,3,0.294999838,1,0,1200,351,1,1199,germs,45880,2019-10-22_10h31.42.780,SurveyExpMetaMem,3.2.3,Win32,60
,,,,,,,,,,,,,,,,,,,,7,1.24000001,5,2.46999979,1,0,1200,699,1,1199,leg,45880,2019-10-22_10h31.42.780,SurveyExpMetaMem,3.2.3,Win32,60
,,,,,,,,,,,,,,,,,,,,2,12.87100005,7,1.103000164,1,0,1200,171,1,1199,imagination,45880,2019-10-22_10h31.42.780,SurveyExpMetaMem,3.2.3,Win32,60
,,,,,,,,,,,,,,,,,,,,2,1.757999897,5,0.356999874,1,0,1200,886,1,1199,sunflower,45880,2019-10-22_10h31.42.780,SurveyExpMetaMem,3.2.3,Win32,60
,,,,,,,,,,,,,,,,,,,,3,3.608999968,8,0.268999815,1,0,1200,896,1,1199,cuddle,45880,2019-10-22_10h31.42.780,SurveyExpMetaMem,3.2.3,Win32,60
,,,,,,,,,,,,,,,,,,,,6,2.730999947,5,1.617999792,1,0,1200,269,1,1199,extravagant,45880,2019-10-22_10h31.42.780,SurveyExpMetaMem,3.2.3,Win32,60
,,,,,,,,,,,,,,,,,,,,6,1.743999958,4,0.490999937,1,0,1200,962,1,1199,poisonous,45880,2019-10-22_10h31.42.780,SurveyExpMetaMem,3.2.3,Win32,60
,,,,,,,,,,,,,,,,,,,,8,2.927999973,3,0.659000158,1,0,1200,1156,1,1199,weapon,45880,2019-10-22_10h31.42.780,SurveyExpMetaMem,3.2.3,Win32,60
,,,,,,,,,,,,,,,,,,,,8,2.190000057,2,0.813999891,1,0,1200,961,1,1199,crucify,45880,2019-10-22_10h31.42.780,SurveyExpMetaMem,3.2.3,Win32,60
,,,,,,,,,,,,,,,,,,,,2,4.02699995,5,1.737999916,1,0,1200,694,1,1199,pecan,45880,2019-10-22_10h31.42.780,SurveyExpMetaMem,3.2.3,Win32,60
,,,,,,,,,,,,,,,,,,,,6,2.280999899,6,0.634000063,1,0,1200,84,1,1199,eat,45880,2019-10-22_10h31.42.780,SurveyExpMetaMem,3.2.3,Win32,60
,,,,,,,,,,,,,,,,,,,,4,3.922999859,5,1.964999914,1,0,1200,448,1,1199,depart,45880,2019-10-22_10h31.42.780,SurveyExpMetaMem,3.2.3,Win32,60
,,,,,,,,,,,,,,,,,,,,3,4.417000055,5,1.143000126,1,0,1200,670,1,1199,urinate,45880,2019-10-22_10h31.42.780,SurveyExpMetaMem,3.2.3,Win32,60
,,,,,,,,,,,,,,,,,,,,3,2.20600009,6,0.40199995,1,0,1200,787,1,1199,dawn,45880,2019-10-22_10h31.42.780,SurveyExpMetaMem,3.2.3,Win32,60
,,,,,,,,,,,,,,,,,,,,2,2.174999952,8,1.061999798,1,0,1200,732,1,1199,humble,45880,2019-10-22_10h31.42.780,SurveyExpMetaMem,3.2.3,Win32,60
,,,,,,,,,,,,,,,,,,,,5,5.027000189,5,1.157999992,1,0,1200,522,1,1199,cleft,45880,2019-10-22_10h31.42.780,SurveyExpMetaMem,3.2.3,Win32,60
,,,,,,,,,,,,,,,,,,,,4,2.525000095,3,3.224999905,1,0,1200,1090,1,1199,destruction,45880,2019-10-22_10h31.42.780,SurveyExpMetaMem,3.2.3,Win32,60
,,,,,,,,,,,,,,,,,,,,4,3.479000092,2,1.508000135,1,0,1200,376,1,1199,incompetent,45880,2019-10-22_10h31.42.780,SurveyExpMetaMem,3.2.3,Win32,60
,,,,,,,,,,,,,,,,,,,,5,4.056999922,5,0.189999819,1,0,1200,696,1,1199,rink,45880,2019-10-22_10h31.42.780,SurveyExpMetaMem,3.2.3,Win32,60
,,,,,,,,,,,,,,,,,,,,7,3.988000154,3,2.024000168,1,0,1200,384,1,1199,idiot,45880,2019-10-22_10h31.42.780,SurveyExpMetaMem,3.2.3,Win32,60
,,,,,,,,,,,,,,,,,,,,5,2.93900013,5,0.174000025,1,0,1200,207,1,1199,erect,45880,2019-10-22_10h31.42.780,SurveyExpMetaMem,3.2.3,Win32,60
,,,,,,,,,,,,,,,,,,,,2,2.169999838,5,0.492000103,1,0,1200,625,1,1199,hat,45880,2019-10-22_10h31.42.780,SurveyExpMetaMem,3.2.3,Win32,60
,,,,,,,,,,,,,,,,,,,,2,3.192000151,7,2.174999952,1,0,1200,746,1,1199,proper,45880,2019-10-22_10h31.42.780,SurveyExpMetaMem,3.2.3,Win32,60
,,,,,,,,,,,,,,,,,,,,3,3.075999975,3,0.875999928,1,0,1200,1131,1,1199,envious,45880,2019-10-22_10h31.42.780,SurveyExpMetaMem,3.2.3,Win32,60
,,,,,,,,,,,,,,,,,,,,2,2.217000008,4,1.371999979,1,0,1200,512,1,1199,insect,45880,2019-10-22_10h31.42.780,SurveyExpMetaMem,3.2.3,Win32,60
,,,,,,,,,,,,,,,,,,,,7,2.690999985,3,0.30700016,1,0,1200,396,1,1199,unpopular,45880,2019-10-22_10h31.42.780,SurveyExpMetaMem,3.2.3,Win32,60
,,,,,,,,,,,,,,,,,,,,2,3.412000179,5,0.292999983,1,0,1200,257,1,1199,cockpit,45880,2019-10-22_10h31.42.780,SurveyExpMetaMem,3.2.3,Win32,60
,,,,,,,,,,,,,,,,,,,,2,2.059999943,5,0.190999985,1,0,1200,606,1,1199,easel,45880,2019-10-22_10h31.42.780,SurveyExpMetaMem,3.2.3,Win32,60
,,,,,,,,,,,,,,,,,,,,2,4.066999912,7,0.238000154,1,0,1200,872,1,1199,dignified,45880,2019-10-22_10h31.42.780,SurveyExpMetaMem,3.2.3,Win32,60
,,,,,,,,,,,,,,,,,,,,5,2.015000105,5,0.18599987,1,0,1200,1050,1,1199,scorn,45880,2019-10-22_10h31.42.780,SurveyExpMetaMem,3.2.3,Win32,60
,,,,,,,,,,,,,,,,,,,,5,1.507999897,5,0.138999939,1,0,1200,585,1,1199,tatter,45880,2019-10-22_10h31.42.780,SurveyExpMetaMem,3.2.3,Win32,60
,,,,,,,,,,,,,,,,,,,,5,2.427000046,5,0.169000149,1,0,1200,370,1,1199,rodent,45880,2019-10-22_10h31.42.780,SurveyExpMetaMem,3.2.3,Win32,60
,,,,,,,,,,,,,,,,,,,,2,2.236000061,6,1.993999958,1,0,1200,801,1,1199,noon,45880,2019-10-22_10h31.42.780,SurveyExpMetaMem,3.2.3,Win32,60
,,,,,,,,,,,,,,,,,,,,3,18.079,4,1.450999975,1,0,1200,484,1,1199,leave,45880,2019-10-22_10h31.42.780,SurveyExpMetaMem,3.2.3,Win32,60
,,,,,,,,,,,,,,,,,,,,2,113.7529998,4,0.42599988,1,0,1200,510,1,1199,excuse,45880,2019-10-22_10h31.42.780,SurveyExpMetaMem,3.2.3,Win32,60
,,,,,,,,,,,,,,,,,,,,4,15.10299993,4,1.058999777,1,0,1200,101,1,1199,alien,45880,2019-10-22_10h31.42.780,SurveyExpMetaMem,3.2.3,Win32,60
,,,,,,,,,,,,,,,,,,,,5,17.43599987,5,0.785000086,1,0,1200,1057,1,1199,deceit,45880,2019-10-22_10h31.42.780,SurveyExpMetaMem,3.2.3,Win32,60
,,,,,,,,,,,,,,,,,,,,6,5.523999929,6,0.93900013,1,0,1200,814,1,1199,dress,45880,2019-10-22_10h31.42.780,SurveyExpMetaMem,3.2.3,Win32,60
,,,,,,,,,,,,,,,,,,,,2,2.06400013,6,0.29399991,1,0,1200,777,1,1199,casual,45880,2019-10-22_10h31.42.780,SurveyExpMetaMem,3.2.3,Win32,60
,,,,,,,,,,,,,,,,,,,,3,7.480999947,7,0.247999907,1,0,1200,290,1,1199,enthusiasm,45880,2019-10-22_10h31.42.780,SurveyExpMetaMem,3.2.3,Win32,60
,,,,,,,,,,,,,,,,,,,,5,4.913000107,3,10.23100019,1,0,1200,458,1,1199,refuse,45880,2019-10-22_10h31.42.780,SurveyExpMetaMem,3.2.3,Win32,60
,,,,,,,,,,,,,,,,,,,,2,2.726999998,5,0.237999916,1,0,1200,7,1,1199,duet,45880,2019-10-22_10h31.42.780,SurveyExpMetaMem,3.2.3,Win32,60
,,,,,,,,,,,,,,,,,,,,1,2.862999916,6,1.040999889,1,0,1200,661,1,1199,cow,45880,2019-10-22_10h31.42.780,SurveyExpMetaMem,3.2.3,Win32,60
,,,,,,,,,,,,,,,,,,,,5,2.927999973,3,1.313000202,1,0,1200,318,1,1199,disappointment,45880,2019-10-22_10h31.42.780,SurveyExpMetaMem,3.2.3,Win32,60
,,,,,,,,,,,,,,,,,,,,4,3.38499999,6,1.628999949,1,0,1200,263,1,1199,answer,45880,2019-10-22_10h31.42.780,SurveyExpMetaMem,3.2.3,Win32,60
,,,,,,,,,,,,,,,,,,,,5,2.861999989,6,1.065999985,1,0,1200,9,1,1199,try,45880,2019-10-22_10h31.42.780,SurveyExpMetaMem,3.2.3,Win32,60
,,,,,,,,,,,,,,,,,,,,8,2.200000048,2,1.477999926,1,0,1200,904,1,1199,murderer,45880,2019-10-22_10h31.42.780,SurveyExpMetaMem,3.2.3,Win32,60
,,,,,,,,,,,,,,,,,,,,1,1.710999966,6,2.274999857,1,0,1200,813,1,1199,walking,45880,2019-10-22_10h31.42.780,SurveyExpMetaMem,3.2.3,Win32,60
,,,,,,,,,,,,,,,,,,,,4,9.16899991,7,1.14199996,1,0,1200,775,1,1199,pancakes,45880,2019-10-22_10h31.42.780,SurveyExpMetaMem,3.2.3,Win32,60
,,,,,,,,,,,,,,,,,,,,5,1.583999872,5,0.24000001,1,0,1200,652,1,1199,tend,45880,2019-10-22_10h31.42.780,SurveyExpMetaMem,3.2.3,Win32,60
,,,,,,,,,,,,,,,,,,,,5,1.627000093,5,0.174999952,1,0,1200,556,1,1199,allege,45880,2019-10-22_10h31.42.780,SurveyExpMetaMem,3.2.3,Win32,60
,,,,,,,,,,,,,,,,,,,,7,3.5849998,8,0.326999903,1,0,1200,800,1,1199,authentic,45880,2019-10-22_10h31.42.780,SurveyExpMetaMem,3.2.3,Win32,60
,,,,,,,,,,,,,,,,,,,,2,3.463000059,5,0.681999922,1,0,1200,18,1,1199,mail,45880,2019-10-22_10h31.42.780,SurveyExpMetaMem,3.2.3,Win32,60
,,,,,,,,,,,,,,,,,,,,3,3.683000088,1,2.031999826,1,0,1200,303,1,1199,death,45880,2019-10-22_10h31.42.780,SurveyExpMetaMem,3.2.3,Win32,60
,,,,,,,,,,,,,,,,,,,,2,5.11500001,5,0.875999928,1,0,1200,588,1,1199,bandage,45880,2019-10-22_10h31.42.780,SurveyExpMetaMem,3.2.3,Win32,60
,,,,,,,,,,,,,,,,,,,,7,4.171999931,3,0.602999926,1,0,1200,982,1,1199,robbery,45880,2019-10-22_10h31.42.780,SurveyExpMetaMem,3.2.3,Win32,60
,,,,,,,,,,,,,,,,,,,,2,2.209000111,5,0.943000078,1,0,1200,874,1,1199,butterfly,45880,2019-10-22_10h31.42.780,SurveyExpMetaMem,3.2.3,Win32,60
,,,,,,,,,,,,,,,,,,,,7,2.860000134,4,0.583000183,1,0,1200,979,1,1199,harassment,45880,2019-10-22_10h31.42.780,SurveyExpMetaMem,3.2.3,Win32,60
,,,,,,,,,,,,,,,,,,,,4,6.404999971,4,0.155999899,1,0,1200,1133,1,1199,slip,45880,2019-10-22_10h31.42.780,SurveyExpMetaMem,3.2.3,Win32,60
,,,,,,,,,,,,,,,,,,,,4,1.70600009,4,0.121000051,1,0,1200,1078,1,1199,trouble,45880,2019-10-22_10h31.42.780,SurveyExpMetaMem,3.2.3,Win32,60
,,,,,,,,,,,,,,,,,,,,2,2.628000021,4,1.498000145,1,0,1200,459,1,1199,heavy,45880,2019-10-22_10h31.42.780,SurveyExpMetaMem,3.2.3,Win32,60
,,,,,,,,,,,,,,,,,,,,2,2.311000109,5,0.372999907,1,0,1200,716,1,1199,blouse,45880,2019-10-22_10h31.42.780,SurveyExpMetaMem,3.2.3,Win32,60
,,,,,,,,,,,,,,,,,,,,7,2.17200017,7,2.358999968,1,0,1200,60,1,1199,bikini,45880,2019-10-22_10h31.42.780,SurveyExpMetaMem,3.2.3,Win32,60
,,,,,,,,,,,,,,,,,,,,1,1.849999905,7,2.136000156,1,0,1200,885,1,1199,cozy,45880,2019-10-22_10h31.42.780,SurveyExpMetaMem,3.2.3,Win32,60
,,,,,,,,,,,,,,,,,,,,1,2.240999937,4,1.231999874,1,0,1200,722,1,1199,consoled,45880,2019-10-22_10h31.42.780,SurveyExpMetaMem,3.2.3,Win32,60
,,,,,,,,,,,,,,,,,,,,3,2.885999918,5,0.815000057,1,0,1200,868,1,1199,grace,45880,2019-10-22_10h31.42.780,SurveyExpMetaMem,3.2.3,Win32,60
,,,,,,,,,,,,,,,,,,,,7,2.519000053,3,0.725999832,1,0,1200,1113,1,1199,dagger,45880,2019-10-22_10h31.42.780,SurveyExpMetaMem,3.2.3,Win32,60
,,,,,,,,,,,,,,,,,,,,3,5.14199996,4,1.63499999,1,0,1200,523,1,1199,witch,45880,2019-10-22_10h31.42.780,SurveyExpMetaMem,3.2.3,Win32,60
,,,,,,,,,,,,,,,,,,,,5,13.14499998,5,0.108999968,1,0,1200,941,1,1199,leprosy,45880,2019-10-22_10h31.42.780,SurveyExpMetaMem,3.2.3,Win32,60
,,,,,,,,,,,,,,,,,,,,7,5.118999958,3,0.243000031,1,0,1200,1081,1,1199,damage,45880,2019-10-22_10h31.42.780,SurveyExpMetaMem,3.2.3,Win32,60
,,,,,,,,,,,,,,,,,,,,1,3.197000027,3,0.960000038,1,0,1200,408,1,1199,bore,45880,2019-10-22_10h31.42.780,SurveyExpMetaMem,3.2.3,Win32,60
,,,,,,,,,,,,,,,,,,,,6,2.451999903,3,0.917000055,1,0,1200,1027,1,1199,criticism,45880,2019-10-22_10h31.42.780,SurveyExpMetaMem,3.2.3,Win32,60
,,,,,,,,,,,,,,,,,,,,7,3.210000038,2,0.523999929,1,0,1200,323,1,1199,ungrateful,45880,2019-10-22_10h31.42.780,SurveyExpMetaMem,3.2.3,Win32,60
,,,,,,,,,,,,,,,,,,,,5,2.588999987,5,0.167000055,1,0,1200,1045,1,1199,scalding,45880,2019-10-22_10h31.42.780,SurveyExpMetaMem,3.2.3,Win32,60
,,,,,,,,,,,,,,,,,,,,2,1.906000137,5,0.368999958,1,0,1200,590,1,1199,stool,45880,2019-10-22_10h31.42.780,SurveyExpMetaMem,3.2.3,Win32,60
,,,,,,,,,,,,,,,,,,,,3,3.36500001,5,1.785000086,1,0,1200,229,1,1199,heaven,45880,2019-10-22_10h31.42.780,SurveyExpMetaMem,3.2.3,Win32,60
,,,,,,,,,,,,,,,,,,,,6,2.511000156,3,1.065000057,1,0,1200,316,1,1199,sorrow,45880,2019-10-22_10h31.42.780,SurveyExpMetaMem,3.2.3,Win32,60
,,,,,,,,,,,,,,,,,,,,7,2.694000006,7,0.68900013,1,0,1200,146,1,1199,congratulations,45880,2019-10-22_10h31.42.780,SurveyExpMetaMem,3.2.3,Win32,60
,,,,,,,,,,,,,,,,,,,,3,2.792999983,7,0.500999928,1,0,1200,836,1,1199,lounge,45880,2019-10-22_10h31.42.780,SurveyExpMetaMem,3.2.3,Win32,60
,,,,,,,,,,,,,,,,,,,,4,2.707999945,5,1.185000181,1,0,1200,557,1,1199,class,45880,2019-10-22_10h31.42.780,SurveyExpMetaMem,3.2.3,Win32,60
,,,,,,,,,,,,,,,,,,,,1,2.671999931,5,1.351000071,1,0,1200,628,1,1199,chess,45880,2019-10-22_10h31.42.780,SurveyExpMetaMem,3.2.3,Win32,60
,,,,,,,,,,,,,,,,,,,,6,2.671000004,6,0.748999834,1,0,1200,660,1,1199,rock,45880,2019-10-22_10h31.42.780,SurveyExpMetaMem,3.2.3,Win32,60
,,,,,,,,,,,,,,,,,,,,3,3.04399991,6,0.498000145,1,0,1200,669,1,1199,plaza,45880,2019-10-22_10h31.42.780,SurveyExpMetaMem,3.2.3,Win32,60
,,,,,,,,,,,,,,,,,,,,2,2.521000147,5,0.569999933,1,0,1200,109,1,1199,new,45880,2019-10-22_10h31.42.780,SurveyExpMetaMem,3.2.3,Win32,60
,,,,,,,,,,,,,,,,,,,,3,6.105999947,7,0.805999994,1,0,1200,305,1,1199,frown,45880,2019-10-22_10h31.42.780,SurveyExpMetaMem,3.2.3,Win32,60
,,,,,,,,,,,,,,,,,,,,4,10.76399994,4,1.736999989,1,0,1200,635,1,1199,sensitive,45880,2019-10-22_10h31.42.780,SurveyExpMetaMem,3.2.3,Win32,60
,,,,,,,,,,,,,,,,,,,,2,2.152999878,5,0.332999945,1,0,1200,16,1,1199,sing,45880,2019-10-22_10h31.42.780,SurveyExpMetaMem,3.2.3,Win32,60
,,,,,,,,,,,,,,,,,,,,7,2.135999918,3,0.334000111,1,0,1200,915,1,1199,abuse,45880,2019-10-22_10h31.42.780,SurveyExpMetaMem,3.2.3,Win32,60
,,,,,,,,,,,,,,,,,,,,7,2.141000032,4,1.13499999,1,0,1200,486,1,1199,fool,45880,2019-10-22_10h31.42.780,SurveyExpMetaMem,3.2.3,Win32,60
,,,,,,,,,,,,,,,,,,,,7,2.375,2,0.726000071,1,0,1200,1069,1,1199,defeat,45880,2019-10-22_10h31.42.780,SurveyExpMetaMem,3.2.3,Win32,60
,,,,,,,,,,,,,,,,,,,,4,1.985999823,5,0.398000002,1,0,1200,854,1,1199,river,45880,2019-10-22_10h31.42.780,SurveyExpMetaMem,3.2.3,Win32,60
,,,,,,,,,,,,,,,,,,,,2,10.01200008,5,0.381999969,1,0,1200,179,1,1199,star,45880,2019-10-22_10h31.42.780,SurveyExpMetaMem,3.2.3,Win32,60
,,,,,,,,,,,,,,,,,,,,9,2.447999954,9,0.211999893,1,0,1200,45,1,1199,sex,45880,2019-10-22_10h31.42.780,SurveyExpMetaMem,3.2.3,Win32,60
,,,,,,,,,,,,,,,,,,,,8,2.84800005,6,0.627000093,1,0,1200,141,1,1199,surprise,45880,2019-10-22_10h31.42.780,SurveyExpMetaMem,3.2.3,Win32,60
,,,,,,,,,,,,,,,,,,,,2,1.741999865,5,0.350000143,1,0,1200,655,1,1199,name,45880,2019-10-22_10h31.42.780,SurveyExpMetaMem,3.2.3,Win32,60
,,,,,,,,,,,,,,,,,,,,4,21.43700004,6,0.277999878,1,0,1200,127,1,1199,glamorous,45880,2019-10-22_10h31.42.780,SurveyExpMetaMem,3.2.3,Win32,60
,,,,,,,,,,,,,,,,,,,,5,1.490999937,5,0.180999994,1,0,1200,823,1,1199,nourish,45880,2019-10-22_10h31.42.780,SurveyExpMetaMem,3.2.3,Win32,60
,,,,,,,,,,,,,,,,,,,,6,2.952000141,4,0.226000071,1,0,1200,340,1,1199,coward,45880,2019-10-22_10h31.42.780,SurveyExpMetaMem,3.2.3,Win32,60
,,,,,,,,,,,,,,,,,,,,7,2.127000093,2,0.305000067,1,0,1200,350,1,1199,inadequate,45880,2019-10-22_10h31.42.780,SurveyExpMetaMem,3.2.3,Win32,60
,,,,,,,,,,,,,,,,,,,,8,2.319000006,8,0.582000017,1,0,1200,78,1,1199,energetic,45880,2019-10-22_10h31.42.780,SurveyExpMetaMem,3.2.3,Win32,60
,,,,,,,,,,,,,,,,,,,,6,2.379999876,3,0.990999937,1,0,1200,925,1,1199,disloyal,45880,2019-10-22_10h31.42.780,SurveyExpMetaMem,3.2.3,Win32,60
,,,,,,,,,,,,,,,,,,,,6,3.751000166,2,1.014000177,1,0,1200,1044,1,1199,lost,45880,2019-10-22_10h31.42.780,SurveyExpMetaMem,3.2.3,Win32,60
,,,,,,,,,,,,,,,,,,,,5,1.29399991,5,0.222000122,1,0,1200,403,1,1199,wither,45880,2019-10-22_10h31.42.780,SurveyExpMetaMem,3.2.3,Win32,60
,,,,,,,,,,,,,,,,,,,,4,2.601999998,4,0.160000086,1,0,1200,829,1,1199,innocent,45880,2019-10-22_10h31.42.780,SurveyExpMetaMem,3.2.3,Win32,60
,,,,,,,,,,,,,,,,,,,,7,5.242000103,8,0.308000088,1,0,1200,299,1,1199,champion,45880,2019-10-22_10h31.42.780,SurveyExpMetaMem,3.2.3,Win32,60
,,,,,,,,,,,,,,,,,,,,7,2.661999941,7,0.171999931,1,0,1200,603,1,1199,mane,45880,2019-10-22_10h31.42.780,SurveyExpMetaMem,3.2.3,Win32,60
,,,,,,,,,,,,,,,,,,,,2,5.376999855,8,0.990999937,1,0,1200,773,1,1199,rational,45880,2019-10-22_10h31.42.780,SurveyExpMetaMem,3.2.3,Win32,60
,,,,,,,,,,,,,,,,,,,,6,2.575999975,3,0.354000092,1,0,1200,938,1,1199,seasick,45880,2019-10-22_10h31.42.780,SurveyExpMetaMem,3.2.3,Win32,60
,,,,,,,,,,,,,,,,,,,,2,2.927000046,5,0.345000029,1,0,1200,494,1,1199,butcher,45880,2019-10-22_10h31.42.780,SurveyExpMetaMem,3.2.3,Win32,60
,,,,,,,,,,,,,,,,,,,,2,3.649000168,3,0.384000063,1,0,1200,688,1,1199,jelly,45880,2019-10-22_10h31.42.780,SurveyExpMetaMem,3.2.3,Win32,60
,,,,,,,,,,,,,,,,,,,,2,3.667999983,7,2.269000053,1,0,1200,845,1,1199,honey,45880,2019-10-22_10h31.42.780,SurveyExpMetaMem,3.2.3,Win32,60
,,,,,,,,,,,,,,,,,,,,2,2.223999977,5,0.388999939,1,0,1200,203,1,1199,seal,45880,2019-10-22_10h31.42.780,SurveyExpMetaMem,3.2.3,Win32,60
,,,,,,,,,,,,,,,,,,,,2,3.854000092,6,0.275000095,1,0,1200,824,1,1199,favor,45880,2019-10-22_10h31.42.780,SurveyExpMetaMem,3.2.3,Win32,60
,,,,,,,,,,,,,,,,,,,,3,2.611999989,5,0.669000149,1,0,1200,517,1,1199,habit,45880,2019-10-22_10h31.42.780,SurveyExpMetaMem,3.2.3,Win32,60
,,,,,,,,,,,,,,,,,,,,6,2.687999964,5,0.420000076,1,0,1200,1157,1,1199,slayer,45880,2019-10-22_10h31.42.780,SurveyExpMetaMem,3.2.3,Win32,60
,,,,,,,,,,,,,,,,,,,,1,4.248000145,5,0.911999941,1,0,1200,601,1,1199,roof,45880,2019-10-22_10h31.42.780,SurveyExpMetaMem,3.2.3,Win32,60
,,,,,,,,,,,,,,,,,,,,3,2.160000086,7,2.144999981,1,0,1200,180,1,1199,embrace,45880,2019-10-22_10h31.42.780,SurveyExpMetaMem,3.2.3,Win32,60
,,,,,,,,,,,,,,,,,,,,3,0.509000063,5,1.739000082,1,0,1200,495,1,1199,dust,45880,2019-10-22_10h31.42.780,SurveyExpMetaMem,3.2.3,Win32,60
,,,,,,,,,,,,,,,,,,,,7,1.552000046,3,0.713000059,1,0,1200,1134,1,1199,obsessed,45880,2019-10-22_10h31.42.780,SurveyExpMetaMem,3.2.3,Win32,60
,,,,,,,,,,,,,,,,,,,,6,1.974000216,4,1.067000151,1,0,1200,566,1,1199,obscure,45880,2019-10-22_10h31.42.780,SurveyExpMetaMem,3.2.3,Win32,60
,,,,,,,,,,,,,,,,,,,,3,11.97000003,8,0.809000015,1,0,1200,282,1,1199,luck,45880,2019-10-22_10h31.42.780,SurveyExpMetaMem,3.2.3,Win32,60
,,,,,,,,,,,,,,,,,,,,5,2.010999918,5,0.154999971,1,0,1200,591,1,1199,bereavement,45880,2019-10-22_10h31.42.780,SurveyExpMetaMem,3.2.3,Win32,60
,,,,,,,,,,,,,,,,,,,,2,4.224999905,6,0.446999788,1,0,1200,717,1,1199,modest,45880,2019-10-22_10h31.42.780,SurveyExpMetaMem,3.2.3,Win32,60
,,,,,,,,,,,,,,,,,,,,6,3.401000023,7,1.424999952,1,0,1200,1186,1,1199,goddamn,45880,2019-10-22_10h31.42.780,SurveyExpMetaMem,3.2.3,Win32,60
,,,,,,,,,,,,,,,,,,,,2,2.648999929,7,0.271000147,1,0,1200,105,1,1199,curious,45880,2019-10-22_10h31.42.780,SurveyExpMetaMem,3.2.3,Win32,60
,,,,,,,,,,,,,,,,,,,,2,3.608999968,7,1.072999954,1,0,1200,95,1,1199,giggle,45880,2019-10-22_10h31.42.780,SurveyExpMetaMem,3.2.3,Win32,60
,,,,,,,,,,,,,,,,,,,,7,3.437999964,8,0.585000038,1,0,1200,148,1,1199,victory,45880,2019-10-22_10h31.42.780,SurveyExpMetaMem,3.2.3,Win32,60
,,,,,,,,,,,,,,,,,,,,7,2.868999958,7,0.342000008,1,0,1200,264,1,1199,thong,45880,2019-10-22_10h31.42.780,SurveyExpMetaMem,3.2.3,Win32,60
,,,,,,,,,,,,,,,,,,,,5,10.12100005,5,0.161999941,1,0,1200,729,1,1199,velvet,45880,2019-10-22_10h31.42.780,SurveyExpMetaMem,3.2.3,Win32,60
,,,,,,,,,,,,,,,,,,,,2,2.688000202,7,0.197000027,1,0,1200,534,1,1199,rules,45880,2019-10-22_10h31.42.780,SurveyExpMetaMem,3.2.3,Win32,60
,,,,,,,,,,,,,,,,,,,,2,2.213999987,4,0.355999947,1,0,1200,162,1,1199,royalty,45880,2019-10-22_10h31.42.780,SurveyExpMetaMem,3.2.3,Win32,60
,,,,,,,,,,,,,,,,,,,,6,4.585999966,3,0.398000002,1,0,1200,967,1,1199,horrible,45880,2019-10-22_10h31.42.780,SurveyExpMetaMem,3.2.3,Win32,60
,,,,,,,,,,,,,,,,,,,,3,2.927000046,5,0.498000145,1,0,1200,737,1,1199,lamb,45880,2019-10-22_10h31.42.780,SurveyExpMetaMem,3.2.3,Win32,60
,,,,,,,,,,,,,,,,,,,,2,1.648999929,5,0.805999994,1,0,1200,827,1,1199,saint,45880,2019-10-22_10h31.42.780,SurveyExpMetaMem,3.2.3,Win32,60
,,,,,,,,,,,,,,,,,,,,1,2.990999937,5,0.837000132,1,0,1200,651,1,1199,bathroom,45880,2019-10-22_10h31.42.780,SurveyExpMetaMem,3.2.3,Win32,60
,,,,,,,,,,,,,,,,,,,,4,1.960999966,6,0.36500001,1,0,1200,62,1,1199,interested,45880,2019-10-22_10h31.42.780,SurveyExpMetaMem,3.2.3,Win32,60
,,,,,,,,,,,,,,,,,,,,5,1.523999929,5,0.143000126,1,0,1200,421,1,1199,stale,45880,2019-10-22_10h31.42.780,SurveyExpMetaMem,3.2.3,Win32,60
,,,,,,,,,,,,,,,,,,,,6,2.611999989,6,0.925000191,1,0,1200,875,1,1199,fluffy,45880,2019-10-22_10h31.42.780,SurveyExpMetaMem,3.2.3,Win32,60
,,,,,,,,,,,,,,,,,,,,4,12.63199997,6,0.487999916,1,0,1200,822,1,1199,clearer,45880,2019-10-22_10h31.42.780,SurveyExpMetaMem,3.2.3,Win32,60
,,,,,,,,,,,,,,,,,,,,2,1.739000082,6,0.5,1,0,1200,192,1,1199,pleased,45880,2019-10-22_10h31.42.780,SurveyExpMetaMem,3.2.3,Win32,60
,,,,,,,,,,,,,,,,,,,,5,1.829999924,5,0.17200017,1,0,1200,426,1,1199,con,45880,2019-10-22_10h31.42.780,SurveyExpMetaMem,3.2.3,Win32,60
,,,,,,,,,,,,,,,,,,,,3,3.227999926,7,0.998000145,1,0,1200,1053,1,1199,surgery,45880,2019-10-22_10h31.42.780,SurveyExpMetaMem,3.2.3,Win32,60
,,,,,,,,,,,,,,,,,,,,2,6.516000032,5,2.045000076,1,0,1200,121,1,1199,self,45880,2019-10-22_10h31.42.780,SurveyExpMetaMem,3.2.3,Win32,60
,,,,,,,,,,,,,,,,,,,,7,2.858999968,4,1.325000048,1,0,1200,1024,1,1199,burn,45880,2019-10-22_10h31.42.780,SurveyExpMetaMem,3.2.3,Win32,60
,,,,,,,,,,,,,,,,,,,,8,1.904000044,8,0.506000042,1,0,1200,185,1,1199,flirt,45880,2019-10-22_10h31.42.780,SurveyExpMetaMem,3.2.3,Win32,60
,,,,,,,,,,,,,,,,,,,,5,1.788000107,5,0.154999971,1,0,1200,1006,1,1199,rash,45880,2019-10-22_10h31.42.780,SurveyExpMetaMem,3.2.3,Win32,60
,,,,,,,,,,,,,,,,,,,,2,4.11500001,4,3.046000004,1,0,1200,927,1,1199,jail,45880,2019-10-22_10h31.42.780,SurveyExpMetaMem,3.2.3,Win32,60
,,,,,,,,,,,,,,,,,,,,2,2.823000193,5,0.531999826,1,0,1200,584,1,1199,anus,45880,2019-10-22_10h31.42.780,SurveyExpMetaMem,3.2.3,Win32,60
,,,,,,,,,,,,,,,,,,,,5,1.558000088,5,0.222999811,1,0,1200,913,1,1199,ulcer,45880,2019-10-22_10h31.42.780,SurveyExpMetaMem,3.2.3,Win32,60
,,,,,,,,,,,,,,,,,,,,2,1.920000076,4,0.90199995,1,0,1200,414,1,1199,pity,45880,2019-10-22_10h31.42.780,SurveyExpMetaMem,3.2.3,Win32,60
,,,,,,,,,,,,,,,,,,,,4,2.634000063,3,1.153000116,1,0,1200,948,1,1199,pain,45880,2019-10-22_10h31.42.780,SurveyExpMetaMem,3.2.3,Win32,60
,,,,,,,,,,,,,,,,,,,,2,2.460999966,5,0.479000092,1,0,1200,550,1,1199,fart,45880,2019-10-22_10h31.42.780,SurveyExpMetaMem,3.2.3,Win32,60
,,,,,,,,,,,,,,,,,,,,2,1.811000109,5,0.446000099,1,0,1200,201,1,1199,gorilla,45880,2019-10-22_10h31.42.780,SurveyExpMetaMem,3.2.3,Win32,60
,,,,,,,,,,,,,,,,,,,,2,1.609999895,5,0.410000086,1,0,1200,258,1,1199,children,45880,2019-10-22_10h31.42.780,SurveyExpMetaMem,3.2.3,Win32,60
,,,,,,,,,,,,,,,,,,,,1,2.462000132,5,1.680999994,1,0,1200,689,1,1199,land,45880,2019-10-22_10h31.42.780,SurveyExpMetaMem,3.2.3,Win32,60
,,,,,,,,,,,,,,,,,,,,4,2.357999802,7,0.612999916,1,0,1200,267,1,1199,bold,45880,2019-10-22_10h31.42.780,SurveyExpMetaMem,3.2.3,Win32,60
,,,,,,,,,,,,,,,,,,,,7,1.539000034,8,1.491000175,1,0,1200,295,1,1199,passion,45880,2019-10-22_10h31.42.780,SurveyExpMetaMem,3.2.3,Win32,60
,,,,,,,,,,,,,,,,,,,,1,26.3269999,7,0.963000059,1,0,1200,895,1,1199,peace,45880,2019-10-22_10h31.42.780,SurveyExpMetaMem,3.2.3,Win32,60
,,,,,,,,,,,,,,,,,,,,5,1.358999968,5,0.163000107,1,0,1200,471,1,1199,chump,45880,2019-10-22_10h31.42.780,SurveyExpMetaMem,3.2.3,Win32,60
,,,,,,,,,,,,,,,,,,,,7,2.078999996,7,0.148000002,1,0,1200,150,1,1199,vodka,45880,2019-10-22_10h31.42.780,SurveyExpMetaMem,3.2.3,Win32,60
,,,,,,,,,,,,,,,,,,,,5,1.809999943,5,0.190000057,1,0,1200,499,1,1199,stop,45880,2019-10-22_10h31.42.780,SurveyExpMetaMem,3.2.3,Win32,60
,,,,,,,,,,,,,,,,,,,,5,1.440000057,5,0.156000137,1,0,1200,859,1,1199,serene,45880,2019-10-22_10h31.42.780,SurveyExpMetaMem,3.2.3,Win32,60
,,,,,,,,,,,,,,,,,,,,8,4.147000074,2,0.371000051,1,0,1200,929,1,1199,mutilation,45880,2019-10-22_10h31.42.780,SurveyExpMetaMem,3.2.3,Win32,60
,,,,,,,,,,,,,,,,,,,,3,2.775000095,6,0.72300005,1,0,1200,6,1,1199,chest,45880,2019-10-22_10h31.42.780,SurveyExpMetaMem,3.2.3,Win32,60
,,,,,,,,,,,,,,,,,,,,5,3.519000053,5,0.138999939,1,0,1200,723,1,1199,cinnamon,45880,2019-10-22_10h31.42.780,SurveyExpMetaMem,3.2.3,Win32,60
,,,,,,,,,,,,,,,,,,,,7,2.81400013,7,0.196000099,1,0,1200,38,1,1199,cheeseburger,45880,2019-10-22_10h31.42.780,SurveyExpMetaMem,3.2.3,Win32,60
,,,,,,,,,,,,,,,,,,,,3,2.861000061,7,0.116000175,1,0,1200,1168,1,1199,financial,45880,2019-10-22_10h31.42.780,SurveyExpMetaMem,3.2.3,Win32,60
,,,,,,,,,,,,,,,,,,,,3,4.694000006,3,0.362999916,1,0,1200,1122,1,1199,gossip,45880,2019-10-22_10h31.42.780,SurveyExpMetaMem,3.2.3,Win32,60
,,,,,,,,,,,,,,,,,,,,5,1.523000002,5,0.154000044,1,0,1200,1020,1,1199,malice,45880,2019-10-22_10h31.42.780,SurveyExpMetaMem,3.2.3,Win32,60
,,,,,,,,,,,,,,,,,,,,2,1.342000008,5,0.329999924,1,0,1200,830,1,1199,pear,45880,2019-10-22_10h31.42.780,SurveyExpMetaMem,3.2.3,Win32,60
,,,,,,,,,,,,,,,,,,,,2,1.752999783,5,0.383000135,1,0,1200,877,1,1199,bless,45880,2019-10-22_10h31.42.780,SurveyExpMetaMem,3.2.3,Win32,60
,,,,,,,,,,,,,,,,,,,,7,2.769000053,3,0.461999893,1,0,1200,1121,1,1199,ban,45880,2019-10-22_10h31.42.780,SurveyExpMetaMem,3.2.3,Win32,60
,,,,,,,,,,,,,,,,,,,,7,1.373999834,3,0.192000151,1,0,1200,911,1,1199,rejection,45880,2019-10-22_10h31.42.780,SurveyExpMetaMem,3.2.3,Win32,60
,,,,,,,,,,,,,,,,,,,,2,3.888000011,5,0.270999908,1,0,1200,554,1,1199,label,45880,2019-10-22_10h31.42.780,SurveyExpMetaMem,3.2.3,Win32,60
,,,,,,,,,,,,,,,,,,,,1,1.431999922,7,1.173000097,1,0,1200,897,1,1199,peaceful,45880,2019-10-22_10h31.42.780,SurveyExpMetaMem,3.2.3,Win32,60
,,,,,,,,,,,,,,,,,,,,7,1.937999964,3,0.638999939,1,0,1200,1026,1,1199,crisis,45880,2019-10-22_10h31.42.780,SurveyExpMetaMem,3.2.3,Win32,60
,,,,,,,,,,,,,,,,,,,,9,2.497000217,1,0.295000076,1,0,1200,972,1,1199,homicide,45880,2019-10-22_10h31.42.780,SurveyExpMetaMem,3.2.3,Win32,60
,,,,,,,,,,,,,,,,,,,,8,1.446000099,2,0.18900013,1,0,1200,964,1,1199,grieve,45880,2019-10-22_10h31.42.780,SurveyExpMetaMem,3.2.3,Win32,60
,,,,,,,,,,,,,,,,,,,,4,3.302999973,3,0.190999985,1,0,1200,1151,1,1199,drama,45880,2019-10-22_10h31.42.780,SurveyExpMetaMem,3.2.3,Win32,60
,,,,,,,,,,,,,,,,,,,,7,3.085999966,7,0.138000011,1,0,1200,165,1,1199,sizzle,45880,2019-10-22_10h31.42.780,SurveyExpMetaMem,3.2.3,Win32,60
,,,,,,,,,,,,,,,,,,,,5,2.308000088,5,0.156000137,1,0,1200,1032,1,1199,exam,45880,2019-10-22_10h31.42.780,SurveyExpMetaMem,3.2.3,Win32,60
,,,,,,,,,,,,,,,,,,,,7,39.61300015,4,0.217000008,1,0,1200,347,1,1199,unpleasant,45880,2019-10-22_10h31.42.780,SurveyExpMetaMem,3.2.3,Win32,60
,,,,,,,,,,,,,,,,,,,,7,2.157000065,3,0.142999887,1,0,1200,1061,1,1199,difficult,45880,2019-10-22_10h31.42.780,SurveyExpMetaMem,3.2.3,Win32,60
,,,,,,,,,,,,,,,,,,,,5,1.538000107,5,0.136999846,1,0,1200,404,1,1199,nuisance,45880,2019-10-22_10h31.42.780,SurveyExpMetaMem,3.2.3,Win32,60
,,,,,,,,,,,,,,,,,,,,5,3.605000019,5,0.128999949,1,0,1200,589,1,1199,coarse,45880,2019-10-22_10h31.42.780,SurveyExpMetaMem,3.2.3,Win32,60
,,,,,,,,,,,,,,,,,,,,4,3.694000006,4,0.17200017,1,0,1200,385,1,1199,tiresome,45880,2019-10-22_10h31.42.780,SurveyExpMetaMem,3.2.3,Win32,60
,,,,,,,,,,,,,,,,,,,,7,1.988000154,4,0.189999819,1,0,1200,1070,1,1199,bleed,45880,2019-10-22_10h31.42.780,SurveyExpMetaMem,3.2.3,Win32,60
,,,,,,,,,,,,,,,,,,,,7,1.874000072,3,0.201999903,1,0,1200,533,1,1199,busy,45880,2019-10-22_10h31.42.780,SurveyExpMetaMem,3.2.3,Win32,60
,,,,,,,,,,,,,,,,,,,,5,1.555999994,5,0.161000013,1,0,1200,778,1,1199,adorn,45880,2019-10-22_10h31.42.780,SurveyExpMetaMem,3.2.3,Win32,60
,,,,,,,,,,,,,,,,,,,,2,1.730999947,7,0.291000128,1,0,1200,149,1,1199,loved,45880,2019-10-22_10h31.42.780,SurveyExpMetaMem,3.2.3,Win32,60
,,,,,,,,,,,,,,,,,,,,4,4.904999971,4,0.322999954,1,0,1200,336,1,1199,wasteful,45880,2019-10-22_10h31.42.780,SurveyExpMetaMem,3.2.3,Win32,60
,,,,,,,,,,,,,,,,,,,,7,21.82000017,3,0.512000084,1,0,1200,986,1,1199,mad,45880,2019-10-22_10h31.42.780,SurveyExpMetaMem,3.2.3,Win32,60
,,,,,,,,,,,,,,,,,,,,7,2.210999966,2,0.82400012,1,0,1200,481,1,1199,melancholy,45880,2019-10-22_10h31.42.780,SurveyExpMetaMem,3.2.3,Win32,60
,,,,,,,,,,,,,,,,,,,,7,2.440999985,3,0.319000006,1,0,1200,980,1,1199,liar,45880,2019-10-22_10h31.42.780,SurveyExpMetaMem,3.2.3,Win32,60
,,,,,,,,,,,,,,,,,,,,2,1.421000004,5,0.335999966,1,0,1200,686,1,1199,phone,45880,2019-10-22_10h31.42.780,SurveyExpMetaMem,3.2.3,Win32,60
,,,,,,,,,,,,,,,,,,,,2,2.141000032,4,0.405999899,1,0,1200,1083,1,1199,delayed,45880,2019-10-22_10h31.42.780,SurveyExpMetaMem,3.2.3,Win32,60
,,,,,,,,,,,,,,,,,,,,5,1.601999998,5,0.269000053,1,0,1200,460,1,1199,rag,45880,2019-10-22_10h31.42.780,SurveyExpMetaMem,3.2.3,Win32,60
,,,,,,,,,,,,,,,,,,,,5,1.991000175,5,0.125,1,0,1200,34,1,1199,personality,45880,2019-10-22_10h31.42.780,SurveyExpMetaMem,3.2.3,Win32,60
,,,,,,,,,,,,,,,,,,,,6,2.151000023,4,0.178999901,1,0,1200,1148,1,1199,suspicious,45880,2019-10-22_10h31.42.780,SurveyExpMetaMem,3.2.3,Win32,60
,,,,,,,,,,,,,,,,,,,,8,6.144000053,3,1.677000046,1,0,1200,973,1,1199,anger,45880,2019-10-22_10h31.42.780,SurveyExpMetaMem,3.2.3,Win32,60
,,,,,,,,,,,,,,,,,,,,6,4.337000132,6,0.126000166,1,0,1200,277,1,1199,cupcake,45880,2019-10-22_10h31.42.780,SurveyExpMetaMem,3.2.3,Win32,60
,,,,,,,,,,,,,,,,,,,,5,2.473999977,5,0.170000076,1,0,1200,21,1,1199,game,45880,2019-10-22_10h31.42.780,SurveyExpMetaMem,3.2.3,Win32,60
,,,,,,,,,,,,,,,,,,,,6,3.075999975,4,1.492000103,1,0,1200,1139,1,1199,scare,45880,2019-10-22_10h31.42.780,SurveyExpMetaMem,3.2.3,Win32,60
,,,,,,,,,,,,,,,,,,,,6,3.453999996,3,1.539000034,1,0,1200,1116,1,1199,emergency,45880,2019-10-22_10h31.42.780,SurveyExpMetaMem,3.2.3,Win32,60
,,,,,,,,,,,,,,,,,,,,5,1.950999975,5,0.139999866,1,0,1200,1109,1,1199,germ,45880,2019-10-22_10h31.42.780,SurveyExpMetaMem,3.2.3,Win32,60
,,,,,,,,,,,,,,,,,,,,5,0.887000084,5,0.148000002,1,0,1200,491,1,1199,meek,45880,2019-10-22_10h31.42.780,SurveyExpMetaMem,3.2.3,Win32,60
,,,,,,,,,,,,,,,,,,,,5,2.509000063,6,0.536999941,1,0,1200,39,1,1199,birth,45880,2019-10-22_10h31.42.780,SurveyExpMetaMem,3.2.3,Win32,60
,,,,,,,,,,,,,,,,,,,,4,5.009000063,6,1.92599988,1,0,1200,1031,1,1199,fear,45880,2019-10-22_10h31.42.780,SurveyExpMetaMem,3.2.3,Win32,60
,,,,,,,,,,,,,,,,,,,,7,3.553999901,7,1.881999969,1,0,1200,230,1,1199,eager,45880,2019-10-22_10h31.42.780,SurveyExpMetaMem,3.2.3,Win32,60
,,,,,,,,,,,,,,,,,,,,7,5.372999907,3,0.151000023,1,0,1200,383,1,1199,messy,45880,2019-10-22_10h31.42.780,SurveyExpMetaMem,3.2.3,Win32,60
,,,,,,,,,,,,,,,,,,,,6,5.387000084,6,0.513999939,1,0,1200,58,1,1199,boost,45880,2019-10-22_10h31.42.780,SurveyExpMetaMem,3.2.3,Win32,60
,,,,,,,,,,,,,,,,,,,,6,1.639000177,6,0.174000025,1,0,1200,114,1,1199,raise,45880,2019-10-22_10h31.42.780,SurveyExpMetaMem,3.2.3,Win32,60
,,,,,,,,,,,,,,,,,,,,3,4.077000141,7,0.965999842,1,0,1200,1158,1,1199,dentist,45880,2019-10-22_10h31.42.780,SurveyExpMetaMem,3.2.3,Win32,60
,,,,,,,,,,,,,,,,,,,,3,15.55800009,8,0.397000074,1,0,1200,181,1,1199,fascinate,45880,2019-10-22_10h31.42.780,SurveyExpMetaMem,3.2.3,Win32,60
,,,,,,,,,,,,,,,,,,,,7,2.881000042,8,0.383000135,1,0,1200,42,1,1199,accomplish,45880,2019-10-22_10h31.42.780,SurveyExpMetaMem,3.2.3,Win32,60
,,,,,,,,,,,,,,,,,,,,7,1.421000004,7,0.213999987,1,0,1200,188,1,1199,profit,45880,2019-10-22_10h31.42.780,SurveyExpMetaMem,3.2.3,Win32,60
,,,,,,,,,,,,,,,,,,,,5,1.607999802,5,0.138000011,1,0,1200,216,1,1199,vigorous,45880,2019-10-22_10h31.42.780,SurveyExpMetaMem,3.2.3,Win32,60
,,,,,,,,,,,,,,,,,,,,2,2.465000153,4,0.30700016,1,0,1200,965,1,1199,traffic,45880,2019-10-22_10h31.42.780,SurveyExpMetaMem,3.2.3,Win32,60
,,,,,,,,,,,,,,,,,,,,3,4.95299983,4,0.516000032,1,0,1200,995,1,1199,cult,45880,2019-10-22_10h31.42.780,SurveyExpMetaMem,3.2.3,Win32,60
,,,,,,,,,,,,,,,,,,,,3,1.815999985,6,0.371000051,1,0,1200,715,1,1199,sheltered,45880,2019-10-22_10h31.42.780,SurveyExpMetaMem,3.2.3,Win32,60
,,,,,,,,,,,,,,,,,,,,6,3.302000046,6,0.180000067,1,0,1200,1150,1,1199,forceful,45880,2019-10-22_10h31.42.780,SurveyExpMetaMem,3.2.3,Win32,60
,,,,,,,,,,,,,,,,,,,,2,2.398000002,5,0.256000042,1,0,1200,769,1,1199,relate,45880,2019-10-22_10h31.42.780,SurveyExpMetaMem,3.2.3,Win32,60
,,,,,,,,,,,,,,,,,,,,2,1.510999918,5,0.20299983,1,0,1200,249,1,1199,award,45880,2019-10-22_10h31.42.780,SurveyExpMetaMem,3.2.3,Win32,60
,,,,,,,,,,,,,,,,,,,,6,2.750999928,7,0.399000168,1,0,1200,840,1,1199,cuisine,45880,2019-10-22_10h31.42.780,SurveyExpMetaMem,3.2.3,Win32,60
,,,,,,,,,,,,,,,,,,,,1,2.528000116,5,0.232999802,1,0,1200,890,1,1199,carefree,45880,2019-10-22_10h31.42.780,SurveyExpMetaMem,3.2.3,Win32,60
,,,,,,,,,,,,,,,,,,,,5,14.42400002,4,1.28399992,1,0,1200,117,1,1199,powerful,45880,2019-10-22_10h31.42.780,SurveyExpMetaMem,3.2.3,Win32,60
,,,,,,,,,,,,,,,,,,,,2,2.399999857,5,0.138000011,1,0,1200,850,1,1199,lake,45880,2019-10-22_10h31.42.780,SurveyExpMetaMem,3.2.3,Win32,60
,,,,,,,,,,,,,,,,,,,,7,2.730000019,7,0.306999922,1,0,1200,1137,1,1199,knife,45880,2019-10-22_10h31.42.780,SurveyExpMetaMem,3.2.3,Win32,60
,,,,,,,,,,,,,,,,,,,,8,3.121999979,1,1.620000124,1,0,1200,905,1,1199,suffocate,45880,2019-10-22_10h31.42.780,SurveyExpMetaMem,3.2.3,Win32,60
,,,,,,,,,,,,,,,,,,,,2,2.555999994,5,0.242000103,1,0,1200,1195,1,1199,speech,45880,2019-10-22_10h31.42.780,SurveyExpMetaMem,3.2.3,Win32,60
,,,,,,,,,,,,,,,,,,,,2,4.671000004,5,0.232000113,1,0,1200,399,1,1199,withdrawn,45880,2019-10-22_10h31.42.780,SurveyExpMetaMem,3.2.3,Win32,60
,,,,,,,,,,,,,,,,,,,,3,4.140000105,5,0.327000141,1,0,1200,1142,1,1199,disturb,45880,2019-10-22_10h31.42.780,SurveyExpMetaMem,3.2.3,Win32,60
,,,,,,,,,,,,,,,,,,,,2,7.639000177,6,0.628000021,1,0,1200,882,1,1199,gentle,45880,2019-10-22_10h31.42.780,SurveyExpMetaMem,3.2.3,Win32,60
,,,,,,,,,,,,,,,,,,,,8,2.126000166,8,1.240999937,1,0,1200,20,1,1199,climax,45880,2019-10-22_10h31.42.780,SurveyExpMetaMem,3.2.3,Win32,60
,,,,,,,,,,,,,,,,,,,,8,1.924000025,8,0.907000065,1,0,1200,248,1,1199,win,45880,2019-10-22_10h31.42.780,SurveyExpMetaMem,3.2.3,Win32,60
,,,,,,,,,,,,,,,,,,,,7,9.631000042,3,0.15899992,1,0,1200,311,1,1199,discomfort,45880,2019-10-22_10h31.42.780,SurveyExpMetaMem,3.2.3,Win32,60
,,,,,,,,,,,,,,,,,,,,5,1.934999943,5,0.197000027,1,0,1200,796,1,1199,rose,45880,2019-10-22_10h31.42.780,SurveyExpMetaMem,3.2.3,Win32,60
,,,,,,,,,,,,,,,,,,,,6,3.588000059,4,0.307999849,1,0,1200,362,1,1199,despair,45880,2019-10-22_10h31.42.780,SurveyExpMetaMem,3.2.3,Win32,60
,,,,,,,,,,,,,,,,,,,,2,7.263999939,5,0.154999971,1,0,1200,1176,1,1199,vampire,45880,2019-10-22_10h31.42.780,SurveyExpMetaMem,3.2.3,Win32,60
,,,,,,,,,,,,,,,,,,,,8,3.575000048,5,0.47300005,1,0,1200,8,1,1199,extreme,45880,2019-10-22_10h31.42.780,SurveyExpMetaMem,3.2.3,Win32,60
,,,,,,,,,,,,,,,,,,,,7,8.927000046,7,0.528000116,1,0,1200,226,1,1199,prize,45880,2019-10-22_10h31.42.780,SurveyExpMetaMem,3.2.3,Win32,60
,,,,,,,,,,,,,,,,,,,,2,2.541999817,4,0.571000099,1,0,1200,713,1,1199,mobile,45880,2019-10-22_10h31.42.780,SurveyExpMetaMem,3.2.3,Win32,60
,,,,,,,,,,,,,,,,,,,,5,1.480000019,5,0.157000065,1,0,1200,461,1,1199,ail,45880,2019-10-22_10h31.42.780,SurveyExpMetaMem,3.2.3,Win32,60
,,,,,,,,,,,,,,,,,,,,7,2.438999891,7,0.167000055,1,0,1200,1124,1,1199,seize,45880,2019-10-22_10h31.42.780,SurveyExpMetaMem,3.2.3,Win32,60
,,,,,,,,,,,,,,,,,,,,7,1.394000053,7,0.169000149,1,0,1200,712,1,1199,harvest,45880,2019-10-22_10h31.42.780,SurveyExpMetaMem,3.2.3,Win32,60
,,,,,,,,,,,,,,,,,,,,5,1.366999865,5,0.138000011,1,0,1200,571,1,1199,marrow,45880,2019-10-22_10h31.42.780,SurveyExpMetaMem,3.2.3,Win32,60
,,,,,,,,,,,,,,,,,,,,1,2.757999897,6,1.274000168,1,0,1200,145,1,1199,me,45880,2019-10-22_10h31.42.780,SurveyExpMetaMem,3.2.3,Win32,60
,,,,,,,,,,,,,,,,,,,,5,11.31000018,5,0.157000065,1,0,1200,1166,1,1199,compulsive,45880,2019-10-22_10h31.42.780,SurveyExpMetaMem,3.2.3,Win32,60
,,,,,,,,,,,,,,,,,,,,3,16.56800008,5,1.861999989,1,0,1200,75,1,1199,actor,45880,2019-10-22_10h31.42.780,SurveyExpMetaMem,3.2.3,Win32,60
,,,,,,,,,,,,,,,,,,,,2,2.490999937,6,0.25,1,0,1200,856,1,1199,leisurely,45880,2019-10-22_10h31.42.780,SurveyExpMetaMem,3.2.3,Win32,60
,,,,,,,,,,,,,,,,,,,,7,1.855999947,3,0.212000132,1,0,1200,1016,1,1199,awful,45880,2019-10-22_10h31.42.780,SurveyExpMetaMem,3.2.3,Win32,60
,,,,,,,,,,,,,,,,,,,,5,4.29399991,5,0.16899991,1,0,1200,476,1,1199,warden,45880,2019-10-22_10h31.42.780,SurveyExpMetaMem,3.2.3,Win32,60
,,,,,,,,,,,,,,,,,,,,2,2.503000021,5,0.696000099,1,0,1200,698,1,1199,oven,45880,2019-10-22_10h31.42.780,SurveyExpMetaMem,3.2.3,Win32,60
,,,,,,,,,,,,,,,,,,,,3,2.584000111,3,0.373000145,1,0,1200,562,1,1199,average,45880,2019-10-22_10h31.42.780,SurveyExpMetaMem,3.2.3,Win32,60
,,,,,,,,,,,,,,,,,,,,2,3.976999998,5,1.066999912,1,0,1200,849,1,1199,blue,45880,2019-10-22_10h31.42.780,SurveyExpMetaMem,3.2.3,Win32,60
,,,,,,,,,,,,,,,,,,,,2,1.38499999,5,0.388999939,1,0,1200,626,1,1199,pan,45880,2019-10-22_10h31.42.780,SurveyExpMetaMem,3.2.3,Win32,60
,,,,,,,,,,,,,,,,,,,,7,2.558000088,3,0.876000166,1,0,1200,1185,1,1199,shotgun,45880,2019-10-22_10h31.42.780,SurveyExpMetaMem,3.2.3,Win32,60
,,,,,,,,,,,,,,,,,,,,3,3.544000149,3,0.401000023,1,0,1200,1072,1,1199,bothered,45880,2019-10-22_10h31.42.780,SurveyExpMetaMem,3.2.3,Win32,60
,,,,,,,,,,,,,,,,,,,,3,2.328000069,3,0.22300005,1,0,1200,953,1,1199,victim,45880,2019-10-22_10h31.42.780,SurveyExpMetaMem,3.2.3,Win32,60
,,,,,,,,,,,,,,,,,,,,7,1.780999899,2,0.365999937,1,0,1200,1140,1,1199,blood,45880,2019-10-22_10h31.42.780,SurveyExpMetaMem,3.2.3,Win32,60
,,,,,,,,,,,,,,,,,,,,7,9.459000111,1,0.218999863,1,0,1200,1184,1,1199,reckless,45880,2019-10-22_10h31.42.780,SurveyExpMetaMem,3.2.3,Win32,60
,,,,,,,,,,,,,,,,,,,,2,4.767000198,5,0.194000006,1,0,1200,526,1,1199,dry,45880,2019-10-22_10h31.42.780,SurveyExpMetaMem,3.2.3,Win32,60
,,,,,,,,,,,,,,,,,,,,2,1.029999971,5,0.157000065,1,0,1200,826,1,1199,poem,45880,2019-10-22_10h31.42.780,SurveyExpMetaMem,3.2.3,Win32,60
,,,,,,,,,,,,,,,,,,,,2,1.402000189,5,0.167999983,1,0,1200,425,1,1199,crutch,45880,2019-10-22_10h31.42.780,SurveyExpMetaMem,3.2.3,Win32,60
,,,,,,,,,,,,,,,,,,,,3,2.431999922,6,0.228999853,1,0,1200,231,1,1199,cherish,45880,2019-10-22_10h31.42.780,SurveyExpMetaMem,3.2.3,Win32,60
,,,,,,,,,,,,,,,,,,,,4,5.772000074,4,0.391000032,1,0,1200,427,1,1199,doubt,45880,2019-10-22_10h31.42.780,SurveyExpMetaMem,3.2.3,Win32,60
,,,,,,,,,,,,,,,,,,,,6,3.587000132,3,0.465999842,1,0,1200,989,1,1199,banish,45880,2019-10-22_10h31.42.780,SurveyExpMetaMem,3.2.3,Win32,60
,,,,,,,,,,,,,,,,,,,,5,2.79399991,5,0.43900013,1,0,1200,539,1,1199,novice,45880,2019-10-22_10h31.42.780,SurveyExpMetaMem,3.2.3,Win32,60
,,,,,,,,,,,,,,,,,,,,3,2.38499999,3,0.207000017,1,0,1200,343,1,1199,fever,45880,2019-10-22_10h31.42.780,SurveyExpMetaMem,3.2.3,Win32,60
,,,,,,,,,,,,,,,,,,,,8,2.046000004,8,0.17599988,1,0,1200,124,1,1199,honeymoon,45880,2019-10-22_10h31.42.780,SurveyExpMetaMem,3.2.3,Win32,60
,,,,,,,,,,,,,,,,,,,,5,3.417000055,5,0.173000097,1,0,1200,1177,1,1199,pang,45880,2019-10-22_10h31.42.780,SurveyExpMetaMem,3.2.3,Win32,60
,,,,,,,,,,,,,,,,,,,,2,7.213000059,6,0.431999922,1,0,1200,837,1,1199,responsible,45880,2019-10-22_10h31.42.780,SurveyExpMetaMem,3.2.3,Win32,60
,,,,,,,,,,,,,,,,,,,,7,2.605999947,3,0.328000069,1,0,1200,1035,1,1199,expel,45880,2019-10-22_10h31.42.780,SurveyExpMetaMem,3.2.3,Win32,60
,,,,,,,,,,,,,,,,,,,,5,2.278000116,5,0.169000149,1,0,1200,401,1,1199,feeble,45880,2019-10-22_10h31.42.780,SurveyExpMetaMem,3.2.3,Win32,60
,,,,,,,,,,,,,,,,,,,,2,1.944000006,5,0.355000019,1,0,1200,766,1,1199,flag,45880,2019-10-22_10h31.42.780,SurveyExpMetaMem,3.2.3,Win32,60
,,,,,,,,,,,,,,,,,,,,5,2.495999813,5,0.164999962,1,0,1200,413,1,1199,deficient,45880,2019-10-22_10h31.42.780,SurveyExpMetaMem,3.2.3,Win32,60
,,,,,,,,,,,,,,,,,,,,7,2.563999891,3,0.282000065,1,0,1200,1104,1,1199,avalanche,45880,2019-10-22_10h31.42.780,SurveyExpMetaMem,3.2.3,Win32,60
,,,,,,,,,,,,,,,,,,,,5,3.030999899,5,1.105999947,1,0,1200,120,1,1199,imaginative,45880,2019-10-22_10h31.42.780,SurveyExpMetaMem,3.2.3,Win32,60
,,,,,,,,,,,,,,,,,,,,1,4.104000092,5,0.330000162,1,0,1200,684,1,1199,send,45880,2019-10-22_10h31.42.780,SurveyExpMetaMem,3.2.3,Win32,60
,,,,,,,,,,,,,,,,,,,,5,3.483999968,6,0.986999989,1,0,1200,531,1,1199,omit,45880,2019-10-22_10h31.42.780,SurveyExpMetaMem,3.2.3,Win32,60
,,,,,,,,,,,,,,,,,,,,3,3.362999916,6,0.373999834,1,0,1200,650,1,1199,native,45880,2019-10-22_10h31.42.780,SurveyExpMetaMem,3.2.3,Win32,60
,,,,,,,,,,,,,,,,,,,,2,1.993000031,5,0.194999933,1,0,1200,518,1,1199,report,45880,2019-10-22_10h31.42.780,SurveyExpMetaMem,3.2.3,Win32,60
