mouse_4.x,mouse_4.y,mouse_4.leftButton,mouse_4.midButton,mouse_4.rightButton,mouse.x,mouse.y,mouse.leftButton,mouse.midButton,mouse.rightButton,mouse_2.x,mouse_2.y,mouse_2.leftButton,mouse_2.midButton,mouse_2.rightButton,mouse_3.x,mouse_3.y,mouse_3.leftButton,mouse_3.midButton,mouse_3.rightButton,A_key_resp.keys,A_key_resp.rt,key_resp.keys,key_resp.rt,trials.thisRepN,trials.thisTrialN,trials.thisN,trials.thisIndex,trials.ran,trials.order,word,ParticipantID,date,expName,psychopyVersion,OS,frameRate
-0.052083333,-0.07421875,1,0,0,0.609375,-0.203125,1,0,0,0.22265625,-0.173177083,1,0,0,0.045572917,-0.130208333,1,0,0,8,7.52699995,8,9.70600009,1,0,1200,37,1,1199,magnificence,47617,2019-10-22_23h28.12.036,SurveyExpMetaMem,3.2.3,Win32,60
,,,,,,,,,,,,,,,,,,,,2,3.097000122,2,4.736999989,1,0,1200,399,1,1199,withdrawn,47617,2019-10-22_23h28.12.036,SurveyExpMetaMem,3.2.3,Win32,60
,,,,,,,,,,,,,,,,,,,,1,7.4150002,1,1.52300024,1,0,1200,964,1,1199,grieve,47617,2019-10-22_23h28.12.036,SurveyExpMetaMem,3.2.3,Win32,60
,,,,,,,,,,,,,,,,,,,,3,6.425000191,2,1.912000179,1,0,1200,927,1,1199,jail,47617,2019-10-22_23h28.12.036,SurveyExpMetaMem,3.2.3,Win32,60
,,,,,,,,,,,,,,,,,,,,2,4.664000034,2,2.232000113,1,0,1200,928,1,1199,cruel,47617,2019-10-22_23h28.12.036,SurveyExpMetaMem,3.2.3,Win32,60
,,,,,,,,,,,,,,,,,,,,7,4.649000168,6,3.537000179,1,0,1200,269,1,1199,extravagant,47617,2019-10-22_23h28.12.036,SurveyExpMetaMem,3.2.3,Win32,60
,,,,,,,,,,,,,,,,,,,,8,4.934000254,8,1.955000162,1,0,1200,96,1,1199,joke,47617,2019-10-22_23h28.12.036,SurveyExpMetaMem,3.2.3,Win32,60
,,,,,,,,,,,,,,,,,,,,4,4.883000135,4,1.359000206,1,0,1200,945,1,1199,demon,47617,2019-10-22_23h28.12.036,SurveyExpMetaMem,3.2.3,Win32,60
,,,,,,,,,,,,,,,,,,,,8,27.64700007,7,1.985000134,1,0,1200,872,1,1199,dignified,47617,2019-10-22_23h28.12.036,SurveyExpMetaMem,3.2.3,Win32,60
,,,,,,,,,,,,,,,,,,,,4,32.11500001,9,1.344000101,1,0,1200,897,1,1199,peaceful,47617,2019-10-22_23h28.12.036,SurveyExpMetaMem,3.2.3,Win32,60
,,,,,,,,,,,,,,,,,,,,3,3.357000113,3,2.296999931,1,0,1200,516,1,1199,smug,47617,2019-10-22_23h28.12.036,SurveyExpMetaMem,3.2.3,Win32,60
,,,,,,,,,,,,,,,,,,,,5,25.75600028,5,1.388000011,1,0,1200,466,1,1199,gnaw,47617,2019-10-22_23h28.12.036,SurveyExpMetaMem,3.2.3,Win32,60
,,,,,,,,,,,,,,,,,,,,7,7.931000233,2,0.975000143,1,0,1200,1003,1,1199,jealousy,47617,2019-10-22_23h28.12.036,SurveyExpMetaMem,3.2.3,Win32,60
,,,,,,,,,,,,,,,,,,,,4,4.900000095,4,1.868000031,1,0,1200,327,1,1199,misfortune,47617,2019-10-22_23h28.12.036,SurveyExpMetaMem,3.2.3,Win32,60
,,,,,,,,,,,,,,,,,,,,6,35.52999997,7,1.471999884,1,0,1200,828,1,1199,cooperative,47617,2019-10-22_23h28.12.036,SurveyExpMetaMem,3.2.3,Win32,60
,,,,,,,,,,,,,,,,,,,,7,8.003000259,6,4.303999901,1,0,1200,182,1,1199,genius,47617,2019-10-22_23h28.12.036,SurveyExpMetaMem,3.2.3,Win32,60
,,,,,,,,,,,,,,,,,,,,2,7.283000231,5,4.237999916,1,0,1200,574,1,1199,distracted,47617,2019-10-22_23h28.12.036,SurveyExpMetaMem,3.2.3,Win32,60
,,,,,,,,,,,,,,,,,,,,8,5.316000223,1,1.068000078,1,0,1200,940,1,1199,war,47617,2019-10-22_23h28.12.036,SurveyExpMetaMem,3.2.3,Win32,60
,,,,,,,,,,,,,,,,,,,,7,4.688000202,8,3.707000256,1,0,1200,168,1,1199,mate,47617,2019-10-22_23h28.12.036,SurveyExpMetaMem,3.2.3,Win32,60
,,,,,,,,,,,,,,,,,,,,2,3.835999966,2,1.927000046,1,0,1200,322,1,1199,widow,47617,2019-10-22_23h28.12.036,SurveyExpMetaMem,3.2.3,Win32,60
,,,,,,,,,,,,,,,,,,,,6,13.73400021,2,3.743000269,1,0,1200,958,1,1199,traitor,47617,2019-10-22_23h28.12.036,SurveyExpMetaMem,3.2.3,Win32,60
,,,,,,,,,,,,,,,,,,,,2,4.558000088,2,1.537000179,1,0,1200,1069,1,1199,defeat,47617,2019-10-22_23h28.12.036,SurveyExpMetaMem,3.2.3,Win32,60
,,,,,,,,,,,,,,,,,,,,5,6.51699996,6,2.885000229,1,0,1200,672,1,1199,ketchup,47617,2019-10-22_23h28.12.036,SurveyExpMetaMem,3.2.3,Win32,60
,,,,,,,,,,,,,,,,,,,,7,3.870000124,4,4.177999973,1,0,1200,500,1,1199,nosey,47617,2019-10-22_23h28.12.036,SurveyExpMetaMem,3.2.3,Win32,60
,,,,,,,,,,,,,,,,,,,,2,3.520000219,7,1.784000158,1,0,1200,864,1,1199,blanket,47617,2019-10-22_23h28.12.036,SurveyExpMetaMem,3.2.3,Win32,60
,,,,,,,,,,,,,,,,,,,,8,20.73400021,7,2.519000053,1,0,1200,1103,1,1199,mob,47617,2019-10-22_23h28.12.036,SurveyExpMetaMem,3.2.3,Win32,60
,,,,,,,,,,,,,,,,,,,,2,3.690000057,8,0.919000149,1,0,1200,703,1,1199,book,47617,2019-10-22_23h28.12.036,SurveyExpMetaMem,3.2.3,Win32,60
,,,,,,,,,,,,,,,,,,,,7,3.411999941,6,4.360000134,1,0,1200,718,1,1199,flow,47617,2019-10-22_23h28.12.036,SurveyExpMetaMem,3.2.3,Win32,60
,,,,,,,,,,,,,,,,,,,,9,7.173000097,7,6.821000099,1,0,1200,185,1,1199,flirt,47617,2019-10-22_23h28.12.036,SurveyExpMetaMem,3.2.3,Win32,60
,,,,,,,,,,,,,,,,,,,,8,2.226000071,8,2.861000061,1,0,1200,40,1,1199,kissing,47617,2019-10-22_23h28.12.036,SurveyExpMetaMem,3.2.3,Win32,60
,,,,,,,,,,,,,,,,,,,,3,5.394000053,9,1.269000053,1,0,1200,841,1,1199,bathtub,47617,2019-10-22_23h28.12.036,SurveyExpMetaMem,3.2.3,Win32,60
,,,,,,,,,,,,,,,,,,,,3,3.51699996,5,3.604000092,1,0,1200,763,1,1199,vegetables,47617,2019-10-22_23h28.12.036,SurveyExpMetaMem,3.2.3,Win32,60
,,,,,,,,,,,,,,,,,,,,8,2.595000029,6,6.743000031,1,0,1200,1122,1,1199,gossip,47617,2019-10-22_23h28.12.036,SurveyExpMetaMem,3.2.3,Win32,60
,,,,,,,,,,,,,,,,,,,,8,4.750999928,3,5.194000006,1,0,1200,1092,1,1199,rattlesnake,47617,2019-10-22_23h28.12.036,SurveyExpMetaMem,3.2.3,Win32,60
,,,,,,,,,,,,,,,,,,,,6,5.203000069,6,1.877000093,1,0,1200,773,1,1199,rational,47617,2019-10-22_23h28.12.036,SurveyExpMetaMem,3.2.3,Win32,60
,,,,,,,,,,,,,,,,,,,,5,8.413000107,5,0.69900012,1,0,1200,1167,1,1199,bribe,47617,2019-10-22_23h28.12.036,SurveyExpMetaMem,3.2.3,Win32,60
,,,,,,,,,,,,,,,,,,,,7,5.162000179,3,1.154000044,1,0,1200,911,1,1199,rejection,47617,2019-10-22_23h28.12.036,SurveyExpMetaMem,3.2.3,Win32,60
,,,,,,,,,,,,,,,,,,,,5,2.453000069,5,0.677000046,1,0,1200,735,1,1199,tea,47617,2019-10-22_23h28.12.036,SurveyExpMetaMem,3.2.3,Win32,60
,,,,,,,,,,,,,,,,,,,,5,1.758000135,5,0.242000103,1,0,1200,349,1,1199,mope,47617,2019-10-22_23h28.12.036,SurveyExpMetaMem,3.2.3,Win32,60
,,,,,,,,,,,,,,,,,,,,7,9.003000259,2,0.53000021,1,0,1200,919,1,1199,loss,47617,2019-10-22_23h28.12.036,SurveyExpMetaMem,3.2.3,Win32,60
,,,,,,,,,,,,,,,,,,,,5,5.57400012,5,0.208000183,1,0,1200,613,1,1199,cup,47617,2019-10-22_23h28.12.036,SurveyExpMetaMem,3.2.3,Win32,60
,,,,,,,,,,,,,,,,,,,,5,6.991000175,7,0.288000107,1,0,1200,581,1,1199,dork,47617,2019-10-22_23h28.12.036,SurveyExpMetaMem,3.2.3,Win32,60
,,,,,,,,,,,,,,,,,,,,5,5.611999989,4,2.744999886,1,0,1200,506,1,1199,lower,47617,2019-10-22_23h28.12.036,SurveyExpMetaMem,3.2.3,Win32,60
,,,,,,,,,,,,,,,,,,,,8,5.493000031,2,1.73300004,1,0,1200,935,1,1199,despise,47617,2019-10-22_23h28.12.036,SurveyExpMetaMem,3.2.3,Win32,60
,,,,,,,,,,,,,,,,,,,,8,4.947999954,3,1.216000319,1,0,1200,1049,1,1199,electrocute,47617,2019-10-22_23h28.12.036,SurveyExpMetaMem,3.2.3,Win32,60
,,,,,,,,,,,,,,,,,,,,6,9.519000053,4,3.837000132,1,0,1200,485,1,1199,pinch,47617,2019-10-22_23h28.12.036,SurveyExpMetaMem,3.2.3,Win32,60
,,,,,,,,,,,,,,,,,,,,5,5.23900032,5,1.700000048,1,0,1200,555,1,1199,school,47617,2019-10-22_23h28.12.036,SurveyExpMetaMem,3.2.3,Win32,60
,,,,,,,,,,,,,,,,,,,,7,5.461000204,3,3.149000168,1,0,1200,1095,1,1199,fright,47617,2019-10-22_23h28.12.036,SurveyExpMetaMem,3.2.3,Win32,60
,,,,,,,,,,,,,,,,,,,,8,3.41899991,8,0.86500001,1,0,1200,242,1,1199,triumph,47617,2019-10-22_23h28.12.036,SurveyExpMetaMem,3.2.3,Win32,60
,,,,,,,,,,,,,,,,,,,,8,2.025000095,3,2.072000265,1,0,1200,1005,1,1199,pissed,47617,2019-10-22_23h28.12.036,SurveyExpMetaMem,3.2.3,Win32,60
,,,,,,,,,,,,,,,,,,,,5,3.075999975,6,2.524000168,1,0,1200,684,1,1199,send,47617,2019-10-22_23h28.12.036,SurveyExpMetaMem,3.2.3,Win32,60
,,,,,,,,,,,,,,,,,,,,5,4.147000074,5,0.970000029,1,0,1200,1097,1,1199,bees,47617,2019-10-22_23h28.12.036,SurveyExpMetaMem,3.2.3,Win32,60
,,,,,,,,,,,,,,,,,,,,5,4.636000156,6,1.2900002,1,0,1200,847,1,1199,moon,47617,2019-10-22_23h28.12.036,SurveyExpMetaMem,3.2.3,Win32,60
,,,,,,,,,,,,,,,,,,,,5,22.06400013,5,0.22300005,1,0,1200,974,1,1199,roach,47617,2019-10-22_23h28.12.036,SurveyExpMetaMem,3.2.3,Win32,60
,,,,,,,,,,,,,,,,,,,,5,5.898000002,7,0.278000116,1,0,1200,59,1,1199,sports,47617,2019-10-22_23h28.12.036,SurveyExpMetaMem,3.2.3,Win32,60
,,,,,,,,,,,,,,,,,,,,7,29.3210001,4,0.447000027,1,0,1200,532,1,1199,recede,47617,2019-10-22_23h28.12.036,SurveyExpMetaMem,3.2.3,Win32,60
,,,,,,,,,,,,,,,,,,,,8,3.115999937,8,0.889000177,1,0,1200,155,1,1199,ignite,47617,2019-10-22_23h28.12.036,SurveyExpMetaMem,3.2.3,Win32,60
,,,,,,,,,,,,,,,,,,,,8,2.984999895,2,1.638000011,1,0,1200,976,1,1199,tumor,47617,2019-10-22_23h28.12.036,SurveyExpMetaMem,3.2.3,Win32,60
,,,,,,,,,,,,,,,,,,,,6,6.169000149,6,0.222000122,1,0,1200,261,1,1199,windsurfers,47617,2019-10-22_23h28.12.036,SurveyExpMetaMem,3.2.3,Win32,60
,,,,,,,,,,,,,,,,,,,,7,3.535000086,3,0.838000298,1,0,1200,1021,1,1199,attack,47617,2019-10-22_23h28.12.036,SurveyExpMetaMem,3.2.3,Win32,60
,,,,,,,,,,,,,,,,,,,,5,4.350000143,5,0.257999897,1,0,1200,650,1,1199,native,47617,2019-10-22_23h28.12.036,SurveyExpMetaMem,3.2.3,Win32,60
,,,,,,,,,,,,,,,,,,,,7,4.460000038,8,0.722000122,1,0,1200,54,1,1199,alcohol,47617,2019-10-22_23h28.12.036,SurveyExpMetaMem,3.2.3,Win32,60
,,,,,,,,,,,,,,,,,,,,5,7.053999901,3,2.105999947,1,0,1200,595,1,1199,vacuum,47617,2019-10-22_23h28.12.036,SurveyExpMetaMem,3.2.3,Win32,60
,,,,,,,,,,,,,,,,,,,,5,6.108000278,5,0.210000038,1,0,1200,654,1,1199,brief,47617,2019-10-22_23h28.12.036,SurveyExpMetaMem,3.2.3,Win32,60
,,,,,,,,,,,,,,,,,,,,8,5.09100008,1,0.718999863,1,0,1200,903,1,1199,cancer,47617,2019-10-22_23h28.12.036,SurveyExpMetaMem,3.2.3,Win32,60
,,,,,,,,,,,,,,,,,,,,6,9.436000109,5,1.089999914,1,0,1200,1093,1,1199,hive,47617,2019-10-22_23h28.12.036,SurveyExpMetaMem,3.2.3,Win32,60
,,,,,,,,,,,,,,,,,,,,5,1.921000004,5,0.827000141,1,0,1200,388,1,1199,mildew,47617,2019-10-22_23h28.12.036,SurveyExpMetaMem,3.2.3,Win32,60
,,,,,,,,,,,,,,,,,,,,8,5.080000162,2,0.753000021,1,0,1200,318,1,1199,disappointment,47617,2019-10-22_23h28.12.036,SurveyExpMetaMem,3.2.3,Win32,60
,,,,,,,,,,,,,,,,,,,,7,9.084000111,8,0.338000059,1,0,1200,138,1,1199,blessings,47617,2019-10-22_23h28.12.036,SurveyExpMetaMem,3.2.3,Win32,60
,,,,,,,,,,,,,,,,,,,,8,13.50500011,8,0.271000147,1,0,1200,216,1,1199,vigorous,47617,2019-10-22_23h28.12.036,SurveyExpMetaMem,3.2.3,Win32,60
,,,,,,,,,,,,,,,,,,,,9,14.58300018,9,0.573000193,1,0,1200,233,1,1199,exhilaration,47617,2019-10-22_23h28.12.036,SurveyExpMetaMem,3.2.3,Win32,60
,,,,,,,,,,,,,,,,,,,,8,4.718000174,8,1.513999939,1,0,1200,124,1,1199,honeymoon,47617,2019-10-22_23h28.12.036,SurveyExpMetaMem,3.2.3,Win32,60
,,,,,,,,,,,,,,,,,,,,8,3.404999971,1,1.404000044,1,0,1200,906,1,1199,syphilis,47617,2019-10-22_23h28.12.036,SurveyExpMetaMem,3.2.3,Win32,60
,,,,,,,,,,,,,,,,,,,,6,5.585000038,3,0.169000149,1,0,1200,438,1,1199,dull,47617,2019-10-22_23h28.12.036,SurveyExpMetaMem,3.2.3,Win32,60
,,,,,,,,,,,,,,,,,,,,8,2.825999975,6,3.821000099,1,0,1200,117,1,1199,powerful,47617,2019-10-22_23h28.12.036,SurveyExpMetaMem,3.2.3,Win32,60
,,,,,,,,,,,,,,,,,,,,5,1.436000109,5,0.204999924,1,0,1200,604,1,1199,lamp,47617,2019-10-22_23h28.12.036,SurveyExpMetaMem,3.2.3,Win32,60
,,,,,,,,,,,,,,,,,,,,5,6.664000273,7,0.667999983,1,0,1200,246,1,1199,complete,47617,2019-10-22_23h28.12.036,SurveyExpMetaMem,3.2.3,Win32,60
,,,,,,,,,,,,,,,,,,,,5,2.585999966,5,0.20600009,1,0,1200,263,1,1199,answer,47617,2019-10-22_23h28.12.036,SurveyExpMetaMem,3.2.3,Win32,60
,,,,,,,,,,,,,,,,,,,,8,17.00500011,8,0.375000238,1,0,1200,622,1,1199,revere,47617,2019-10-22_23h28.12.036,SurveyExpMetaMem,3.2.3,Win32,60
,,,,,,,,,,,,,,,,,,,,7,6.805999994,3,1.19900012,1,0,1200,469,1,1199,resent,47617,2019-10-22_23h28.12.036,SurveyExpMetaMem,3.2.3,Win32,60
,,,,,,,,,,,,,,,,,,,,6,6.075000048,8,0.321000099,1,0,1200,219,1,1199,know,47617,2019-10-22_23h28.12.036,SurveyExpMetaMem,3.2.3,Win32,60
,,,,,,,,,,,,,,,,,,,,8,3.205000162,8,0.342000008,1,0,1200,27,1,1199,gourmet,47617,2019-10-22_23h28.12.036,SurveyExpMetaMem,3.2.3,Win32,60
,,,,,,,,,,,,,,,,,,,,6,5.937000275,3,1.502000093,1,0,1200,528,1,1199,dirt,47617,2019-10-22_23h28.12.036,SurveyExpMetaMem,3.2.3,Win32,60
,,,,,,,,,,,,,,,,,,,,6,5.606000185,4,2.75999999,1,0,1200,368,1,1199,dreary,47617,2019-10-22_23h28.12.036,SurveyExpMetaMem,3.2.3,Win32,60
,,,,,,,,,,,,,,,,,,,,8,22.64700007,2,1.250999928,1,0,1200,1050,1,1199,scorn,47617,2019-10-22_23h28.12.036,SurveyExpMetaMem,3.2.3,Win32,60
,,,,,,,,,,,,,,,,,,,,7,4.105000257,8,0.292000055,1,0,1200,810,1,1199,polite,47617,2019-10-22_23h28.12.036,SurveyExpMetaMem,3.2.3,Win32,60
,,,,,,,,,,,,,,,,,,,,5,4.235000134,4,0.442000151,1,0,1200,495,1,1199,dust,47617,2019-10-22_23h28.12.036,SurveyExpMetaMem,3.2.3,Win32,60
,,,,,,,,,,,,,,,,,,,,5,0.076999903,5,3.289999962,1,0,1200,624,1,1199,tower,47617,2019-10-22_23h28.12.036,SurveyExpMetaMem,3.2.3,Win32,60
,,,,,,,,,,,,,,,,,,,,6,4.664999962,6,1.837000132,1,0,1200,61,1,1199,zoom,47617,2019-10-22_23h28.12.036,SurveyExpMetaMem,3.2.3,Win32,60
,,,,,,,,,,,,,,,,,,,,5,3.868000031,5,0.683000088,1,0,1200,836,1,1199,lounge,47617,2019-10-22_23h28.12.036,SurveyExpMetaMem,3.2.3,Win32,60
,,,,,,,,,,,,,,,,,,,,3,8.18200016,5,3.476000071,1,0,1200,559,1,1199,lazy,47617,2019-10-22_23h28.12.036,SurveyExpMetaMem,3.2.3,Win32,60
,,,,,,,,,,,,,,,,,,,,6,4.817000151,8,0.385999918,1,0,1200,822,1,1199,clearer,47617,2019-10-22_23h28.12.036,SurveyExpMetaMem,3.2.3,Win32,60
,,,,,,,,,,,,,,,,,,,,6,5.247000217,7,1.71600008,1,0,1200,5,1,1199,drunk,47617,2019-10-22_23h28.12.036,SurveyExpMetaMem,3.2.3,Win32,60
,,,,,,,,,,,,,,,,,,,,5,4.505000114,5,0.196000099,1,0,1200,668,1,1199,unit,47617,2019-10-22_23h28.12.036,SurveyExpMetaMem,3.2.3,Win32,60
,,,,,,,,,,,,,,,,,,,,7,3.768000126,3,0.169000149,1,0,1200,1094,1,1199,disruptive,47617,2019-10-22_23h28.12.036,SurveyExpMetaMem,3.2.3,Win32,60
,,,,,,,,,,,,,,,,,,,,5,1.300000191,5,0.181999922,1,0,1200,758,1,1199,camera,47617,2019-10-22_23h28.12.036,SurveyExpMetaMem,3.2.3,Win32,60
,,,,,,,,,,,,,,,,,,,,6,5.157000065,7,0.20600009,1,0,1200,792,1,1199,moral,47617,2019-10-22_23h28.12.036,SurveyExpMetaMem,3.2.3,Win32,60
,,,,,,,,,,,,,,,,,,,,5,3.788000107,6,0.125000238,1,0,1200,704,1,1199,flute,47617,2019-10-22_23h28.12.036,SurveyExpMetaMem,3.2.3,Win32,60
,,,,,,,,,,,,,,,,,,,,5,3.568000078,6,0.124000072,1,0,1200,845,1,1199,honey,47617,2019-10-22_23h28.12.036,SurveyExpMetaMem,3.2.3,Win32,60
,,,,,,,,,,,,,,,,,,,,7,4.765000105,3,1.437999964,1,0,1200,346,1,1199,alcoholism,47617,2019-10-22_23h28.12.036,SurveyExpMetaMem,3.2.3,Win32,60
,,,,,,,,,,,,,,,,,,,,5,7.14199996,4,1.025000095,1,0,1200,358,1,1199,waste,47617,2019-10-22_23h28.12.036,SurveyExpMetaMem,3.2.3,Win32,60
,,,,,,,,,,,,,,,,,,,,5,1.453999996,5,0.309999943,1,0,1200,598,1,1199,feet,47617,2019-10-22_23h28.12.036,SurveyExpMetaMem,3.2.3,Win32,60
,,,,,,,,,,,,,,,,,,,,7,6.037000179,2,4.286000013,1,0,1200,1054,1,1199,jealous,47617,2019-10-22_23h28.12.036,SurveyExpMetaMem,3.2.3,Win32,60
,,,,,,,,,,,,,,,,,,,,5,1.662000179,5,0.265000105,1,0,1200,608,1,1199,carrot,47617,2019-10-22_23h28.12.036,SurveyExpMetaMem,3.2.3,Win32,60
,,,,,,,,,,,,,,,,,,,,5,1.009000063,5,0.22300005,1,0,1200,569,1,1199,onion,47617,2019-10-22_23h28.12.036,SurveyExpMetaMem,3.2.3,Win32,60
,,,,,,,,,,,,,,,,,,,,7,3.345000267,2,1.437999964,1,0,1200,1115,1,1199,invade,47617,2019-10-22_23h28.12.036,SurveyExpMetaMem,3.2.3,Win32,60
,,,,,,,,,,,,,,,,,,,,7,4.193000078,8,0.404000044,1,0,1200,178,1,1199,alive,47617,2019-10-22_23h28.12.036,SurveyExpMetaMem,3.2.3,Win32,60
,,,,,,,,,,,,,,,,,,,,6,5.14199996,6,0.255000114,1,0,1200,730,1,1199,slogan,47617,2019-10-22_23h28.12.036,SurveyExpMetaMem,3.2.3,Win32,60
,,,,,,,,,,,,,,,,,,,,7,5.452000141,4,0.861999989,1,0,1200,1142,1,1199,disturb,47617,2019-10-22_23h28.12.036,SurveyExpMetaMem,3.2.3,Win32,60
,,,,,,,,,,,,,,,,,,,,8,2.545000076,2,0.679000139,1,0,1200,1036,1,1199,anxiety,47617,2019-10-22_23h28.12.036,SurveyExpMetaMem,3.2.3,Win32,60
,,,,,,,,,,,,,,,,,,,,6,6.360000134,8,0.753999949,1,0,1200,223,1,1199,fashion,47617,2019-10-22_23h28.12.036,SurveyExpMetaMem,3.2.3,Win32,60
,,,,,,,,,,,,,,,,,,,,8,3.21600008,2,1.25,1,0,1200,1047,1,1199,psycho,47617,2019-10-22_23h28.12.036,SurveyExpMetaMem,3.2.3,Win32,60
,,,,,,,,,,,,,,,,,,,,5,3.839000225,5,0.640000105,1,0,1200,278,1,1199,king,47617,2019-10-22_23h28.12.036,SurveyExpMetaMem,3.2.3,Win32,60
,,,,,,,,,,,,,,,,,,,,2,7.741000175,5,1.584000111,1,0,1200,481,1,1199,melancholy,47617,2019-10-22_23h28.12.036,SurveyExpMetaMem,3.2.3,Win32,60
,,,,,,,,,,,,,,,,,,,,5,1.175000191,5,0.251000166,1,0,1200,649,1,1199,donkey,47617,2019-10-22_23h28.12.036,SurveyExpMetaMem,3.2.3,Win32,60
,,,,,,,,,,,,,,,,,,,,5,2.77300024,5,0.223999977,1,0,1200,228,1,1199,suite,47617,2019-10-22_23h28.12.036,SurveyExpMetaMem,3.2.3,Win32,60
,,,,,,,,,,,,,,,,,,,,5,0.938000202,5,0.205000162,1,0,1200,780,1,1199,grass,47617,2019-10-22_23h28.12.036,SurveyExpMetaMem,3.2.3,Win32,60
,,,,,,,,,,,,,,,,,,,,7,2.462000132,2,0.479000092,1,0,1200,925,1,1199,disloyal,47617,2019-10-22_23h28.12.036,SurveyExpMetaMem,3.2.3,Win32,60
,,,,,,,,,,,,,,,,,,,,5,1.964000225,5,0.203000069,1,0,1200,1160,1,1199,enlist,47617,2019-10-22_23h28.12.036,SurveyExpMetaMem,3.2.3,Win32,60
,,,,,,,,,,,,,,,,,,,,6,4.298000097,7,1.226000071,1,0,1200,784,1,1199,logical,47617,2019-10-22_23h28.12.036,SurveyExpMetaMem,3.2.3,Win32,60
,,,,,,,,,,,,,,,,,,,,7,24.204,3,0.903000116,1,0,1200,1155,1,1199,tangle,47617,2019-10-22_23h28.12.036,SurveyExpMetaMem,3.2.3,Win32,60
,,,,,,,,,,,,,,,,,,,,8,2.756000042,8,0.191999912,1,0,1200,87,1,1199,cookie,47617,2019-10-22_23h28.12.036,SurveyExpMetaMem,3.2.3,Win32,60
,,,,,,,,,,,,,,,,,,,,3,4.138000011,7,0.232000113,1,0,1200,767,1,1199,civil,47617,2019-10-22_23h28.12.036,SurveyExpMetaMem,3.2.3,Win32,60
,,,,,,,,,,,,,,,,,,,,7,16.33200002,2,0.545000076,1,0,1200,332,1,1199,sewage,47617,2019-10-22_23h28.12.036,SurveyExpMetaMem,3.2.3,Win32,60
,,,,,,,,,,,,,,,,,,,,7,3.349000216,2,0.399000168,1,0,1200,328,1,1199,disgrace,47617,2019-10-22_23h28.12.036,SurveyExpMetaMem,3.2.3,Win32,60
,,,,,,,,,,,,,,,,,,,,4,21.46399999,6,0.471000195,1,0,1200,803,1,1199,tidy,47617,2019-10-22_23h28.12.036,SurveyExpMetaMem,3.2.3,Win32,60
,,,,,,,,,,,,,,,,,,,,7,3.891000271,8,1.078000069,1,0,1200,217,1,1199,bravery,47617,2019-10-22_23h28.12.036,SurveyExpMetaMem,3.2.3,Win32,60
,,,,,,,,,,,,,,,,,,,,8,14.97300005,8,0.191000223,1,0,1200,778,1,1199,adorn,47617,2019-10-22_23h28.12.036,SurveyExpMetaMem,3.2.3,Win32,60
,,,,,,,,,,,,,,,,,,,,8,2.965000153,3,0.233999968,1,0,1200,930,1,1199,poison,47617,2019-10-22_23h28.12.036,SurveyExpMetaMem,3.2.3,Win32,60
,,,,,,,,,,,,,,,,,,,,8,4.588000059,4,5.601000071,1,0,1200,103,1,1199,conquest,47617,2019-10-22_23h28.12.036,SurveyExpMetaMem,3.2.3,Win32,60
,,,,,,,,,,,,,,,,,,,,7,22.63400006,7,0.223999977,1,0,1200,66,1,1199,zest,47617,2019-10-22_23h28.12.036,SurveyExpMetaMem,3.2.3,Win32,60
,,,,,,,,,,,,,,,,,,,,3,15.58500004,2,1.407000303,1,0,1200,379,1,1199,slob,47617,2019-10-22_23h28.12.036,SurveyExpMetaMem,3.2.3,Win32,60
,,,,,,,,,,,,,,,,,,,,7,2.976000071,3,1.338000059,1,0,1200,1113,1,1199,dagger,47617,2019-10-22_23h28.12.036,SurveyExpMetaMem,3.2.3,Win32,60
,,,,,,,,,,,,,,,,,,,,7,3.59100008,3,0.874000072,1,0,1200,1157,1,1199,slayer,47617,2019-10-22_23h28.12.036,SurveyExpMetaMem,3.2.3,Win32,60
,,,,,,,,,,,,,,,,,,,,7,3.598999977,7,0.686000109,1,0,1200,55,1,1199,rare,47617,2019-10-22_23h28.12.036,SurveyExpMetaMem,3.2.3,Win32,60
,,,,,,,,,,,,,,,,,,,,8,19.71700001,2,1.097000122,1,0,1200,929,1,1199,mutilation,47617,2019-10-22_23h28.12.036,SurveyExpMetaMem,3.2.3,Win32,60
,,,,,,,,,,,,,,,,,,,,8,3.035000086,6,4.349000216,1,0,1200,992,1,1199,addict,47617,2019-10-22_23h28.12.036,SurveyExpMetaMem,3.2.3,Win32,60
,,,,,,,,,,,,,,,,,,,,3,11.01200008,5,0.505000114,1,0,1200,477,1,1199,separate,47617,2019-10-22_23h28.12.036,SurveyExpMetaMem,3.2.3,Win32,60
,,,,,,,,,,,,,,,,,,,,6,8.836000204,6,0.589000225,1,0,1200,115,1,1199,sexual,47617,2019-10-22_23h28.12.036,SurveyExpMetaMem,3.2.3,Win32,60
,,,,,,,,,,,,,,,,,,,,7,5.343000174,2,0.579999924,1,0,1200,950,1,1199,murder,47617,2019-10-22_23h28.12.036,SurveyExpMetaMem,3.2.3,Win32,60
,,,,,,,,,,,,,,,,,,,,3,19.97000003,5,0.154999971,1,0,1200,454,1,1199,damp,47617,2019-10-22_23h28.12.036,SurveyExpMetaMem,3.2.3,Win32,60
,,,,,,,,,,,,,,,,,,,,5,6.025000095,5,0.376000166,1,0,1200,818,1,1199,priest,47617,2019-10-22_23h28.12.036,SurveyExpMetaMem,3.2.3,Win32,60
,,,,,,,,,,,,,,,,,,,,7,3.26699996,3,1.125999928,1,0,1200,1090,1,1199,destruction,47617,2019-10-22_23h28.12.036,SurveyExpMetaMem,3.2.3,Win32,60
,,,,,,,,,,,,,,,,,,,,5,1.522000074,5,0.195000172,1,0,1200,740,1,1199,groceries,47617,2019-10-22_23h28.12.036,SurveyExpMetaMem,3.2.3,Win32,60
,,,,,,,,,,,,,,,,,,,,7,2.486000061,8,0.555999994,1,0,1200,226,1,1199,prize,47617,2019-10-22_23h28.12.036,SurveyExpMetaMem,3.2.3,Win32,60
,,,,,,,,,,,,,,,,,,,,2,6.044000149,2,0.416000128,1,0,1200,314,1,1199,hopeless,47617,2019-10-22_23h28.12.036,SurveyExpMetaMem,3.2.3,Win32,60
,,,,,,,,,,,,,,,,,,,,5,3.453000069,7,0.26699996,1,0,1200,746,1,1199,proper,47617,2019-10-22_23h28.12.036,SurveyExpMetaMem,3.2.3,Win32,60
,,,,,,,,,,,,,,,,,,,,8,3.937000036,8,0.207000256,1,0,1200,706,1,1199,cat,47617,2019-10-22_23h28.12.036,SurveyExpMetaMem,3.2.3,Win32,60
,,,,,,,,,,,,,,,,,,,,6,5.052000046,7,0.19900012,1,0,1200,787,1,1199,dawn,47617,2019-10-22_23h28.12.036,SurveyExpMetaMem,3.2.3,Win32,60
,,,,,,,,,,,,,,,,,,,,2,5.834000111,9,0.995000124,1,0,1200,870,1,1199,safe,47617,2019-10-22_23h28.12.036,SurveyExpMetaMem,3.2.3,Win32,60
,,,,,,,,,,,,,,,,,,,,3,22.14700007,3,0.243999958,1,0,1200,471,1,1199,chump,47617,2019-10-22_23h28.12.036,SurveyExpMetaMem,3.2.3,Win32,60
,,,,,,,,,,,,,,,,,,,,5,2.228000164,5,0.178000212,1,0,1200,618,1,1199,ceiling,47617,2019-10-22_23h28.12.036,SurveyExpMetaMem,3.2.3,Win32,60
,,,,,,,,,,,,,,,,,,,,7,5.042000055,7,0.229000092,1,0,1200,94,1,1199,engaged,47617,2019-10-22_23h28.12.036,SurveyExpMetaMem,3.2.3,Win32,60
,,,,,,,,,,,,,,,,,,,,7,6.472000122,3,0.272000074,1,0,1200,952,1,1199,troubled,47617,2019-10-22_23h28.12.036,SurveyExpMetaMem,3.2.3,Win32,60
,,,,,,,,,,,,,,,,,,,,7,5.453999996,8,0.204000235,1,0,1200,851,1,1199,cool,47617,2019-10-22_23h28.12.036,SurveyExpMetaMem,3.2.3,Win32,60
,,,,,,,,,,,,,,,,,,,,8,3.75999999,8,0.239000082,1,0,1200,22,1,1199,doughnut,47617,2019-10-22_23h28.12.036,SurveyExpMetaMem,3.2.3,Win32,60
,,,,,,,,,,,,,,,,,,,,8,3.653000116,7,3.727000237,1,0,1200,826,1,1199,poem,47617,2019-10-22_23h28.12.036,SurveyExpMetaMem,3.2.3,Win32,60
,,,,,,,,,,,,,,,,,,,,5,2.753000021,5,0.222000122,1,0,1200,557,1,1199,class,47617,2019-10-22_23h28.12.036,SurveyExpMetaMem,3.2.3,Win32,60
,,,,,,,,,,,,,,,,,,,,5,6.349000216,7,0.389000177,1,0,1200,640,1,1199,cabin,47617,2019-10-22_23h28.12.036,SurveyExpMetaMem,3.2.3,Win32,60
,,,,,,,,,,,,,,,,,,,,7,3.769000053,8,2.305000067,1,0,1200,70,1,1199,cartoon,47617,2019-10-22_23h28.12.036,SurveyExpMetaMem,3.2.3,Win32,60
,,,,,,,,,,,,,,,,,,,,3,5.92200017,3,0.244000196,1,0,1200,423,1,1199,stain,47617,2019-10-22_23h28.12.036,SurveyExpMetaMem,3.2.3,Win32,60
,,,,,,,,,,,,,,,,,,,,7,2.799000025,2,1.146000147,1,0,1200,373,1,1199,ignorance,47617,2019-10-22_23h28.12.036,SurveyExpMetaMem,3.2.3,Win32,60
,,,,,,,,,,,,,,,,,,,,7,1.228000164,2,0.20600009,1,0,1200,914,1,1199,fail,47617,2019-10-22_23h28.12.036,SurveyExpMetaMem,3.2.3,Win32,60
,,,,,,,,,,,,,,,,,,,,7,4.286000252,2,0.372000217,1,0,1200,38,1,1199,cheeseburger,47617,2019-10-22_23h28.12.036,SurveyExpMetaMem,3.2.3,Win32,60
,,,,,,,,,,,,,,,,,,,,7,11.47100019,7,1.371000051,1,0,1200,152,1,1199,hire,47617,2019-10-22_23h28.12.036,SurveyExpMetaMem,3.2.3,Win32,60
,,,,,,,,,,,,,,,,,,,,5,4.993000031,8,1.122000217,1,0,1200,849,1,1199,blue,47617,2019-10-22_23h28.12.036,SurveyExpMetaMem,3.2.3,Win32,60
,,,,,,,,,,,,,,,,,,,,5,3.401000261,4,2.203999996,1,0,1200,805,1,1199,autumn,47617,2019-10-22_23h28.12.036,SurveyExpMetaMem,3.2.3,Win32,60
,,,,,,,,,,,,,,,,,,,,7,7.115000248,7,4.657000065,1,0,1200,57,1,1199,important,47617,2019-10-22_23h28.12.036,SurveyExpMetaMem,3.2.3,Win32,60
,,,,,,,,,,,,,,,,,,,,8,2.842000008,7,1.538000107,1,0,1200,79,1,1199,dazzle,47617,2019-10-22_23h28.12.036,SurveyExpMetaMem,3.2.3,Win32,60
,,,,,,,,,,,,,,,,,,,,3,5.001000166,7,0.195000172,1,0,1200,829,1,1199,innocent,47617,2019-10-22_23h28.12.036,SurveyExpMetaMem,3.2.3,Win32,60
,,,,,,,,,,,,,,,,,,,,8,2.535000086,8,0.322000027,1,0,1200,62,1,1199,interested,47617,2019-10-22_23h28.12.036,SurveyExpMetaMem,3.2.3,Win32,60
,,,,,,,,,,,,,,,,,,,,8,18.93700027,4,0.838999987,1,0,1200,165,1,1199,sizzle,47617,2019-10-22_23h28.12.036,SurveyExpMetaMem,3.2.3,Win32,60
,,,,,,,,,,,,,,,,,,,,5,3.690000057,7,0.222000122,1,0,1200,266,1,1199,juice,47617,2019-10-22_23h28.12.036,SurveyExpMetaMem,3.2.3,Win32,60
,,,,,,,,,,,,,,,,,,,,6,5.36500001,4,0.882000208,1,0,1200,573,1,1199,cease,47617,2019-10-22_23h28.12.036,SurveyExpMetaMem,3.2.3,Win32,60
,,,,,,,,,,,,,,,,,,,,7,2.210999966,3,1.92200017,1,0,1200,1052,1,1199,angry,47617,2019-10-22_23h28.12.036,SurveyExpMetaMem,3.2.3,Win32,60
,,,,,,,,,,,,,,,,,,,,5,1.863000154,5,0.521000147,1,0,1200,655,1,1199,name,47617,2019-10-22_23h28.12.036,SurveyExpMetaMem,3.2.3,Win32,60
,,,,,,,,,,,,,,,,,,,,7,3.407000303,3,0.505000114,1,0,1200,424,1,1199,fault,47617,2019-10-22_23h28.12.036,SurveyExpMetaMem,3.2.3,Win32,60
,,,,,,,,,,,,,,,,,,,,5,3.892000198,7,1.440000296,1,0,1200,748,1,1199,town,47617,2019-10-22_23h28.12.036,SurveyExpMetaMem,3.2.3,Win32,60
,,,,,,,,,,,,,,,,,,,,6,3.744000196,4,0.789999962,1,0,1200,484,1,1199,leave,47617,2019-10-22_23h28.12.036,SurveyExpMetaMem,3.2.3,Win32,60
,,,,,,,,,,,,,,,,,,,,5,6.893000126,5,0.734000206,1,0,1200,270,1,1199,toddler,47617,2019-10-22_23h28.12.036,SurveyExpMetaMem,3.2.3,Win32,60
,,,,,,,,,,,,,,,,,,,,3,9.639000177,6,0.756000042,1,0,1200,614,1,1199,crossword,47617,2019-10-22_23h28.12.036,SurveyExpMetaMem,3.2.3,Win32,60
,,,,,,,,,,,,,,,,,,,,8,7.991000175,8,0.59100008,1,0,1200,45,1,1199,sex,47617,2019-10-22_23h28.12.036,SurveyExpMetaMem,3.2.3,Win32,60
,,,,,,,,,,,,,,,,,,,,8,4.42200017,3,1.104000092,1,0,1200,922,1,1199,nightmare,47617,2019-10-22_23h28.12.036,SurveyExpMetaMem,3.2.3,Win32,60
,,,,,,,,,,,,,,,,,,,,6,10.75000024,7,0.272000074,1,0,1200,726,1,1199,crackers,47617,2019-10-22_23h28.12.036,SurveyExpMetaMem,3.2.3,Win32,60
,,,,,,,,,,,,,,,,,,,,8,2.788000107,3,0.271000147,1,0,1200,1123,1,1199,haunt,47617,2019-10-22_23h28.12.036,SurveyExpMetaMem,3.2.3,Win32,60
,,,,,,,,,,,,,,,,,,,,8,4.805000067,4,1.963000059,1,0,1200,1146,1,1199,bug,47617,2019-10-22_23h28.12.036,SurveyExpMetaMem,3.2.3,Win32,60
,,,,,,,,,,,,,,,,,,,,8,3.325000048,2,1.113000154,1,0,1200,1009,1,1199,frightened,47617,2019-10-22_23h28.12.036,SurveyExpMetaMem,3.2.3,Win32,60
,,,,,,,,,,,,,,,,,,,,8,1.585000277,2,0.194000244,1,0,1200,959,1,1199,divorce,47617,2019-10-22_23h28.12.036,SurveyExpMetaMem,3.2.3,Win32,60
,,,,,,,,,,,,,,,,,,,,8,3.539999962,8,0.612999916,1,0,1200,265,1,1199,invent,47617,2019-10-22_23h28.12.036,SurveyExpMetaMem,3.2.3,Win32,60
,,,,,,,,,,,,,,,,,,,,8,1.877000093,9,0.221999884,1,0,1200,99,1,1199,funny,47617,2019-10-22_23h28.12.036,SurveyExpMetaMem,3.2.3,Win32,60
,,,,,,,,,,,,,,,,,,,,8,5.471000195,2,1.343000174,1,0,1200,1055,1,1199,alarm,47617,2019-10-22_23h28.12.036,SurveyExpMetaMem,3.2.3,Win32,60
,,,,,,,,,,,,,,,,,,,,7,9.170000076,4,4.635999918,1,0,1200,552,1,1199,shadow,47617,2019-10-22_23h28.12.036,SurveyExpMetaMem,3.2.3,Win32,60
,,,,,,,,,,,,,,,,,,,,6,6.518000126,8,0.254000187,1,0,1200,221,1,1199,sparkle,47617,2019-10-22_23h28.12.036,SurveyExpMetaMem,3.2.3,Win32,60
,,,,,,,,,,,,,,,,,,,,2,10.90300012,2,0.753000021,1,0,1200,465,1,1199,void,47617,2019-10-22_23h28.12.036,SurveyExpMetaMem,3.2.3,Win32,60
,,,,,,,,,,,,,,,,,,,,6,6.685000181,2,0.371999979,1,0,1200,486,1,1199,fool,47617,2019-10-22_23h28.12.036,SurveyExpMetaMem,3.2.3,Win32,60
,,,,,,,,,,,,,,,,,,,,8,2.917000294,8,0.429000139,1,0,1200,105,1,1199,curious,47617,2019-10-22_23h28.12.036,SurveyExpMetaMem,3.2.3,Win32,60
,,,,,,,,,,,,,,,,,,,,6,4.894000053,8,1.377000093,1,0,1200,797,1,1199,hamburger,47617,2019-10-22_23h28.12.036,SurveyExpMetaMem,3.2.3,Win32,60
,,,,,,,,,,,,,,,,,,,,6,6.843000174,4,3.621000051,1,0,1200,568,1,1199,therapy,47617,2019-10-22_23h28.12.036,SurveyExpMetaMem,3.2.3,Win32,60
,,,,,,,,,,,,,,,,,,,,8,2.438000202,8,0.35800004,1,0,1200,192,1,1199,pleased,47617,2019-10-22_23h28.12.036,SurveyExpMetaMem,3.2.3,Win32,60
,,,,,,,,,,,,,,,,,,,,9,3.566000223,3,1.421000242,1,0,1200,970,1,1199,worry,47617,2019-10-22_23h28.12.036,SurveyExpMetaMem,3.2.3,Win32,60
,,,,,,,,,,,,,,,,,,,,8,1.812999964,3,4.605999947,1,0,1200,1161,1,1199,shock,47617,2019-10-22_23h28.12.036,SurveyExpMetaMem,3.2.3,Win32,60
,,,,,,,,,,,,,,,,,,,,6,4.805999994,7,0.991000175,1,0,1200,541,1,1199,apathy,47617,2019-10-22_23h28.12.036,SurveyExpMetaMem,3.2.3,Win32,60
,,,,,,,,,,,,,,,,,,,,3,14.23900032,9,0.271000147,1,0,1200,859,1,1199,serene,47617,2019-10-22_23h28.12.036,SurveyExpMetaMem,3.2.3,Win32,60
,,,,,,,,,,,,,,,,,,,,8,18.23600006,2,0.38100028,1,0,1200,461,1,1199,ail,47617,2019-10-22_23h28.12.036,SurveyExpMetaMem,3.2.3,Win32,60
,,,,,,,,,,,,,,,,,,,,5,19.23500013,4,0.664000034,1,0,1200,498,1,1199,alimony,47617,2019-10-22_23h28.12.036,SurveyExpMetaMem,3.2.3,Win32,60
,,,,,,,,,,,,,,,,,,,,2,3.664000273,8,0.279000044,1,0,1200,664,1,1199,quiet,47617,2019-10-22_23h28.12.036,SurveyExpMetaMem,3.2.3,Win32,60
,,,,,,,,,,,,,,,,,,,,7,5.585000038,4,1.194000244,1,0,1200,19,1,1199,firefighter,47617,2019-10-22_23h28.12.036,SurveyExpMetaMem,3.2.3,Win32,60
,,,,,,,,,,,,,,,,,,,,3,5.317000151,4,0.805000067,1,0,1200,548,1,1199,vague,47617,2019-10-22_23h28.12.036,SurveyExpMetaMem,3.2.3,Win32,60
,,,,,,,,,,,,,,,,,,,,7,2.101000071,2,1.823000193,1,0,1200,1026,1,1199,crisis,47617,2019-10-22_23h28.12.036,SurveyExpMetaMem,3.2.3,Win32,60
,,,,,,,,,,,,,,,,,,,,8,2.504000187,2,1.414000034,1,0,1200,990,1,1199,enraged,47617,2019-10-22_23h28.12.036,SurveyExpMetaMem,3.2.3,Win32,60
,,,,,,,,,,,,,,,,,,,,6,7.866000175,7,3.30700016,1,0,1200,56,1,1199,spice,47617,2019-10-22_23h28.12.036,SurveyExpMetaMem,3.2.3,Win32,60
,,,,,,,,,,,,,,,,,,,,5,1.318000078,5,0.305000067,1,0,1200,644,1,1199,farm,47617,2019-10-22_23h28.12.036,SurveyExpMetaMem,3.2.3,Win32,60
,,,,,,,,,,,,,,,,,,,,6,6.442000151,2,0.675000191,1,0,1200,315,1,1199,zit,47617,2019-10-22_23h28.12.036,SurveyExpMetaMem,3.2.3,Win32,60
,,,,,,,,,,,,,,,,,,,,8,3.099999905,8,0.317000151,1,0,1200,288,1,1199,tasty,47617,2019-10-22_23h28.12.036,SurveyExpMetaMem,3.2.3,Win32,60
,,,,,,,,,,,,,,,,,,,,6,18.98699999,6,1.912000179,1,0,1200,750,1,1199,porpoise,47617,2019-10-22_23h28.12.036,SurveyExpMetaMem,3.2.3,Win32,60
,,,,,,,,,,,,,,,,,,,,8,5.035000086,1,0.486000061,1,0,1200,900,1,1199,suicide,47617,2019-10-22_23h28.12.036,SurveyExpMetaMem,3.2.3,Win32,60
,,,,,,,,,,,,,,,,,,,,7,3.029999971,7,0.434000015,1,0,1200,24,1,1199,model,47617,2019-10-22_23h28.12.036,SurveyExpMetaMem,3.2.3,Win32,60
,,,,,,,,,,,,,,,,,,,,5,20.45300007,6,0.151000261,1,0,1200,676,1,1199,straighten,47617,2019-10-22_23h28.12.036,SurveyExpMetaMem,3.2.3,Win32,60
,,,,,,,,,,,,,,,,,,,,3,18.23200011,6,0.446000099,1,0,1200,128,1,1199,supper,47617,2019-10-22_23h28.12.036,SurveyExpMetaMem,3.2.3,Win32,60
,,,,,,,,,,,,,,,,,,,,3,12.63300014,3,0.301000118,1,0,1200,540,1,1199,derelict,47617,2019-10-22_23h28.12.036,SurveyExpMetaMem,3.2.3,Win32,60
,,,,,,,,,,,,,,,,,,,,5,1.558000088,5,0.176000118,1,0,1200,553,1,1199,corner,47617,2019-10-22_23h28.12.036,SurveyExpMetaMem,3.2.3,Win32,60
,,,,,,,,,,,,,,,,,,,,4,6.639999866,6,0.221000195,1,0,1200,653,1,1199,detail,47617,2019-10-22_23h28.12.036,SurveyExpMetaMem,3.2.3,Win32,60
,,,,,,,,,,,,,,,,,,,,6,3.035000086,6,0.226000071,1,0,1200,723,1,1199,cinnamon,47617,2019-10-22_23h28.12.036,SurveyExpMetaMem,3.2.3,Win32,60
,,,,,,,,,,,,,,,,,,,,8,3.227999926,2,0.197000027,1,0,1200,317,1,1199,cry,47617,2019-10-22_23h28.12.036,SurveyExpMetaMem,3.2.3,Win32,60
,,,,,,,,,,,,,,,,,,,,5,6.319000006,5,1.184000015,1,0,1200,616,1,1199,coat,47617,2019-10-22_23h28.12.036,SurveyExpMetaMem,3.2.3,Win32,60
,,,,,,,,,,,,,,,,,,,,8,25.5250001,6,3.476000071,1,0,1200,254,1,1199,crush,47617,2019-10-22_23h28.12.036,SurveyExpMetaMem,3.2.3,Win32,60
,,,,,,,,,,,,,,,,,,,,6,30.21600008,7,0.176000118,1,0,1200,636,1,1199,refine,47617,2019-10-22_23h28.12.036,SurveyExpMetaMem,3.2.3,Win32,60
,,,,,,,,,,,,,,,,,,,,7,2.684999943,3,0.241000175,1,0,1200,1061,1,1199,difficult,47617,2019-10-22_23h28.12.036,SurveyExpMetaMem,3.2.3,Win32,60
,,,,,,,,,,,,,,,,,,,,5,1.660000086,5,0.25600028,1,0,1200,724,1,1199,owl,47617,2019-10-22_23h28.12.036,SurveyExpMetaMem,3.2.3,Win32,60
,,,,,,,,,,,,,,,,,,,,6,4.959000111,7,0.209000111,1,0,1200,782,1,1199,open,47617,2019-10-22_23h28.12.036,SurveyExpMetaMem,3.2.3,Win32,60
,,,,,,,,,,,,,,,,,,,,5,1.885000229,5,0.494999886,1,0,1200,681,1,1199,fig,47617,2019-10-22_23h28.12.036,SurveyExpMetaMem,3.2.3,Win32,60
,,,,,,,,,,,,,,,,,,,,7,5.21600008,5,2.094000101,1,0,1200,251,1,1199,meteor,47617,2019-10-22_23h28.12.036,SurveyExpMetaMem,3.2.3,Win32,60
,,,,,,,,,,,,,,,,,,,,5,7.049000025,7,1.391000271,1,0,1200,145,1,1199,me,47617,2019-10-22_23h28.12.036,SurveyExpMetaMem,3.2.3,Win32,60
,,,,,,,,,,,,,,,,,,,,6,5.885000229,5,1.890000105,1,0,1200,122,1,1199,prince,47617,2019-10-22_23h28.12.036,SurveyExpMetaMem,3.2.3,Win32,60
,,,,,,,,,,,,,,,,,,,,6,4.933000088,5,1.256000042,1,0,1200,211,1,1199,surfer,47617,2019-10-22_23h28.12.036,SurveyExpMetaMem,3.2.3,Win32,60
,,,,,,,,,,,,,,,,,,,,7,3.13800025,2,1.703999996,1,0,1200,1131,1,1199,envious,47617,2019-10-22_23h28.12.036,SurveyExpMetaMem,3.2.3,Win32,60
,,,,,,,,,,,,,,,,,,,,5,2.72300005,5,0.302000046,1,0,1200,821,1,1199,cottage,47617,2019-10-22_23h28.12.036,SurveyExpMetaMem,3.2.3,Win32,60
,,,,,,,,,,,,,,,,,,,,7,5.518000126,4,4.928000212,1,0,1200,140,1,1199,riches,47617,2019-10-22_23h28.12.036,SurveyExpMetaMem,3.2.3,Win32,60
,,,,,,,,,,,,,,,,,,,,7,3.601999998,2,0.322000265,1,0,1200,908,1,1199,suffer,47617,2019-10-22_23h28.12.036,SurveyExpMetaMem,3.2.3,Win32,60
,,,,,,,,,,,,,,,,,,,,7,2.112000227,2,0.208000183,1,0,1200,1120,1,1199,gun,47617,2019-10-22_23h28.12.036,SurveyExpMetaMem,3.2.3,Win32,60
,,,,,,,,,,,,,,,,,,,,7,4.823000193,8,0.588000059,1,0,1200,127,1,1199,glamorous,47617,2019-10-22_23h28.12.036,SurveyExpMetaMem,3.2.3,Win32,60
,,,,,,,,,,,,,,,,,,,,6,6.686000109,3,1.858999968,1,0,1200,308,1,1199,worthless,47617,2019-10-22_23h28.12.036,SurveyExpMetaMem,3.2.3,Win32,60
,,,,,,,,,,,,,,,,,,,,7,5.084000111,2,0.595999956,1,0,1200,427,1,1199,doubt,47617,2019-10-22_23h28.12.036,SurveyExpMetaMem,3.2.3,Win32,60
,,,,,,,,,,,,,,,,,,,,7,7.104000092,7,1.588999987,1,0,1200,114,1,1199,raise,47617,2019-10-22_23h28.12.036,SurveyExpMetaMem,3.2.3,Win32,60
,,,,,,,,,,,,,,,,,,,,5,1.913000107,5,0.226000071,1,0,1200,651,1,1199,bathroom,47617,2019-10-22_23h28.12.036,SurveyExpMetaMem,3.2.3,Win32,60
,,,,,,,,,,,,,,,,,,,,7,17.56700015,3,0.407000065,1,0,1200,480,1,1199,hinder,47617,2019-10-22_23h28.12.036,SurveyExpMetaMem,3.2.3,Win32,60
,,,,,,,,,,,,,,,,,,,,7,2.604000092,2,0.340000153,1,0,1200,542,1,1199,loose,47617,2019-10-22_23h28.12.036,SurveyExpMetaMem,3.2.3,Win32,60
,,,,,,,,,,,,,,,,,,,,4,3.424000025,6,0.323000193,1,0,1200,674,1,1199,fitting,47617,2019-10-22_23h28.12.036,SurveyExpMetaMem,3.2.3,Win32,60
,,,,,,,,,,,,,,,,,,,,5,4.602000237,6,0.82400012,1,0,1200,850,1,1199,lake,47617,2019-10-22_23h28.12.036,SurveyExpMetaMem,3.2.3,Win32,60
,,,,,,,,,,,,,,,,,,,,7,2.751000166,2,1.765000105,1,0,1200,987,1,1199,disgusted,47617,2019-10-22_23h28.12.036,SurveyExpMetaMem,3.2.3,Win32,60
,,,,,,,,,,,,,,,,,,,,6,4.328000069,5,1.852999926,1,0,1200,709,1,1199,ancestor,47617,2019-10-22_23h28.12.036,SurveyExpMetaMem,3.2.3,Win32,60
,,,,,,,,,,,,,,,,,,,,5,1.135999918,5,0.467000246,1,0,1200,602,1,1199,vegetable,47617,2019-10-22_23h28.12.036,SurveyExpMetaMem,3.2.3,Win32,60
,,,,,,,,,,,,,,,,,,,,8,2.218999863,8,0.957999945,1,0,1200,193,1,1199,party,47617,2019-10-22_23h28.12.036,SurveyExpMetaMem,3.2.3,Win32,60
,,,,,,,,,,,,,,,,,,,,2,5.072000027,6,0.207999945,1,0,1200,713,1,1199,mobile,47617,2019-10-22_23h28.12.036,SurveyExpMetaMem,3.2.3,Win32,60
,,,,,,,,,,,,,,,,,,,,5,7.930000305,6,1.569000244,1,0,1200,1179,1,1199,nerves,47617,2019-10-22_23h28.12.036,SurveyExpMetaMem,3.2.3,Win32,60
,,,,,,,,,,,,,,,,,,,,5,7.263999939,4,1.788000107,1,0,1200,554,1,1199,label,47617,2019-10-22_23h28.12.036,SurveyExpMetaMem,3.2.3,Win32,60
,,,,,,,,,,,,,,,,,,,,5,6.832999945,6,1.028000116,1,0,1200,150,1,1199,vodka,47617,2019-10-22_23h28.12.036,SurveyExpMetaMem,3.2.3,Win32,60
,,,,,,,,,,,,,,,,,,,,8,18.81900001,2,0.34800005,1,0,1200,1020,1,1199,malice,47617,2019-10-22_23h28.12.036,SurveyExpMetaMem,3.2.3,Win32,60
,,,,,,,,,,,,,,,,,,,,5,21.05200005,5,0.194999933,1,0,1200,603,1,1199,mane,47617,2019-10-22_23h28.12.036,SurveyExpMetaMem,3.2.3,Win32,60
,,,,,,,,,,,,,,,,,,,,6,5.582000256,4,0.325999975,1,0,1200,353,1,1199,blister,47617,2019-10-22_23h28.12.036,SurveyExpMetaMem,3.2.3,Win32,60
,,,,,,,,,,,,,,,,,,,,7,14.0940001,4,0.542000055,1,0,1200,589,1,1199,coarse,47617,2019-10-22_23h28.12.036,SurveyExpMetaMem,3.2.3,Win32,60
,,,,,,,,,,,,,,,,,,,,8,2.059000254,8,0.360000134,1,0,1200,282,1,1199,luck,47617,2019-10-22_23h28.12.036,SurveyExpMetaMem,3.2.3,Win32,60
,,,,,,,,,,,,,,,,,,,,8,3.68599987,3,1.396000147,1,0,1200,1171,1,1199,chaos,47617,2019-10-22_23h28.12.036,SurveyExpMetaMem,3.2.3,Win32,60
,,,,,,,,,,,,,,,,,,,,8,1.39800024,2,0.573000193,1,0,1200,902,1,1199,rejected,47617,2019-10-22_23h28.12.036,SurveyExpMetaMem,3.2.3,Win32,60
,,,,,,,,,,,,,,,,,,,,5,2.611999989,5,0.245000124,1,0,1200,774,1,1199,leaves,47617,2019-10-22_23h28.12.036,SurveyExpMetaMem,3.2.3,Win32,60
,,,,,,,,,,,,,,,,,,,,6,2.90500021,4,0.500999928,1,0,1200,177,1,1199,frosting,47617,2019-10-22_23h28.12.036,SurveyExpMetaMem,3.2.3,Win32,60
,,,,,,,,,,,,,,,,,,,,4,12.73500013,4,25.27800012,1,0,1200,590,1,1199,stool,47617,2019-10-22_23h28.12.036,SurveyExpMetaMem,3.2.3,Win32,60
,,,,,,,,,,,,,,,,,,,,7,9.701999903,5,10.62200022,1,0,1200,1117,1,1199,court,47617,2019-10-22_23h28.12.036,SurveyExpMetaMem,3.2.3,Win32,60
,,,,,,,,,,,,,,,,,,,,8,17.7440002,6,0.529000044,1,0,1200,994,1,1199,repulsed,47617,2019-10-22_23h28.12.036,SurveyExpMetaMem,3.2.3,Win32,60
,,,,,,,,,,,,,,,,,,,,5,1.569000244,5,0.228000164,1,0,1200,689,1,1199,land,47617,2019-10-22_23h28.12.036,SurveyExpMetaMem,3.2.3,Win32,60
,,,,,,,,,,,,,,,,,,,,3,7.861999989,5,0.217999935,1,0,1200,493,1,1199,little,47617,2019-10-22_23h28.12.036,SurveyExpMetaMem,3.2.3,Win32,60
,,,,,,,,,,,,,,,,,,,,2,18.2980001,4,0.551000118,1,0,1200,489,1,1199,timid,47617,2019-10-22_23h28.12.036,SurveyExpMetaMem,3.2.3,Win32,60
,,,,,,,,,,,,,,,,,,,,5,3.618999958,5,0.279000282,1,0,1200,452,1,1199,scapegoat,47617,2019-10-22_23h28.12.036,SurveyExpMetaMem,3.2.3,Win32,60
,,,,,,,,,,,,,,,,,,,,7,3.575000048,5,1.660000086,1,0,1200,50,1,1199,bolt,47617,2019-10-22_23h28.12.036,SurveyExpMetaMem,3.2.3,Win32,60
,,,,,,,,,,,,,,,,,,,,5,19.23000002,5,0.465000153,1,0,1200,437,1,1199,blubber,47617,2019-10-22_23h28.12.036,SurveyExpMetaMem,3.2.3,Win32,60
,,,,,,,,,,,,,,,,,,,,7,5.611000299,7,1.390000105,1,0,1200,751,1,1199,listen,47617,2019-10-22_23h28.12.036,SurveyExpMetaMem,3.2.3,Win32,60
,,,,,,,,,,,,,,,,,,,,7,3.985000134,7,0.872000217,1,0,1200,234,1,1199,redeem,47617,2019-10-22_23h28.12.036,SurveyExpMetaMem,3.2.3,Win32,60
,,,,,,,,,,,,,,,,,,,,8,1.955000162,8,0.489000082,1,0,1200,296,1,1199,awesome,47617,2019-10-22_23h28.12.036,SurveyExpMetaMem,3.2.3,Win32,60
,,,,,,,,,,,,,,,,,,,,8,4.321000099,2,1.220999956,1,0,1200,1004,1,1199,burglar,47617,2019-10-22_23h28.12.036,SurveyExpMetaMem,3.2.3,Win32,60
,,,,,,,,,,,,,,,,,,,,8,3.654000044,4,0.616000175,1,0,1200,635,1,1199,sensitive,47617,2019-10-22_23h28.12.036,SurveyExpMetaMem,3.2.3,Win32,60
,,,,,,,,,,,,,,,,,,,,5,1.759000063,5,0.221000195,1,0,1200,760,1,1199,shrimp,47617,2019-10-22_23h28.12.036,SurveyExpMetaMem,3.2.3,Win32,60
,,,,,,,,,,,,,,,,,,,,4,6.954999924,4,2.342000008,1,0,1200,440,1,1199,forgot,47617,2019-10-22_23h28.12.036,SurveyExpMetaMem,3.2.3,Win32,60
,,,,,,,,,,,,,,,,,,,,7,3.371999979,3,0.580000162,1,0,1200,1023,1,1199,disorder,47617,2019-10-22_23h28.12.036,SurveyExpMetaMem,3.2.3,Win32,60
,,,,,,,,,,,,,,,,,,,,7,5.532000065,7,3.654999971,1,0,1200,137,1,1199,money,47617,2019-10-22_23h28.12.036,SurveyExpMetaMem,3.2.3,Win32,60
,,,,,,,,,,,,,,,,,,,,8,3.751000166,9,0.131999969,1,0,1200,287,1,1199,optimistic,47617,2019-10-22_23h28.12.036,SurveyExpMetaMem,3.2.3,Win32,60
,,,,,,,,,,,,,,,,,,,,8,2.320000172,2,0.154000044,1,0,1200,1042,1,1199,brutal,47617,2019-10-22_23h28.12.036,SurveyExpMetaMem,3.2.3,Win32,60
,,,,,,,,,,,,,,,,,,,,7,3.342000246,4,0.265000105,1,0,1200,443,1,1199,incorrect,47617,2019-10-22_23h28.12.036,SurveyExpMetaMem,3.2.3,Win32,60
,,,,,,,,,,,,,,,,,,,,8,2.316999912,2,1.696000099,1,0,1200,1027,1,1199,criticism,47617,2019-10-22_23h28.12.036,SurveyExpMetaMem,3.2.3,Win32,60
,,,,,,,,,,,,,,,,,,,,5,1.187999964,5,0.222000122,1,0,1200,625,1,1199,hat,47617,2019-10-22_23h28.12.036,SurveyExpMetaMem,3.2.3,Win32,60
,,,,,,,,,,,,,,,,,,,,8,6.565000057,8,0.383000135,1,0,1200,890,1,1199,carefree,47617,2019-10-22_23h28.12.036,SurveyExpMetaMem,3.2.3,Win32,60
,,,,,,,,,,,,,,,,,,,,7,5.50600028,3,0.184999943,1,0,1200,1053,1,1199,surgery,47617,2019-10-22_23h28.12.036,SurveyExpMetaMem,3.2.3,Win32,60
,,,,,,,,,,,,,,,,,,,,7,2.950000286,4,1.870000124,1,0,1200,558,1,1199,punk,47617,2019-10-22_23h28.12.036,SurveyExpMetaMem,3.2.3,Win32,60
,,,,,,,,,,,,,,,,,,,,7,6.674000025,8,0.367000103,1,0,1200,891,1,1199,kind,47617,2019-10-22_23h28.12.036,SurveyExpMetaMem,3.2.3,Win32,60
,,,,,,,,,,,,,,,,,,,,8,2.197000265,3,0.770000219,1,0,1200,1048,1,1199,paranoid,47617,2019-10-22_23h28.12.036,SurveyExpMetaMem,3.2.3,Win32,60
,,,,,,,,,,,,,,,,,,,,7,4.193000078,7,0.220000029,1,0,1200,788,1,1199,cook,47617,2019-10-22_23h28.12.036,SurveyExpMetaMem,3.2.3,Win32,60
,,,,,,,,,,,,,,,,,,,,7,2.516000032,3,0.358000278,1,0,1200,512,1,1199,insect,47617,2019-10-22_23h28.12.036,SurveyExpMetaMem,3.2.3,Win32,60
,,,,,,,,,,,,,,,,,,,,3,6.820000172,7,1.338000059,1,0,1200,744,1,1199,village,47617,2019-10-22_23h28.12.036,SurveyExpMetaMem,3.2.3,Win32,60
,,,,,,,,,,,,,,,,,,,,8,2.440000057,2,0.388999939,1,0,1200,924,1,1199,terrible,47617,2019-10-22_23h28.12.036,SurveyExpMetaMem,3.2.3,Win32,60
,,,,,,,,,,,,,,,,,,,,7,27.54900002,7,0.321000099,1,0,1200,577,1,1199,retreat,47617,2019-10-22_23h28.12.036,SurveyExpMetaMem,3.2.3,Win32,60
,,,,,,,,,,,,,,,,,,,,7,3.088000059,4,1.94900012,1,0,1200,1175,1,1199,prostitute,47617,2019-10-22_23h28.12.036,SurveyExpMetaMem,3.2.3,Win32,60
,,,,,,,,,,,,,,,,,,,,4,3.584000111,6,1.926000118,1,0,1200,685,1,1199,makeup,47617,2019-10-22_23h28.12.036,SurveyExpMetaMem,3.2.3,Win32,60
,,,,,,,,,,,,,,,,,,,,8,7.567000151,8,0.196000099,1,0,1200,39,1,1199,birth,47617,2019-10-22_23h28.12.036,SurveyExpMetaMem,3.2.3,Win32,60
,,,,,,,,,,,,,,,,,,,,8,4.912999868,1,0.144000292,1,0,1200,946,1,1199,amputate,47617,2019-10-22_23h28.12.036,SurveyExpMetaMem,3.2.3,Win32,60
,,,,,,,,,,,,,,,,,,,,2,5.054000139,8,0.493000269,1,0,1200,878,1,1199,sleep,47617,2019-10-22_23h28.12.036,SurveyExpMetaMem,3.2.3,Win32,60
,,,,,,,,,,,,,,,,,,,,6,7.241000175,4,0.275000095,1,0,1200,201,1,1199,gorilla,47617,2019-10-22_23h28.12.036,SurveyExpMetaMem,3.2.3,Win32,60
,,,,,,,,,,,,,,,,,,,,4,5.46600008,3,1.388999939,1,0,1200,334,1,1199,trash,47617,2019-10-22_23h28.12.036,SurveyExpMetaMem,3.2.3,Win32,60
,,,,,,,,,,,,,,,,,,,,2,16.15600014,4,3.376000166,1,0,1200,374,1,1199,sluggish,47617,2019-10-22_23h28.12.036,SurveyExpMetaMem,3.2.3,Win32,60
,,,,,,,,,,,,,,,,,,,,5,2.47300005,5,0.224000216,1,0,1200,770,1,1199,buffalo,47617,2019-10-22_23h28.12.036,SurveyExpMetaMem,3.2.3,Win32,60
,,,,,,,,,,,,,,,,,,,,7,3.805000067,4,0.236999989,1,0,1200,392,1,1199,moody,47617,2019-10-22_23h28.12.036,SurveyExpMetaMem,3.2.3,Win32,60
,,,,,,,,,,,,,,,,,,,,5,6.284000158,5,1.808000088,1,0,1200,628,1,1199,chess,47617,2019-10-22_23h28.12.036,SurveyExpMetaMem,3.2.3,Win32,60
,,,,,,,,,,,,,,,,,,,,7,3.838000059,4,0.605000019,1,0,1200,1154,1,1199,politics,47617,2019-10-22_23h28.12.036,SurveyExpMetaMem,3.2.3,Win32,60
,,,,,,,,,,,,,,,,,,,,4,35.08400011,8,0.888999939,1,0,1200,866,1,1199,haven,47617,2019-10-22_23h28.12.036,SurveyExpMetaMem,3.2.3,Win32,60
,,,,,,,,,,,,,,,,,,,,8,2.933000088,3,0.539000034,1,0,1200,1096,1,1199,flood,47617,2019-10-22_23h28.12.036,SurveyExpMetaMem,3.2.3,Win32,60
,,,,,,,,,,,,,,,,,,,,8,3.523000002,3,0.710000038,1,0,1200,1151,1,1199,drama,47617,2019-10-22_23h28.12.036,SurveyExpMetaMem,3.2.3,Win32,60
,,,,,,,,,,,,,,,,,,,,7,2.601999998,3,1.037000179,1,0,1200,376,1,1199,incompetent,47617,2019-10-22_23h28.12.036,SurveyExpMetaMem,3.2.3,Win32,60
,,,,,,,,,,,,,,,,,,,,5,7.002000093,6,2.311000109,1,0,1200,687,1,1199,skinny,47617,2019-10-22_23h28.12.036,SurveyExpMetaMem,3.2.3,Win32,60
,,,,,,,,,,,,,,,,,,,,8,1.991000175,8,0.960999966,1,0,1200,237,1,1199,beautiful,47617,2019-10-22_23h28.12.036,SurveyExpMetaMem,3.2.3,Win32,60
,,,,,,,,,,,,,,,,,,,,8,1.203999996,8,0.276000023,1,0,1200,86,1,1199,talent,47617,2019-10-22_23h28.12.036,SurveyExpMetaMem,3.2.3,Win32,60
,,,,,,,,,,,,,,,,,,,,5,1.891000032,5,0.215000153,1,0,1200,747,1,1199,furniture,47617,2019-10-22_23h28.12.036,SurveyExpMetaMem,3.2.3,Win32,60
,,,,,,,,,,,,,,,,,,,,8,3.00999999,3,0.256000042,1,0,1200,960,1,1199,irritated,47617,2019-10-22_23h28.12.036,SurveyExpMetaMem,3.2.3,Win32,60
,,,,,,,,,,,,,,,,,,,,7,7.500999928,4,0.970999956,1,0,1200,253,1,1199,soldier,47617,2019-10-22_23h28.12.036,SurveyExpMetaMem,3.2.3,Win32,60
,,,,,,,,,,,,,,,,,,,,8,1.589999914,8,0.464000225,1,0,1200,212,1,1199,belief,47617,2019-10-22_23h28.12.036,SurveyExpMetaMem,3.2.3,Win32,60
,,,,,,,,,,,,,,,,,,,,5,5.835000038,7,0.167999983,1,0,1200,84,1,1199,eat,47617,2019-10-22_23h28.12.036,SurveyExpMetaMem,3.2.3,Win32,60
,,,,,,,,,,,,,,,,,,,,8,4.022000074,5,4.346000195,1,0,1200,1196,1,1199,breathless,47617,2019-10-22_23h28.12.036,SurveyExpMetaMem,3.2.3,Win32,60
,,,,,,,,,,,,,,,,,,,,7,2.451000214,2,0.815000296,1,0,1200,487,1,1199,junk,47617,2019-10-22_23h28.12.036,SurveyExpMetaMem,3.2.3,Win32,60
,,,,,,,,,,,,,,,,,,,,8,27.66000009,7,0.185000181,1,0,1200,232,1,1199,prosper,47617,2019-10-22_23h28.12.036,SurveyExpMetaMem,3.2.3,Win32,60
,,,,,,,,,,,,,,,,,,,,7,2.509000301,3,0.209000111,1,0,1200,1119,1,1199,confusion,47617,2019-10-22_23h28.12.036,SurveyExpMetaMem,3.2.3,Win32,60
,,,,,,,,,,,,,,,,,,,,7,3.036999941,4,1.700000048,1,0,1200,1067,1,1199,wicked,47617,2019-10-22_23h28.12.036,SurveyExpMetaMem,3.2.3,Win32,60
,,,,,,,,,,,,,,,,,,,,7,3.246000051,3,0.588000059,1,0,1200,1199,1,1199,expensive,47617,2019-10-22_23h28.12.036,SurveyExpMetaMem,3.2.3,Win32,60
,,,,,,,,,,,,,,,,,,,,6,7.042999983,7,0.210000038,1,0,1200,166,1,1199,unite,47617,2019-10-22_23h28.12.036,SurveyExpMetaMem,3.2.3,Win32,60
,,,,,,,,,,,,,,,,,,,,8,2.927000046,8,0.292000055,1,0,1200,298,1,1199,success,47617,2019-10-22_23h28.12.036,SurveyExpMetaMem,3.2.3,Win32,60
,,,,,,,,,,,,,,,,,,,,3,12.44000006,3,0.664000034,1,0,1200,585,1,1199,tatter,47617,2019-10-22_23h28.12.036,SurveyExpMetaMem,3.2.3,Win32,60
,,,,,,,,,,,,,,,,,,,,3,5.173000097,4,2.593000174,1,0,1200,596,1,1199,factory,47617,2019-10-22_23h28.12.036,SurveyExpMetaMem,3.2.3,Win32,60
,,,,,,,,,,,,,,,,,,,,9,7.976000071,9,0.302999973,1,0,1200,281,1,1199,summer,47617,2019-10-22_23h28.12.036,SurveyExpMetaMem,3.2.3,Win32,60
,,,,,,,,,,,,,,,,,,,,6,6.649000168,7,1.259000063,1,0,1200,796,1,1199,rose,47617,2019-10-22_23h28.12.036,SurveyExpMetaMem,3.2.3,Win32,60
,,,,,,,,,,,,,,,,,,,,4,8.497000217,7,2.917000294,1,0,1200,753,1,1199,patience,47617,2019-10-22_23h28.12.036,SurveyExpMetaMem,3.2.3,Win32,60
,,,,,,,,,,,,,,,,,,,,6,2.560000181,4,1.041000128,1,0,1200,1080,1,1199,broken,47617,2019-10-22_23h28.12.036,SurveyExpMetaMem,3.2.3,Win32,60
,,,,,,,,,,,,,,,,,,,,7,3.946000099,3,0.707000256,1,0,1200,1043,1,1199,scold,47617,2019-10-22_23h28.12.036,SurveyExpMetaMem,3.2.3,Win32,60
,,,,,,,,,,,,,,,,,,,,3,5.618999958,4,0.256000042,1,0,1200,391,1,1199,detach,47617,2019-10-22_23h28.12.036,SurveyExpMetaMem,3.2.3,Win32,60
,,,,,,,,,,,,,,,,,,,,7,4.513000011,8,0.660000086,1,0,1200,229,1,1199,heaven,47617,2019-10-22_23h28.12.036,SurveyExpMetaMem,3.2.3,Win32,60
,,,,,,,,,,,,,,,,,,,,4,5.818000078,7,0.237999916,1,0,1200,1075,1,1199,apprehension,47617,2019-10-22_23h28.12.036,SurveyExpMetaMem,3.2.3,Win32,60
,,,,,,,,,,,,,,,,,,,,4,2.709000111,8,0.210000038,1,0,1200,894,1,1199,sunset,47617,2019-10-22_23h28.12.036,SurveyExpMetaMem,3.2.3,Win32,60
,,,,,,,,,,,,,,,,,,,,4,19.35300016,4,0.311000109,1,0,1200,444,1,1199,mold,47617,2019-10-22_23h28.12.036,SurveyExpMetaMem,3.2.3,Win32,60
,,,,,,,,,,,,,,,,,,,,4,5.801000118,5,0.179000139,1,0,1200,1133,1,1199,slip,47617,2019-10-22_23h28.12.036,SurveyExpMetaMem,3.2.3,Win32,60
,,,,,,,,,,,,,,,,,,,,7,2.875,3,0.64800024,1,0,1200,1086,1,1199,irritate,47617,2019-10-22_23h28.12.036,SurveyExpMetaMem,3.2.3,Win32,60
,,,,,,,,,,,,,,,,,,,,4,3.571000099,6,0.251000166,1,0,1200,174,1,1199,snow,47617,2019-10-22_23h28.12.036,SurveyExpMetaMem,3.2.3,Win32,60
,,,,,,,,,,,,,,,,,,,,6,4.589000225,8,0.268000126,1,0,1200,839,1,1199,flower,47617,2019-10-22_23h28.12.036,SurveyExpMetaMem,3.2.3,Win32,60
,,,,,,,,,,,,,,,,,,,,7,14.60400009,2,1.395999908,1,0,1200,1177,1,1199,pang,47617,2019-10-22_23h28.12.036,SurveyExpMetaMem,3.2.3,Win32,60
,,,,,,,,,,,,,,,,,,,,5,15.38400006,6,0.17200017,1,0,1200,648,1,1199,beads,47617,2019-10-22_23h28.12.036,SurveyExpMetaMem,3.2.3,Win32,60
,,,,,,,,,,,,,,,,,,,,7,2.230000019,3,1.183000088,1,0,1200,1059,1,1199,harsh,47617,2019-10-22_23h28.12.036,SurveyExpMetaMem,3.2.3,Win32,60
,,,,,,,,,,,,,,,,,,,,4,6.47300005,4,0.262000084,1,0,1200,169,1,1199,aid,47617,2019-10-22_23h28.12.036,SurveyExpMetaMem,3.2.3,Win32,60
,,,,,,,,,,,,,,,,,,,,4,4.284000158,6,0.532000065,1,0,1200,641,1,1199,writer,47617,2019-10-22_23h28.12.036,SurveyExpMetaMem,3.2.3,Win32,60
,,,,,,,,,,,,,,,,,,,,6,7.43900013,7,0.123000145,1,0,1200,163,1,1199,gem,47617,2019-10-22_23h28.12.036,SurveyExpMetaMem,3.2.3,Win32,60
,,,,,,,,,,,,,,,,,,,,8,15.61500025,2,0.983999968,1,0,1200,1165,1,1199,revolt,47617,2019-10-22_23h28.12.036,SurveyExpMetaMem,3.2.3,Win32,60
,,,,,,,,,,,,,,,,,,,,8,2.336000204,2,0.612000227,1,0,1200,1007,1,1199,tornado,47617,2019-10-22_23h28.12.036,SurveyExpMetaMem,3.2.3,Win32,60
,,,,,,,,,,,,,,,,,,,,8,6.427000046,3,3.464000225,1,0,1200,1116,1,1199,emergency,47617,2019-10-22_23h28.12.036,SurveyExpMetaMem,3.2.3,Win32,60
,,,,,,,,,,,,,,,,,,,,9,22.98099995,9,0.262000084,1,0,1200,136,1,1199,dog,47617,2019-10-22_23h28.12.036,SurveyExpMetaMem,3.2.3,Win32,60
,,,,,,,,,,,,,,,,,,,,6,1.983999968,6,0.192000151,1,0,1200,831,1,1199,sofa,47617,2019-10-22_23h28.12.036,SurveyExpMetaMem,3.2.3,Win32,60
,,,,,,,,,,,,,,,,,,,,4,5.322000027,7,0.169000149,1,0,1200,715,1,1199,sheltered,47617,2019-10-22_23h28.12.036,SurveyExpMetaMem,3.2.3,Win32,60
,,,,,,,,,,,,,,,,,,,,7,7.690000057,4,0.533000231,1,0,1200,450,1,1199,overcast,47617,2019-10-22_23h28.12.036,SurveyExpMetaMem,3.2.3,Win32,60
,,,,,,,,,,,,,,,,,,,,7,1.384000301,5,3.526000023,1,0,1200,785,1,1199,pond,47617,2019-10-22_23h28.12.036,SurveyExpMetaMem,3.2.3,Win32,60
,,,,,,,,,,,,,,,,,,,,7,2.976000071,6,2.711000204,1,0,1200,119,1,1199,stereo,47617,2019-10-22_23h28.12.036,SurveyExpMetaMem,3.2.3,Win32,60
,,,,,,,,,,,,,,,,,,,,7,1.851999998,8,0.305000067,1,0,1200,130,1,1199,great,47617,2019-10-22_23h28.12.036,SurveyExpMetaMem,3.2.3,Win32,60
,,,,,,,,,,,,,,,,,,,,7,3.653000116,3,0.756000042,1,0,1200,394,1,1199,dump,47617,2019-10-22_23h28.12.036,SurveyExpMetaMem,3.2.3,Win32,60
,,,,,,,,,,,,,,,,,,,,8,5.845000029,8,0.485000134,1,0,1200,225,1,1199,strong,47617,2019-10-22_23h28.12.036,SurveyExpMetaMem,3.2.3,Win32,60
,,,,,,,,,,,,,,,,,,,,7,2.002000093,2,0.589000225,1,0,1200,966,1,1199,regretful,47617,2019-10-22_23h28.12.036,SurveyExpMetaMem,3.2.3,Win32,60
,,,,,,,,,,,,,,,,,,,,6,2.382000208,6,0.868000031,1,0,1200,686,1,1199,phone,47617,2019-10-22_23h28.12.036,SurveyExpMetaMem,3.2.3,Win32,60
,,,,,,,,,,,,,,,,,,,,6,4.63800025,7,0.924000025,1,0,1200,855,1,1199,girl,47617,2019-10-22_23h28.12.036,SurveyExpMetaMem,3.2.3,Win32,60
,,,,,,,,,,,,,,,,,,,,5,10.60500026,5,0.224000216,1,0,1200,1159,1,1199,rifle,47617,2019-10-22_23h28.12.036,SurveyExpMetaMem,3.2.3,Win32,60
,,,,,,,,,,,,,,,,,,,,4,27.33899999,3,1.144000053,1,0,1200,418,1,1199,cheapskate,47617,2019-10-22_23h28.12.036,SurveyExpMetaMem,3.2.3,Win32,60
,,,,,,,,,,,,,,,,,,,,7,23.83899999,4,0.822000265,1,0,1200,1166,1,1199,compulsive,47617,2019-10-22_23h28.12.036,SurveyExpMetaMem,3.2.3,Win32,60
,,,,,,,,,,,,,,,,,,,,7,2.823000193,3,0.517000198,1,0,1200,1150,1,1199,forceful,47617,2019-10-22_23h28.12.036,SurveyExpMetaMem,3.2.3,Win32,60
,,,,,,,,,,,,,,,,,,,,7,2.87100029,3,0.767000198,1,0,1200,1018,1,1199,distress,47617,2019-10-22_23h28.12.036,SurveyExpMetaMem,3.2.3,Win32,60
,,,,,,,,,,,,,,,,,,,,7,2.218000174,3,1.894999981,1,0,1200,1078,1,1199,trouble,47617,2019-10-22_23h28.12.036,SurveyExpMetaMem,3.2.3,Win32,60
,,,,,,,,,,,,,,,,,,,,7,1.368000031,2,0.388000011,1,0,1200,936,1,1199,assault,47617,2019-10-22_23h28.12.036,SurveyExpMetaMem,3.2.3,Win32,60
,,,,,,,,,,,,,,,,,,,,7,3.94900012,2,0.178000212,1,0,1200,1107,1,1199,snake,47617,2019-10-22_23h28.12.036,SurveyExpMetaMem,3.2.3,Win32,60
,,,,,,,,,,,,,,,,,,,,8,2.378999949,8,0.664000034,1,0,1200,291,1,1199,fantastic,47617,2019-10-22_23h28.12.036,SurveyExpMetaMem,3.2.3,Win32,60
,,,,,,,,,,,,,,,,,,,,5,2.425000191,5,0.210999966,1,0,1200,468,1,1199,noose,47617,2019-10-22_23h28.12.036,SurveyExpMetaMem,3.2.3,Win32,60
,,,,,,,,,,,,,,,,,,,,5,6.071000099,6,0.130000114,1,0,1200,756,1,1199,plant,47617,2019-10-22_23h28.12.036,SurveyExpMetaMem,3.2.3,Win32,60
,,,,,,,,,,,,,,,,,,,,8,2.487999916,2,0.18200016,1,0,1200,921,1,1199,humiliation,47617,2019-10-22_23h28.12.036,SurveyExpMetaMem,3.2.3,Win32,60
,,,,,,,,,,,,,,,,,,,,7,31.50200009,3,0.375000238,1,0,1200,1109,1,1199,germ,47617,2019-10-22_23h28.12.036,SurveyExpMetaMem,3.2.3,Win32,60
,,,,,,,,,,,,,,,,,,,,7,1.786999941,3,0.896000147,1,0,1200,407,1,1199,handicap,47617,2019-10-22_23h28.12.036,SurveyExpMetaMem,3.2.3,Win32,60
,,,,,,,,,,,,,,,,,,,,8,1.505000114,3,1.059000015,1,0,1200,1148,1,1199,suspicious,47617,2019-10-22_23h28.12.036,SurveyExpMetaMem,3.2.3,Win32,60
,,,,,,,,,,,,,,,,,,,,8,4.205000162,9,0.310000181,1,0,1200,238,1,1199,sunshine,47617,2019-10-22_23h28.12.036,SurveyExpMetaMem,3.2.3,Win32,60
,,,,,,,,,,,,,,,,,,,,8,2.494000196,8,0.460000038,1,0,1200,893,1,1199,nature,47617,2019-10-22_23h28.12.036,SurveyExpMetaMem,3.2.3,Win32,60
,,,,,,,,,,,,,,,,,,,,6,7.68200016,7,1.573000193,1,0,1200,153,1,1199,teach,47617,2019-10-22_23h28.12.036,SurveyExpMetaMem,3.2.3,Win32,60
,,,,,,,,,,,,,,,,,,,,5,1.952000141,5,0.21600008,1,0,1200,766,1,1199,flag,47617,2019-10-22_23h28.12.036,SurveyExpMetaMem,3.2.3,Win32,60
,,,,,,,,,,,,,,,,,,,,4,4.635999918,4,0.59100008,1,0,1200,488,1,1199,rusty,47617,2019-10-22_23h28.12.036,SurveyExpMetaMem,3.2.3,Win32,60
,,,,,,,,,,,,,,,,,,,,6,2.770000219,4,0.561000109,1,0,1200,441,1,1199,prohibit,47617,2019-10-22_23h28.12.036,SurveyExpMetaMem,3.2.3,Win32,60
,,,,,,,,,,,,,,,,,,,,2,17.398,6,1.22300005,1,0,1200,491,1,1199,meek,47617,2019-10-22_23h28.12.036,SurveyExpMetaMem,3.2.3,Win32,60
,,,,,,,,,,,,,,,,,,,,8,2.421999931,8,0.295000076,1,0,1200,90,1,1199,satisfaction,47617,2019-10-22_23h28.12.036,SurveyExpMetaMem,3.2.3,Win32,60
,,,,,,,,,,,,,,,,,,,,8,2.840000153,7,2.287000179,1,0,1200,299,1,1199,champion,47617,2019-10-22_23h28.12.036,SurveyExpMetaMem,3.2.3,Win32,60
,,,,,,,,,,,,,,,,,,,,7,1.675000191,3,0.811000109,1,0,1200,1030,1,1199,offend,47617,2019-10-22_23h28.12.036,SurveyExpMetaMem,3.2.3,Win32,60
,,,,,,,,,,,,,,,,,,,,3,25.57200027,8,1.122999907,1,0,1200,838,1,1199,nestle,47617,2019-10-22_23h28.12.036,SurveyExpMetaMem,3.2.3,Win32,60
,,,,,,,,,,,,,,,,,,,,7,3.184000015,4,1.321000099,1,0,1200,1087,1,1199,affair,47617,2019-10-22_23h28.12.036,SurveyExpMetaMem,3.2.3,Win32,60
,,,,,,,,,,,,,,,,,,,,8,3.352999926,8,1.978000164,1,0,1200,17,1,1199,outgoing,47617,2019-10-22_23h28.12.036,SurveyExpMetaMem,3.2.3,Win32,60
,,,,,,,,,,,,,,,,,,,,7,0.009000063,8,27.75099993,1,0,1200,591,1,1199,bereavement,47617,2019-10-22_23h28.12.036,SurveyExpMetaMem,3.2.3,Win32,60
,,,,,,,,,,,,,,,,,,,,2,0.318000078,2,4.736999989,1,0,1200,442,1,1199,foolish,47617,2019-10-22_23h28.12.036,SurveyExpMetaMem,3.2.3,Win32,60
,,,,,,,,,,,,,,,,,,,,6,5.763999939,4,0.913000107,1,0,1200,531,1,1199,omit,47617,2019-10-22_23h28.12.036,SurveyExpMetaMem,3.2.3,Win32,60
,,,,,,,,,,,,,,,,,,,,4,3.620000124,8,0.553000212,1,0,1200,731,1,1199,decency,47617,2019-10-22_23h28.12.036,SurveyExpMetaMem,3.2.3,Win32,60
,,,,,,,,,,,,,,,,,,,,7,10.53700018,6,0.940999985,1,0,1200,207,1,1199,erect,47617,2019-10-22_23h28.12.036,SurveyExpMetaMem,3.2.3,Win32,60
,,,,,,,,,,,,,,,,,,,,4,2.496999979,8,2.646000147,1,0,1200,777,1,1199,casual,47617,2019-10-22_23h28.12.036,SurveyExpMetaMem,3.2.3,Win32,60
,,,,,,,,,,,,,,,,,,,,4,7.202000141,3,2.024000168,1,0,1200,1168,1,1199,financial,47617,2019-10-22_23h28.12.036,SurveyExpMetaMem,3.2.3,Win32,60
,,,,,,,,,,,,,,,,,,,,7,28.82400012,7,0.335000038,1,0,1200,593,1,1199,errand,47617,2019-10-22_23h28.12.036,SurveyExpMetaMem,3.2.3,Win32,60
,,,,,,,,,,,,,,,,,,,,7,5.851999998,7,1.266000032,1,0,1200,64,1,1199,brain,47617,2019-10-22_23h28.12.036,SurveyExpMetaMem,3.2.3,Win32,60
,,,,,,,,,,,,,,,,,,,,8,21.18000007,8,0.190000057,1,0,1200,497,1,1199,pungent,47617,2019-10-22_23h28.12.036,SurveyExpMetaMem,3.2.3,Win32,60
,,,,,,,,,,,,,,,,,,,,6,5.497000217,5,1.130000114,1,0,1200,10,1,1199,cheerleader,47617,2019-10-22_23h28.12.036,SurveyExpMetaMem,3.2.3,Win32,60
,,,,,,,,,,,,,,,,,,,,8,2.713000059,8,0.318000317,1,0,1200,141,1,1199,surprise,47617,2019-10-22_23h28.12.036,SurveyExpMetaMem,3.2.3,Win32,60
,,,,,,,,,,,,,,,,,,,,6,5.965000153,6,1.141000271,1,0,1200,111,1,1199,band,47617,2019-10-22_23h28.12.036,SurveyExpMetaMem,3.2.3,Win32,60
,,,,,,,,,,,,,,,,,,,,4,4.053000212,7,0.231000185,1,0,1200,802,1,1199,familiar,47617,2019-10-22_23h28.12.036,SurveyExpMetaMem,3.2.3,Win32,60
,,,,,,,,,,,,,,,,,,,,7,2.385999918,2,0.339999914,1,0,1200,1156,1,1199,weapon,47617,2019-10-22_23h28.12.036,SurveyExpMetaMem,3.2.3,Win32,60
,,,,,,,,,,,,,,,,,,,,7,4.001000166,6,0.750999928,1,0,1200,184,1,1199,surprised,47617,2019-10-22_23h28.12.036,SurveyExpMetaMem,3.2.3,Win32,60
,,,,,,,,,,,,,,,,,,,,5,5.071000099,5,0.374000311,1,0,1200,912,1,1199,rabies,47617,2019-10-22_23h28.12.036,SurveyExpMetaMem,3.2.3,Win32,60
,,,,,,,,,,,,,,,,,,,,7,1.810000181,3,1.390000105,1,0,1200,1149,1,1199,fight,47617,2019-10-22_23h28.12.036,SurveyExpMetaMem,3.2.3,Win32,60
,,,,,,,,,,,,,,,,,,,,7,1.376000166,6,2.07400012,1,0,1200,187,1,1199,excite,47617,2019-10-22_23h28.12.036,SurveyExpMetaMem,3.2.3,Win32,60
,,,,,,,,,,,,,,,,,,,,7,3.730000019,4,1.128000021,1,0,1200,1084,1,1199,uneasy,47617,2019-10-22_23h28.12.036,SurveyExpMetaMem,3.2.3,Win32,60
,,,,,,,,,,,,,,,,,,,,6,5.967999935,5,0.131000042,1,0,1200,7,1,1199,duet,47617,2019-10-22_23h28.12.036,SurveyExpMetaMem,3.2.3,Win32,60
,,,,,,,,,,,,,,,,,,,,6,4.837000132,2,0.552000046,1,0,1200,311,1,1199,discomfort,47617,2019-10-22_23h28.12.036,SurveyExpMetaMem,3.2.3,Win32,60
,,,,,,,,,,,,,,,,,,,,7,23.29299998,2,0.658000231,1,0,1200,1006,1,1199,rash,47617,2019-10-22_23h28.12.036,SurveyExpMetaMem,3.2.3,Win32,60
,,,,,,,,,,,,,,,,,,,,6,3.687000036,3,2.173000097,1,0,1200,364,1,1199,stink,47617,2019-10-22_23h28.12.036,SurveyExpMetaMem,3.2.3,Win32,60
,,,,,,,,,,,,,,,,,,,,7,4.588000059,8,0.736999989,1,0,1200,46,1,1199,god,47617,2019-10-22_23h28.12.036,SurveyExpMetaMem,3.2.3,Win32,60
,,,,,,,,,,,,,,,,,,,,5,1.590000153,5,0.24600029,1,0,1200,693,1,1199,key,47617,2019-10-22_23h28.12.036,SurveyExpMetaMem,3.2.3,Win32,60
,,,,,,,,,,,,,,,,,,,,6,2.469000101,2,0.717000246,1,0,1200,355,1,1199,graveyard,47617,2019-10-22_23h28.12.036,SurveyExpMetaMem,3.2.3,Win32,60
,,,,,,,,,,,,,,,,,,,,7,2.464000225,4,1.535000086,1,0,1200,1127,1,1199,spank,47617,2019-10-22_23h28.12.036,SurveyExpMetaMem,3.2.3,Win32,60
,,,,,,,,,,,,,,,,,,,,7,4.496000051,2,1.236000061,1,0,1200,494,1,1199,butcher,47617,2019-10-22_23h28.12.036,SurveyExpMetaMem,3.2.3,Win32,60
,,,,,,,,,,,,,,,,,,,,7,18.05500007,2,1.223999977,1,0,1200,1010,1,1199,arson,47617,2019-10-22_23h28.12.036,SurveyExpMetaMem,3.2.3,Win32,60
,,,,,,,,,,,,,,,,,,,,8,4.833000183,7,0.327000141,1,0,1200,20,1,1199,climax,47617,2019-10-22_23h28.12.036,SurveyExpMetaMem,3.2.3,Win32,60
,,,,,,,,,,,,,,,,,,,,7,3.96600008,7,0.492000103,1,0,1200,116,1,1199,carnival,47617,2019-10-22_23h28.12.036,SurveyExpMetaMem,3.2.3,Win32,60
,,,,,,,,,,,,,,,,,,,,6,3.854000092,4,0.639000177,1,0,1200,3,1,1199,nudist,47617,2019-10-22_23h28.12.036,SurveyExpMetaMem,3.2.3,Win32,60
,,,,,,,,,,,,,,,,,,,,8,18.11800003,6,0.611000061,1,0,1200,566,1,1199,obscure,47617,2019-10-22_23h28.12.036,SurveyExpMetaMem,3.2.3,Win32,60
,,,,,,,,,,,,,,,,,,,,4,32.48100019,4,0.278000116,1,0,1200,381,1,1199,sloppy,47617,2019-10-22_23h28.12.036,SurveyExpMetaMem,3.2.3,Win32,60
,,,,,,,,,,,,,,,,,,,,7,2.753000021,4,5.056999922,1,0,1200,1176,1,1199,vampire,47617,2019-10-22_23h28.12.036,SurveyExpMetaMem,3.2.3,Win32,60
,,,,,,,,,,,,,,,,,,,,7,3.005000114,7,0.239000082,1,0,1200,665,1,1199,read,47617,2019-10-22_23h28.12.036,SurveyExpMetaMem,3.2.3,Win32,60
,,,,,,,,,,,,,,,,,,,,2,4.63499999,8,0.204000235,1,0,1200,899,1,1199,relax,47617,2019-10-22_23h28.12.036,SurveyExpMetaMem,3.2.3,Win32,60
,,,,,,,,,,,,,,,,,,,,8,2.041000128,2,0.18900013,1,0,1200,980,1,1199,liar,47617,2019-10-22_23h28.12.036,SurveyExpMetaMem,3.2.3,Win32,60
,,,,,,,,,,,,,,,,,,,,7,3.735000134,2,0.15899992,1,0,1200,426,1,1199,con,47617,2019-10-22_23h28.12.036,SurveyExpMetaMem,3.2.3,Win32,60
,,,,,,,,,,,,,,,,,,,,2,23.56400013,7,1.256000042,1,0,1200,673,1,1199,bedspread,47617,2019-10-22_23h28.12.036,SurveyExpMetaMem,3.2.3,Win32,60
,,,,,,,,,,,,,,,,,,,,2,2.648999929,7,1.306000233,1,0,1200,863,1,1199,fireplace,47617,2019-10-22_23h28.12.036,SurveyExpMetaMem,3.2.3,Win32,60
,,,,,,,,,,,,,,,,,,,,2,17.82500029,5,0.992000103,1,0,1200,511,1,1199,slouch,47617,2019-10-22_23h28.12.036,SurveyExpMetaMem,3.2.3,Win32,60
,,,,,,,,,,,,,,,,,,,,7,3.235000134,7,0.976999998,1,0,1200,172,1,1199,potential,47617,2019-10-22_23h28.12.036,SurveyExpMetaMem,3.2.3,Win32,60
,,,,,,,,,,,,,,,,,,,,8,2.463999987,8,0.332000017,1,0,1200,32,1,1199,festival,47617,2019-10-22_23h28.12.036,SurveyExpMetaMem,3.2.3,Win32,60
,,,,,,,,,,,,,,,,,,,,8,2.020999908,9,0.995000124,1,0,1200,26,1,1199,inspired,47617,2019-10-22_23h28.12.036,SurveyExpMetaMem,3.2.3,Win32,60
,,,,,,,,,,,,,,,,,,,,5,4.282000303,5,0.64199996,1,0,1200,400,1,1199,urine,47617,2019-10-22_23h28.12.036,SurveyExpMetaMem,3.2.3,Win32,60
,,,,,,,,,,,,,,,,,,,,5,3.495000124,5,0.43900013,1,0,1200,627,1,1199,introductory,47617,2019-10-22_23h28.12.036,SurveyExpMetaMem,3.2.3,Win32,60
,,,,,,,,,,,,,,,,,,,,7,2.836999893,4,5.75600028,1,0,1200,1051,1,1199,insane,47617,2019-10-22_23h28.12.036,SurveyExpMetaMem,3.2.3,Win32,60
,,,,,,,,,,,,,,,,,,,,4,5.43900013,7,0.458000183,1,0,1200,76,1,1199,midnight,47617,2019-10-22_23h28.12.036,SurveyExpMetaMem,3.2.3,Win32,60
,,,,,,,,,,,,,,,,,,,,8,1.698000193,8,0.362000227,1,0,1200,82,1,1199,stunning,47617,2019-10-22_23h28.12.036,SurveyExpMetaMem,3.2.3,Win32,60
,,,,,,,,,,,,,,,,,,,,7,5.751000166,3,0.555999994,1,0,1200,459,1,1199,heavy,47617,2019-10-22_23h28.12.036,SurveyExpMetaMem,3.2.3,Win32,60
,,,,,,,,,,,,,,,,,,,,5,1.809000015,5,0.213000298,1,0,1200,605,1,1199,year,47617,2019-10-22_23h28.12.036,SurveyExpMetaMem,3.2.3,Win32,60
,,,,,,,,,,,,,,,,,,,,7,20.5710001,2,0.211000204,1,0,1200,1144,1,1199,yelp,47617,2019-10-22_23h28.12.036,SurveyExpMetaMem,3.2.3,Win32,60
,,,,,,,,,,,,,,,,,,,,8,3.640000105,2,1.291000128,1,0,1200,1032,1,1199,exam,47617,2019-10-22_23h28.12.036,SurveyExpMetaMem,3.2.3,Win32,60
,,,,,,,,,,,,,,,,,,,,3,3.986000061,7,0.174999952,1,0,1200,707,1,1199,adapt,47617,2019-10-22_23h28.12.036,SurveyExpMetaMem,3.2.3,Win32,60
,,,,,,,,,,,,,,,,,,,,8,2.244000196,2,0.821000099,1,0,1200,1056,1,1199,crime,47617,2019-10-22_23h28.12.036,SurveyExpMetaMem,3.2.3,Win32,60
,,,,,,,,,,,,,,,,,,,,8,7.222000122,4,3.587000132,1,0,1200,250,1,1199,erupt,47617,2019-10-22_23h28.12.036,SurveyExpMetaMem,3.2.3,Win32,60
,,,,,,,,,,,,,,,,,,,,5,2.502000093,5,2.361000061,1,0,1200,584,1,1199,anus,47617,2019-10-22_23h28.12.036,SurveyExpMetaMem,3.2.3,Win32,60
,,,,,,,,,,,,,,,,,,,,6,8.880000114,6,0.604000092,1,0,1200,781,1,1199,emerald,47617,2019-10-22_23h28.12.036,SurveyExpMetaMem,3.2.3,Win32,60
,,,,,,,,,,,,,,,,,,,,7,3.391000032,3,0.936000109,1,0,1200,1182,1,1199,pierce,47617,2019-10-22_23h28.12.036,SurveyExpMetaMem,3.2.3,Win32,60
,,,,,,,,,,,,,,,,,,,,3,3.085000038,8,0.185000181,1,0,1200,213,1,1199,fair,47617,2019-10-22_23h28.12.036,SurveyExpMetaMem,3.2.3,Win32,60
,,,,,,,,,,,,,,,,,,,,8,1.934000015,1,1.684000254,1,0,1200,901,1,1199,rape,47617,2019-10-22_23h28.12.036,SurveyExpMetaMem,3.2.3,Win32,60
,,,,,,,,,,,,,,,,,,,,8,4.121999979,3,1.59100008,1,0,1200,387,1,1199,tax,47617,2019-10-22_23h28.12.036,SurveyExpMetaMem,3.2.3,Win32,60
,,,,,,,,,,,,,,,,,,,,6,4.443000078,3,0.262000084,1,0,1200,456,1,1199,piss,47617,2019-10-22_23h28.12.036,SurveyExpMetaMem,3.2.3,Win32,60
,,,,,,,,,,,,,,,,,,,,7,3.697000027,7,0.234999895,1,0,1200,52,1,1199,dare,47617,2019-10-22_23h28.12.036,SurveyExpMetaMem,3.2.3,Win32,60
,,,,,,,,,,,,,,,,,,,,6,7.548000097,8,0.755000114,1,0,1200,110,1,1199,animal,47617,2019-10-22_23h28.12.036,SurveyExpMetaMem,3.2.3,Win32,60
,,,,,,,,,,,,,,,,,,,,2,4.017999887,7,0.605000019,1,0,1200,609,1,1199,candlestick,47617,2019-10-22_23h28.12.036,SurveyExpMetaMem,3.2.3,Win32,60
,,,,,,,,,,,,,,,,,,,,3,6.246999979,6,1.594000101,1,0,1200,819,1,1199,sheep,47617,2019-10-22_23h28.12.036,SurveyExpMetaMem,3.2.3,Win32,60
,,,,,,,,,,,,,,,,,,,,5,4.13499999,5,0.262000084,1,0,1200,727,1,1199,author,47617,2019-10-22_23h28.12.036,SurveyExpMetaMem,3.2.3,Win32,60
,,,,,,,,,,,,,,,,,,,,8,3.068000078,6,3.885000229,1,0,1200,1194,1,1199,obsession,47617,2019-10-22_23h28.12.036,SurveyExpMetaMem,3.2.3,Win32,60
,,,,,,,,,,,,,,,,,,,,3,2.082000017,8,1.963000059,1,0,1200,852,1,1199,caring,47617,2019-10-22_23h28.12.036,SurveyExpMetaMem,3.2.3,Win32,60
,,,,,,,,,,,,,,,,,,,,5,4.504000187,7,1.146000147,1,0,1200,121,1,1199,self,47617,2019-10-22_23h28.12.036,SurveyExpMetaMem,3.2.3,Win32,60
,,,,,,,,,,,,,,,,,,,,8,3.025000095,9,0.147000074,1,0,1200,293,1,1199,succeed,47617,2019-10-22_23h28.12.036,SurveyExpMetaMem,3.2.3,Win32,60
,,,,,,,,,,,,,,,,,,,,8,1.903000116,2,0.823000193,1,0,1200,917,1,1199,slave,47617,2019-10-22_23h28.12.036,SurveyExpMetaMem,3.2.3,Win32,60
,,,,,,,,,,,,,,,,,,,,5,6.428999901,5,0.226000071,1,0,1200,539,1,1199,novice,47617,2019-10-22_23h28.12.036,SurveyExpMetaMem,3.2.3,Win32,60
,,,,,,,,,,,,,,,,,,,,6,3.167999983,7,0.936000109,1,0,1200,159,1,1199,teenager,47617,2019-10-22_23h28.12.036,SurveyExpMetaMem,3.2.3,Win32,60
,,,,,,,,,,,,,,,,,,,,7,3.204000235,7,0.667000294,1,0,1200,222,1,1199,waterskiing,47617,2019-10-22_23h28.12.036,SurveyExpMetaMem,3.2.3,Win32,60
,,,,,,,,,,,,,,,,,,,,7,2.656000137,3,0.145999908,1,0,1200,933,1,1199,afraid,47617,2019-10-22_23h28.12.036,SurveyExpMetaMem,3.2.3,Win32,60
,,,,,,,,,,,,,,,,,,,,3,3.398000002,8,0.173000097,1,0,1200,732,1,1199,humble,47617,2019-10-22_23h28.12.036,SurveyExpMetaMem,3.2.3,Win32,60
,,,,,,,,,,,,,,,,,,,,8,3.177999973,3,1.222000122,1,0,1200,971,1,1199,crash,47617,2019-10-22_23h28.12.036,SurveyExpMetaMem,3.2.3,Win32,60
,,,,,,,,,,,,,,,,,,,,6,2.669000149,6,0.284000158,1,0,1200,843,1,1199,garden,47617,2019-10-22_23h28.12.036,SurveyExpMetaMem,3.2.3,Win32,60
,,,,,,,,,,,,,,,,,,,,6,5.120000124,6,0.260999918,1,0,1200,262,1,1199,athletics,47617,2019-10-22_23h28.12.036,SurveyExpMetaMem,3.2.3,Win32,60
,,,,,,,,,,,,,,,,,,,,3,23.53700018,3,0.989000082,1,0,1200,342,1,1199,alienation,47617,2019-10-22_23h28.12.036,SurveyExpMetaMem,3.2.3,Win32,60
,,,,,,,,,,,,,,,,,,,,6,2.643000126,8,0.517000198,1,0,1200,284,1,1199,delight,47617,2019-10-22_23h28.12.036,SurveyExpMetaMem,3.2.3,Win32,60
,,,,,,,,,,,,,,,,,,,,6,3.958000183,6,1.70600009,1,0,1200,71,1,1199,spirit,47617,2019-10-22_23h28.12.036,SurveyExpMetaMem,3.2.3,Win32,60
,,,,,,,,,,,,,,,,,,,,6,3.04700017,7,0.351000071,1,0,1200,874,1,1199,butterfly,47617,2019-10-22_23h28.12.036,SurveyExpMetaMem,3.2.3,Win32,60
,,,,,,,,,,,,,,,,,,,,7,5.826000214,3,0.540999889,1,0,1200,1169,1,1199,enforcement,47617,2019-10-22_23h28.12.036,SurveyExpMetaMem,3.2.3,Win32,60
,,,,,,,,,,,,,,,,,,,,5,22.39300013,5,0.197000027,1,0,1200,545,1,1199,tar,47617,2019-10-22_23h28.12.036,SurveyExpMetaMem,3.2.3,Win32,60
,,,,,,,,,,,,,,,,,,,,6,4.166000128,4,4.29700017,1,0,1200,776,1,1199,doll,47617,2019-10-22_23h28.12.036,SurveyExpMetaMem,3.2.3,Win32,60
,,,,,,,,,,,,,,,,,,,,7,3.139000177,3,0.871999979,1,0,1200,1098,1,1199,confused,47617,2019-10-22_23h28.12.036,SurveyExpMetaMem,3.2.3,Win32,60
,,,,,,,,,,,,,,,,,,,,5,5.784000158,4,0.27300024,1,0,1200,562,1,1199,average,47617,2019-10-22_23h28.12.036,SurveyExpMetaMem,3.2.3,Win32,60
,,,,,,,,,,,,,,,,,,,,6,2.161999941,4,0.291000128,1,0,1200,1111,1,1199,bruise,47617,2019-10-22_23h28.12.036,SurveyExpMetaMem,3.2.3,Win32,60
,,,,,,,,,,,,,,,,,,,,5,1.836000204,5,0.235000134,1,0,1200,755,1,1199,soap,47617,2019-10-22_23h28.12.036,SurveyExpMetaMem,3.2.3,Win32,60
,,,,,,,,,,,,,,,,,,,,6,3.118999958,7,0.193000078,1,0,1200,160,1,1199,reunion,47617,2019-10-22_23h28.12.036,SurveyExpMetaMem,3.2.3,Win32,60
,,,,,,,,,,,,,,,,,,,,3,3.295000076,7,0.191000223,1,0,1200,817,1,1199,countryside,47617,2019-10-22_23h28.12.036,SurveyExpMetaMem,3.2.3,Win32,60
,,,,,,,,,,,,,,,,,,,,7,4.35800004,8,0.20600009,1,0,1200,294,1,1199,confident,47617,2019-10-22_23h28.12.036,SurveyExpMetaMem,3.2.3,Win32,60
,,,,,,,,,,,,,,,,,,,,6,3.703000069,8,0.155999899,1,0,1200,176,1,1199,champ,47617,2019-10-22_23h28.12.036,SurveyExpMetaMem,3.2.3,Win32,60
,,,,,,,,,,,,,,,,,,,,3,7.839000225,7,0.252000093,1,0,1200,800,1,1199,authentic,47617,2019-10-22_23h28.12.036,SurveyExpMetaMem,3.2.3,Win32,60
,,,,,,,,,,,,,,,,,,,,7,2.351999998,7,0.342000246,1,0,1200,256,1,1199,galaxy,47617,2019-10-22_23h28.12.036,SurveyExpMetaMem,3.2.3,Win32,60
,,,,,,,,,,,,,,,,,,,,6,9.402000189,6,0.210999966,1,0,1200,572,1,1199,cast,47617,2019-10-22_23h28.12.036,SurveyExpMetaMem,3.2.3,Win32,60
,,,,,,,,,,,,,,,,,,,,7,2.675000191,3,0.58100009,1,0,1200,1162,1,1199,baffle,47617,2019-10-22_23h28.12.036,SurveyExpMetaMem,3.2.3,Win32,60
,,,,,,,,,,,,,,,,,,,,8,12.13500023,8,0.236000299,1,0,1200,283,1,1199,elated,47617,2019-10-22_23h28.12.036,SurveyExpMetaMem,3.2.3,Win32,60
,,,,,,,,,,,,,,,,,,,,8,24.38100004,7,0.29399991,1,0,1200,267,1,1199,bold,47617,2019-10-22_23h28.12.036,SurveyExpMetaMem,3.2.3,Win32,60
,,,,,,,,,,,,,,,,,,,,7,2.628000021,3,0.304000139,1,0,1200,340,1,1199,coward,47617,2019-10-22_23h28.12.036,SurveyExpMetaMem,3.2.3,Win32,60
,,,,,,,,,,,,,,,,,,,,8,4.710000038,4,3.423000097,1,0,1200,1134,1,1199,obsessed,47617,2019-10-22_23h28.12.036,SurveyExpMetaMem,3.2.3,Win32,60
,,,,,,,,,,,,,,,,,,,,8,1.569000244,2,1.373000145,1,0,1200,326,1,1199,scam,47617,2019-10-22_23h28.12.036,SurveyExpMetaMem,3.2.3,Win32,60
,,,,,,,,,,,,,,,,,,,,8,1.174000025,8,0.559000015,1,0,1200,236,1,1199,amaze,47617,2019-10-22_23h28.12.036,SurveyExpMetaMem,3.2.3,Win32,60
,,,,,,,,,,,,,,,,,,,,5,1.737999916,5,0.239000082,1,0,1200,725,1,1199,checkerboard,47617,2019-10-22_23h28.12.036,SurveyExpMetaMem,3.2.3,Win32,60
,,,,,,,,,,,,,,,,,,,,7,5.263999939,8,0.157999992,1,0,1200,884,1,1199,grateful,47617,2019-10-22_23h28.12.036,SurveyExpMetaMem,3.2.3,Win32,60
,,,,,,,,,,,,,,,,,,,,7,3.968000174,7,1.897000074,1,0,1200,733,1,1199,poetry,47617,2019-10-22_23h28.12.036,SurveyExpMetaMem,3.2.3,Win32,60
,,,,,,,,,,,,,,,,,,,,8,2.123000145,8,0.386000156,1,0,1200,173,1,1199,hope,47617,2019-10-22_23h28.12.036,SurveyExpMetaMem,3.2.3,Win32,60
,,,,,,,,,,,,,,,,,,,,2,2.847000122,8,1.639000177,1,0,1200,867,1,1199,relaxed,47617,2019-10-22_23h28.12.036,SurveyExpMetaMem,3.2.3,Win32,60
,,,,,,,,,,,,,,,,,,,,5,1.676000118,5,0.186000109,1,0,1200,683,1,1199,scarf,47617,2019-10-22_23h28.12.036,SurveyExpMetaMem,3.2.3,Win32,60
,,,,,,,,,,,,,,,,,,,,8,19.94700003,3,0.209000111,1,0,1200,1105,1,1199,flee,47617,2019-10-22_23h28.12.036,SurveyExpMetaMem,3.2.3,Win32,60
,,,,,,,,,,,,,,,,,,,,5,4.126000166,6,0.177999973,1,0,1200,561,1,1199,plain,47617,2019-10-22_23h28.12.036,SurveyExpMetaMem,3.2.3,Win32,60
,,,,,,,,,,,,,,,,,,,,8,2.556000233,8,0.173000097,1,0,1200,248,1,1199,win,47617,2019-10-22_23h28.12.036,SurveyExpMetaMem,3.2.3,Win32,60
,,,,,,,,,,,,,,,,,,,,3,11.977,4,0.513000011,1,0,1200,492,1,1199,naive,47617,2019-10-22_23h28.12.036,SurveyExpMetaMem,3.2.3,Win32,60
,,,,,,,,,,,,,,,,,,,,4,6.411999941,4,0.270000219,1,0,1200,692,1,1199,medicine,47617,2019-10-22_23h28.12.036,SurveyExpMetaMem,3.2.3,Win32,60
,,,,,,,,,,,,,,,,,,,,7,2.609000206,7,0.20600009,1,0,1200,832,1,1199,candy,47617,2019-10-22_23h28.12.036,SurveyExpMetaMem,3.2.3,Win32,60
,,,,,,,,,,,,,,,,,,,,7,2.338999987,2,0.323000193,1,0,1200,979,1,1199,harassment,47617,2019-10-22_23h28.12.036,SurveyExpMetaMem,3.2.3,Win32,60
,,,,,,,,,,,,,,,,,,,,3,16.43799996,3,0.236000061,1,0,1200,366,1,1199,fatigue,47617,2019-10-22_23h28.12.036,SurveyExpMetaMem,3.2.3,Win32,60
,,,,,,,,,,,,,,,,,,,,8,4.319999933,8,1.029999971,1,0,1200,73,1,1199,rhythm,47617,2019-10-22_23h28.12.036,SurveyExpMetaMem,3.2.3,Win32,60
,,,,,,,,,,,,,,,,,,,,7,3.151000023,8,0.896000147,1,0,1200,170,1,1199,entertainment,47617,2019-10-22_23h28.12.036,SurveyExpMetaMem,3.2.3,Win32,60
,,,,,,,,,,,,,,,,,,,,7,3.033000231,3,0.22300005,1,0,1200,345,1,1199,unfortunate,47617,2019-10-22_23h28.12.036,SurveyExpMetaMem,3.2.3,Win32,60
,,,,,,,,,,,,,,,,,,,,6,3.243000269,5,0.072000027,1,0,1200,854,1,1199,river,47617,2019-10-22_23h28.12.036,SurveyExpMetaMem,3.2.3,Win32,60
,,,,,,,,,,,,,,,,,,,,7,2.124000072,3,0.138000011,1,0,1200,1014,1,1199,destroy,47617,2019-10-22_23h28.12.036,SurveyExpMetaMem,3.2.3,Win32,60
,,,,,,,,,,,,,,,,,,,,4,4.552000284,7,0.179000139,1,0,1200,705,1,1199,tolerant,47617,2019-10-22_23h28.12.036,SurveyExpMetaMem,3.2.3,Win32,60
,,,,,,,,,,,,,,,,,,,,7,4.339000225,3,0.255000114,1,0,1200,329,1,1199,worse,47617,2019-10-22_23h28.12.036,SurveyExpMetaMem,3.2.3,Win32,60
,,,,,,,,,,,,,,,,,,,,7,1.989000082,4,0.176000118,1,0,1200,395,1,1199,lack,47617,2019-10-22_23h28.12.036,SurveyExpMetaMem,3.2.3,Win32,60
,,,,,,,,,,,,,,,,,,,,3,25.25300002,4,0.360000134,1,0,1200,425,1,1199,crutch,47617,2019-10-22_23h28.12.036,SurveyExpMetaMem,3.2.3,Win32,60
,,,,,,,,,,,,,,,,,,,,6,5.268000126,3,0.24600029,1,0,1200,996,1,1199,sting,47617,2019-10-22_23h28.12.036,SurveyExpMetaMem,3.2.3,Win32,60
,,,,,,,,,,,,,,,,,,,,7,5.041000128,4,0.274000168,1,0,1200,1137,1,1199,knife,47617,2019-10-22_23h28.12.036,SurveyExpMetaMem,3.2.3,Win32,60
,,,,,,,,,,,,,,,,,,,,8,2.090000153,3,0.977999926,1,0,1200,1174,1,1199,beast,47617,2019-10-22_23h28.12.036,SurveyExpMetaMem,3.2.3,Win32,60
,,,,,,,,,,,,,,,,,,,,6,20.10000014,3,0.217000008,1,0,1200,913,1,1199,ulcer,47617,2019-10-22_23h28.12.036,SurveyExpMetaMem,3.2.3,Win32,60
,,,,,,,,,,,,,,,,,,,,8,1.423000097,8,0.218000174,1,0,1200,195,1,1199,laughing,47617,2019-10-22_23h28.12.036,SurveyExpMetaMem,3.2.3,Win32,60
,,,,,,,,,,,,,,,,,,,,6,5.036000252,4,0.23300004,1,0,1200,453,1,1199,prude,47617,2019-10-22_23h28.12.036,SurveyExpMetaMem,3.2.3,Win32,60
,,,,,,,,,,,,,,,,,,,,9,2.917999983,1,0.894000053,1,0,1200,1028,1,1199,terror,47617,2019-10-22_23h28.12.036,SurveyExpMetaMem,3.2.3,Win32,60
,,,,,,,,,,,,,,,,,,,,8,3.083000183,3,0.392000198,1,0,1200,457,1,1199,confuse,47617,2019-10-22_23h28.12.036,SurveyExpMetaMem,3.2.3,Win32,60
,,,,,,,,,,,,,,,,,,,,5,4.378000021,5,0.391000032,1,0,1200,875,1,1199,fluffy,47617,2019-10-22_23h28.12.036,SurveyExpMetaMem,3.2.3,Win32,60
,,,,,,,,,,,,,,,,,,,,8,2.589000225,2,0.42200017,1,0,1200,1100,1,1199,evil,47617,2019-10-22_23h28.12.036,SurveyExpMetaMem,3.2.3,Win32,60
,,,,,,,,,,,,,,,,,,,,5,1.302999973,5,0.217000008,1,0,1200,579,1,1199,bus,47617,2019-10-22_23h28.12.036,SurveyExpMetaMem,3.2.3,Win32,60
,,,,,,,,,,,,,,,,,,,,5,1.795000076,5,0.226000071,1,0,1200,580,1,1199,fur,47617,2019-10-22_23h28.12.036,SurveyExpMetaMem,3.2.3,Win32,60
,,,,,,,,,,,,,,,,,,,,3,18.12000012,3,0.243000031,1,0,1200,361,1,1199,glum,47617,2019-10-22_23h28.12.036,SurveyExpMetaMem,3.2.3,Win32,60
,,,,,,,,,,,,,,,,,,,,6,3.837000132,6,2.046000004,1,0,1200,202,1,1199,mercy,47617,2019-10-22_23h28.12.036,SurveyExpMetaMem,3.2.3,Win32,60
,,,,,,,,,,,,,,,,,,,,5,2.02699995,5,0.197000265,1,0,1200,742,1,1199,window,47617,2019-10-22_23h28.12.036,SurveyExpMetaMem,3.2.3,Win32,60
,,,,,,,,,,,,,,,,,,,,6,1.891000032,3,0.86500001,1,0,1200,1181,1,1199,blade,47617,2019-10-22_23h28.12.036,SurveyExpMetaMem,3.2.3,Win32,60
,,,,,,,,,,,,,,,,,,,,5,1.67599988,5,0.223000288,1,0,1200,677,1,1199,handwriting,47617,2019-10-22_23h28.12.036,SurveyExpMetaMem,3.2.3,Win32,60
,,,,,,,,,,,,,,,,,,,,6,3.035000086,4,1.390000105,1,0,1200,931,1,1199,overweight,47617,2019-10-22_23h28.12.036,SurveyExpMetaMem,3.2.3,Win32,60
,,,,,,,,,,,,,,,,,,,,7,1.976999998,3,1.588999987,1,0,1200,1163,1,1199,python,47617,2019-10-22_23h28.12.036,SurveyExpMetaMem,3.2.3,Win32,60
,,,,,,,,,,,,,,,,,,,,7,2.509000063,5,2.567000151,1,0,1200,108,1,1199,naked,47617,2019-10-22_23h28.12.036,SurveyExpMetaMem,3.2.3,Win32,60
,,,,,,,,,,,,,,,,,,,,8,4.310000181,8,0.255000114,1,0,1200,249,1,1199,award,47617,2019-10-22_23h28.12.036,SurveyExpMetaMem,3.2.3,Win32,60
,,,,,,,,,,,,,,,,,,,,5,1.433000088,5,0.236000061,1,0,1200,700,1,1199,frog,47617,2019-10-22_23h28.12.036,SurveyExpMetaMem,3.2.3,Win32,60
,,,,,,,,,,,,,,,,,,,,5,5.02699995,5,0.258000135,1,0,1200,652,1,1199,tend,47617,2019-10-22_23h28.12.036,SurveyExpMetaMem,3.2.3,Win32,60
,,,,,,,,,,,,,,,,,,,,7,3.143000126,6,0.275000095,1,0,1200,126,1,1199,rich,47617,2019-10-22_23h28.12.036,SurveyExpMetaMem,3.2.3,Win32,60
,,,,,,,,,,,,,,,,,,,,5,3.846999884,5,0.244000196,1,0,1200,736,1,1199,hawk,47617,2019-10-22_23h28.12.036,SurveyExpMetaMem,3.2.3,Win32,60
,,,,,,,,,,,,,,,,,,,,6,2.171000242,3,0.635000229,1,0,1200,985,1,1199,pollution,47617,2019-10-22_23h28.12.036,SurveyExpMetaMem,3.2.3,Win32,60
,,,,,,,,,,,,,,,,,,,,7,1.96600008,2,0.676000118,1,0,1200,1029,1,1199,abduction,47617,2019-10-22_23h28.12.036,SurveyExpMetaMem,3.2.3,Win32,60
,,,,,,,,,,,,,,,,,,,,5,2.052000046,5,0.397000074,1,0,1200,879,1,1199,bird,47617,2019-10-22_23h28.12.036,SurveyExpMetaMem,3.2.3,Win32,60
,,,,,,,,,,,,,,,,,,,,7,2.871999979,2,0.176000118,1,0,1200,973,1,1199,anger,47617,2019-10-22_23h28.12.036,SurveyExpMetaMem,3.2.3,Win32,60
,,,,,,,,,,,,,,,,,,,,6,3.767999887,4,0.207000017,1,0,1200,430,1,1199,cancel,47617,2019-10-22_23h28.12.036,SurveyExpMetaMem,3.2.3,Win32,60
,,,,,,,,,,,,,,,,,,,,6,4.71600008,6,0.703999996,1,0,1200,161,1,1199,limousine,47617,2019-10-22_23h28.12.036,SurveyExpMetaMem,3.2.3,Win32,60
,,,,,,,,,,,,,,,,,,,,6,4.069000006,4,0.118000031,1,0,1200,1193,1,1199,damn,47617,2019-10-22_23h28.12.036,SurveyExpMetaMem,3.2.3,Win32,60
,,,,,,,,,,,,,,,,,,,,6,3.468000174,6,0.322000027,1,0,1200,285,1,1199,gold,47617,2019-10-22_23h28.12.036,SurveyExpMetaMem,3.2.3,Win32,60
,,,,,,,,,,,,,,,,,,,,7,3.506999969,4,0.492000103,1,0,1200,1198,1,1199,lightning,47617,2019-10-22_23h28.12.036,SurveyExpMetaMem,3.2.3,Win32,60
,,,,,,,,,,,,,,,,,,,,5,6.57400012,4,0.35800004,1,0,1200,264,1,1199,thong,47617,2019-10-22_23h28.12.036,SurveyExpMetaMem,3.2.3,Win32,60
,,,,,,,,,,,,,,,,,,,,5,3.835000038,5,2.008000135,1,0,1200,659,1,1199,hair,47617,2019-10-22_23h28.12.036,SurveyExpMetaMem,3.2.3,Win32,60
,,,,,,,,,,,,,,,,,,,,7,2.504000187,3,0.315999985,1,0,1200,382,1,1199,vulnerable,47617,2019-10-22_23h28.12.036,SurveyExpMetaMem,3.2.3,Win32,60
,,,,,,,,,,,,,,,,,,,,5,1.919000149,5,0.204999924,1,0,1200,134,1,1199,dollar,47617,2019-10-22_23h28.12.036,SurveyExpMetaMem,3.2.3,Win32,60
,,,,,,,,,,,,,,,,,,,,4,4.215000153,6,1.210000038,1,0,1200,762,1,1199,orchestra,47617,2019-10-22_23h28.12.036,SurveyExpMetaMem,3.2.3,Win32,60
,,,,,,,,,,,,,,,,,,,,4,3.447999954,6,0.17200017,1,0,1200,600,1,1199,parlor,47617,2019-10-22_23h28.12.036,SurveyExpMetaMem,3.2.3,Win32,60
,,,,,,,,,,,,,,,,,,,,7,18.40200019,2,0.377000093,1,0,1200,560,1,1199,spurn,47617,2019-10-22_23h28.12.036,SurveyExpMetaMem,3.2.3,Win32,60
,,,,,,,,,,,,,,,,,,,,6,2.726000071,3,0.38800025,1,0,1200,335,1,1199,decay,47617,2019-10-22_23h28.12.036,SurveyExpMetaMem,3.2.3,Win32,60
,,,,,,,,,,,,,,,,,,,,5,1.760000229,5,0.440999985,1,0,1200,764,1,1199,coin,47617,2019-10-22_23h28.12.036,SurveyExpMetaMem,3.2.3,Win32,60
,,,,,,,,,,,,,,,,,,,,3,3.75600028,3,0.303999901,1,0,1200,490,1,1199,detached,47617,2019-10-22_23h28.12.036,SurveyExpMetaMem,3.2.3,Win32,60
,,,,,,,,,,,,,,,,,,,,7,4.698000193,4,2.836000204,1,0,1200,824,1,1199,favor,47617,2019-10-22_23h28.12.036,SurveyExpMetaMem,3.2.3,Win32,60
,,,,,,,,,,,,,,,,,,,,8,4.247999907,7,1.805999994,1,0,1200,15,1,1199,curiosity,47617,2019-10-22_23h28.12.036,SurveyExpMetaMem,3.2.3,Win32,60
,,,,,,,,,,,,,,,,,,,,6,7.273000002,6,0.361000061,1,0,1200,688,1,1199,jelly,47617,2019-10-22_23h28.12.036,SurveyExpMetaMem,3.2.3,Win32,60
,,,,,,,,,,,,,,,,,,,,7,2.407999992,2,0.241000175,1,0,1200,1002,1,1199,wounds,47617,2019-10-22_23h28.12.036,SurveyExpMetaMem,3.2.3,Win32,60
,,,,,,,,,,,,,,,,,,,,8,1.737000227,8,0.217999935,1,0,1200,48,1,1199,excellence,47617,2019-10-22_23h28.12.036,SurveyExpMetaMem,3.2.3,Win32,60
,,,,,,,,,,,,,,,,,,,,9,2.079999924,1,0.444000244,1,0,1200,944,1,1199,kill,47617,2019-10-22_23h28.12.036,SurveyExpMetaMem,3.2.3,Win32,60
,,,,,,,,,,,,,,,,,,,,7,15.27300024,2,1.721000195,1,0,1200,463,1,1199,limp,47617,2019-10-22_23h28.12.036,SurveyExpMetaMem,3.2.3,Win32,60
,,,,,,,,,,,,,,,,,,,,8,15.91599989,8,0.195000172,1,0,1200,2,1,1199,zealous,47617,2019-10-22_23h28.12.036,SurveyExpMetaMem,3.2.3,Win32,60
,,,,,,,,,,,,,,,,,,,,8,4.486999989,7,1.088999987,1,0,1200,205,1,1199,outspoken,47617,2019-10-22_23h28.12.036,SurveyExpMetaMem,3.2.3,Win32,60
,,,,,,,,,,,,,,,,,,,,4,3.017000198,6,1.53000021,1,0,1200,729,1,1199,velvet,47617,2019-10-22_23h28.12.036,SurveyExpMetaMem,3.2.3,Win32,60
,,,,,,,,,,,,,,,,,,,,3,5.892000198,7,0.453000069,1,0,1200,842,1,1199,breathe,47617,2019-10-22_23h28.12.036,SurveyExpMetaMem,3.2.3,Win32,60
,,,,,,,,,,,,,,,,,,,,6,5.104000092,6,0.295000076,1,0,1200,455,1,1199,chubby,47617,2019-10-22_23h28.12.036,SurveyExpMetaMem,3.2.3,Win32,60
,,,,,,,,,,,,,,,,,,,,8,1.670000315,8,0.194000006,1,0,1200,275,1,1199,brilliant,47617,2019-10-22_23h28.12.036,SurveyExpMetaMem,3.2.3,Win32,60
,,,,,,,,,,,,,,,,,,,,7,8.784000158,3,1.156000137,1,0,1200,534,1,1199,rules,47617,2019-10-22_23h28.12.036,SurveyExpMetaMem,3.2.3,Win32,60
,,,,,,,,,,,,,,,,,,,,5,1.563000202,5,0.191999912,1,0,1200,612,1,1199,propeller,47617,2019-10-22_23h28.12.036,SurveyExpMetaMem,3.2.3,Win32,60
,,,,,,,,,,,,,,,,,,,,6,4.920000076,4,0.388999939,1,0,1200,483,1,1199,condescension,47617,2019-10-22_23h28.12.036,SurveyExpMetaMem,3.2.3,Win32,60
,,,,,,,,,,,,,,,,,,,,6,9.413000107,4,0.650000095,1,0,1200,1186,1,1199,goddamn,47617,2019-10-22_23h28.12.036,SurveyExpMetaMem,3.2.3,Win32,60
,,,,,,,,,,,,,,,,,,,,5,4.451999903,5,0.215000153,1,0,1200,669,1,1199,plaza,47617,2019-10-22_23h28.12.036,SurveyExpMetaMem,3.2.3,Win32,60
,,,,,,,,,,,,,,,,,,,,6,4.041000128,4,0.641000032,1,0,1200,1025,1,1199,deadly,47617,2019-10-22_23h28.12.036,SurveyExpMetaMem,3.2.3,Win32,60
,,,,,,,,,,,,,,,,,,,,6,3.292000055,6,0.258000135,1,0,1200,67,1,1199,penthouse,47617,2019-10-22_23h28.12.036,SurveyExpMetaMem,3.2.3,Win32,60
,,,,,,,,,,,,,,,,,,,,5,4.373000145,5,0.255000114,1,0,1200,637,1,1199,flock,47617,2019-10-22_23h28.12.036,SurveyExpMetaMem,3.2.3,Win32,60
,,,,,,,,,,,,,,,,,,,,8,5.222000122,6,2.053000212,1,0,1200,1183,1,1199,emotional,47617,2019-10-22_23h28.12.036,SurveyExpMetaMem,3.2.3,Win32,60
,,,,,,,,,,,,,,,,,,,,7,11.63400006,3,0.57400012,1,0,1200,1128,1,1199,fighting,47617,2019-10-22_23h28.12.036,SurveyExpMetaMem,3.2.3,Win32,60
,,,,,,,,,,,,,,,,,,,,6,6.650000095,3,0.714999914,1,0,1200,377,1,1199,complain,47617,2019-10-22_23h28.12.036,SurveyExpMetaMem,3.2.3,Win32,60
,,,,,,,,,,,,,,,,,,,,3,4.004000187,3,0.288000107,1,0,1200,396,1,1199,unpopular,47617,2019-10-22_23h28.12.036,SurveyExpMetaMem,3.2.3,Win32,60
,,,,,,,,,,,,,,,,,,,,8,2.651000261,2,0.217000008,1,0,1200,997,1,1199,injury,47617,2019-10-22_23h28.12.036,SurveyExpMetaMem,3.2.3,Win32,60
,,,,,,,,,,,,,,,,,,,,5,1.443000078,5,0.180000067,1,0,1200,699,1,1199,leg,47617,2019-10-22_23h28.12.036,SurveyExpMetaMem,3.2.3,Win32,60
,,,,,,,,,,,,,,,,,,,,6,19.94800019,5,1.176000118,1,0,1200,619,1,1199,pulpit,47617,2019-10-22_23h28.12.036,SurveyExpMetaMem,3.2.3,Win32,60
,,,,,,,,,,,,,,,,,,,,5,24.4920001,4,0.214999914,1,0,1200,564,1,1199,wane,47617,2019-10-22_23h28.12.036,SurveyExpMetaMem,3.2.3,Win32,60
,,,,,,,,,,,,,,,,,,,,6,1.552000046,2,0.92599988,1,0,1200,1108,1,1199,spider,47617,2019-10-22_23h28.12.036,SurveyExpMetaMem,3.2.3,Win32,60
,,,,,,,,,,,,,,,,,,,,6,3.177999973,8,0.443000317,1,0,1200,877,1,1199,bless,47617,2019-10-22_23h28.12.036,SurveyExpMetaMem,3.2.3,Win32,60
,,,,,,,,,,,,,,,,,,,,7,1.940000057,3,0.605000257,1,0,1200,1192,1,1199,startled,47617,2019-10-22_23h28.12.036,SurveyExpMetaMem,3.2.3,Win32,60
,,,,,,,,,,,,,,,,,,,,7,1.693000078,3,1.20600009,1,0,1200,1011,1,1199,robber,47617,2019-10-22_23h28.12.036,SurveyExpMetaMem,3.2.3,Win32,60
,,,,,,,,,,,,,,,,,,,,8,2.703000069,2,0.955000162,1,0,1200,978,1,1199,starving,47617,2019-10-22_23h28.12.036,SurveyExpMetaMem,3.2.3,Win32,60
,,,,,,,,,,,,,,,,,,,,8,2.84100008,8,0.344000101,1,0,1200,92,1,1199,justice,47617,2019-10-22_23h28.12.036,SurveyExpMetaMem,3.2.3,Win32,60
,,,,,,,,,,,,,,,,,,,,8,1.468000174,2,1.006000042,1,0,1200,1031,1,1199,fear,47617,2019-10-22_23h28.12.036,SurveyExpMetaMem,3.2.3,Win32,60
,,,,,,,,,,,,,,,,,,,,7,38.41199994,4,0.131000042,1,0,1200,321,1,1199,wart,47617,2019-10-22_23h28.12.036,SurveyExpMetaMem,3.2.3,Win32,60
,,,,,,,,,,,,,,,,,,,,8,2.264000177,9,0.907999992,1,0,1200,36,1,1199,puppy,47617,2019-10-22_23h28.12.036,SurveyExpMetaMem,3.2.3,Win32,60
,,,,,,,,,,,,,,,,,,,,7,4.303000212,2,0.85800004,1,0,1200,390,1,1199,impair,47617,2019-10-22_23h28.12.036,SurveyExpMetaMem,3.2.3,Win32,60
,,,,,,,,,,,,,,,,,,,,5,3.852000237,5,0.217000246,1,0,1200,697,1,1199,clarinet,47617,2019-10-22_23h28.12.036,SurveyExpMetaMem,3.2.3,Win32,60
,,,,,,,,,,,,,,,,,,,,6,2.102999926,4,0.588000059,1,0,1200,523,1,1199,witch,47617,2019-10-22_23h28.12.036,SurveyExpMetaMem,3.2.3,Win32,60
,,,,,,,,,,,,,,,,,,,,8,1.937000275,4,3.51699996,1,0,1200,204,1,1199,crazy,47617,2019-10-22_23h28.12.036,SurveyExpMetaMem,3.2.3,Win32,60
,,,,,,,,,,,,,,,,,,,,3,3.739000082,8,1.752000093,1,0,1200,239,1,1199,compassionate,47617,2019-10-22_23h28.12.036,SurveyExpMetaMem,3.2.3,Win32,60
,,,,,,,,,,,,,,,,,,,,5,2.713999987,5,0.190999985,1,0,1200,504,1,1199,cane,47617,2019-10-22_23h28.12.036,SurveyExpMetaMem,3.2.3,Win32,60
,,,,,,,,,,,,,,,,,,,,5,1.486000299,5,0.205000162,1,0,1200,657,1,1199,peanut,47617,2019-10-22_23h28.12.036,SurveyExpMetaMem,3.2.3,Win32,60
,,,,,,,,,,,,,,,,,,,,6,2.437000036,7,0.221000195,1,0,1200,759,1,1199,prefer,47617,2019-10-22_23h28.12.036,SurveyExpMetaMem,3.2.3,Win32,60
,,,,,,,,,,,,,,,,,,,,8,1.838999987,8,1.822999954,1,0,1200,146,1,1199,congratulations,47617,2019-10-22_23h28.12.036,SurveyExpMetaMem,3.2.3,Win32,60
,,,,,,,,,,,,,,,,,,,,7,14.33900023,4,4.962000132,1,0,1200,1187,1,1199,drill,47617,2019-10-22_23h28.12.036,SurveyExpMetaMem,3.2.3,Win32,60
,,,,,,,,,,,,,,,,,,,,5,16.74699998,4,0.221000195,1,0,1200,501,1,1199,dustpan,47617,2019-10-22_23h28.12.036,SurveyExpMetaMem,3.2.3,Win32,60
,,,,,,,,,,,,,,,,,,,,6,1.984999895,4,0.39199996,1,0,1200,336,1,1199,wasteful,47617,2019-10-22_23h28.12.036,SurveyExpMetaMem,3.2.3,Win32,60
,,,,,,,,,,,,,,,,,,,,7,2.375,8,0.322000027,1,0,1200,865,1,1199,bliss,47617,2019-10-22_23h28.12.036,SurveyExpMetaMem,3.2.3,Win32,60
,,,,,,,,,,,,,,,,,,,,5,2.039999962,5,2.045000076,1,0,1200,529,1,1199,small,47617,2019-10-22_23h28.12.036,SurveyExpMetaMem,3.2.3,Win32,60
,,,,,,,,,,,,,,,,,,,,6,3.701000214,7,0.384000063,1,0,1200,858,1,1199,donate,47617,2019-10-22_23h28.12.036,SurveyExpMetaMem,3.2.3,Win32,60
,,,,,,,,,,,,,,,,,,,,5,3.820000172,6,2.488000154,1,0,1200,786,1,1199,afternoon,47617,2019-10-22_23h28.12.036,SurveyExpMetaMem,3.2.3,Win32,60
,,,,,,,,,,,,,,,,,,,,5,5.242000103,5,0.200999975,1,0,1200,220,1,1199,reef,47617,2019-10-22_23h28.12.036,SurveyExpMetaMem,3.2.3,Win32,60
,,,,,,,,,,,,,,,,,,,,7,4.342000246,6,0.605000019,1,0,1200,200,1,1199,preach,47617,2019-10-22_23h28.12.036,SurveyExpMetaMem,3.2.3,Win32,60
,,,,,,,,,,,,,,,,,,,,7,1.656000137,3,0.561000109,1,0,1200,957,1,1199,debt,47617,2019-10-22_23h28.12.036,SurveyExpMetaMem,3.2.3,Win32,60
,,,,,,,,,,,,,,,,,,,,7,2.042000055,3,1.260999918,1,0,1200,938,1,1199,seasick,47617,2019-10-22_23h28.12.036,SurveyExpMetaMem,3.2.3,Win32,60
,,,,,,,,,,,,,,,,,,,,7,24.53100014,4,0.592999935,1,0,1200,543,1,1199,gloat,47617,2019-10-22_23h28.12.036,SurveyExpMetaMem,3.2.3,Win32,60
,,,,,,,,,,,,,,,,,,,,5,2.373000145,5,1.346999884,1,0,1200,682,1,1199,camel,47617,2019-10-22_23h28.12.036,SurveyExpMetaMem,3.2.3,Win32,60
,,,,,,,,,,,,,,,,,,,,8,3.321000099,8,0.451999903,1,0,1200,139,1,1199,generosity,47617,2019-10-22_23h28.12.036,SurveyExpMetaMem,3.2.3,Win32,60
,,,,,,,,,,,,,,,,,,,,6,4.103000164,5,0.413000107,1,0,1200,745,1,1199,inform,47617,2019-10-22_23h28.12.036,SurveyExpMetaMem,3.2.3,Win32,60
,,,,,,,,,,,,,,,,,,,,7,3.289000034,4,0.427000046,1,0,1200,268,1,1199,tickle,47617,2019-10-22_23h28.12.036,SurveyExpMetaMem,3.2.3,Win32,60
,,,,,,,,,,,,,,,,,,,,9,15.66700006,9,0.266000032,1,0,1200,14,1,1199,attain,47617,2019-10-22_23h28.12.036,SurveyExpMetaMem,3.2.3,Win32,60
,,,,,,,,,,,,,,,,,,,,7,2.485000134,7,1.980000019,1,0,1200,660,1,1199,rock,47617,2019-10-22_23h28.12.036,SurveyExpMetaMem,3.2.3,Win32,60
,,,,,,,,,,,,,,,,,,,,5,2.39800024,7,0.554000139,1,0,1200,179,1,1199,star,47617,2019-10-22_23h28.12.036,SurveyExpMetaMem,3.2.3,Win32,60
,,,,,,,,,,,,,,,,,,,,5,2.604000092,5,0.210000038,1,0,1200,675,1,1199,golfer,47617,2019-10-22_23h28.12.036,SurveyExpMetaMem,3.2.3,Win32,60
,,,,,,,,,,,,,,,,,,,,5,3.243000269,6,0.271000147,1,0,1200,1195,1,1199,speech,47617,2019-10-22_23h28.12.036,SurveyExpMetaMem,3.2.3,Win32,60
,,,,,,,,,,,,,,,,,,,,8,3.170000076,1,0.139000177,1,0,1200,926,1,1199,dead,47617,2019-10-22_23h28.12.036,SurveyExpMetaMem,3.2.3,Win32,60
,,,,,,,,,,,,,,,,,,,,5,20.68799996,4,0.82400012,1,0,1200,460,1,1199,rag,47617,2019-10-22_23h28.12.036,SurveyExpMetaMem,3.2.3,Win32,60
,,,,,,,,,,,,,,,,,,,,5,1.923000097,5,0.291000128,1,0,1200,658,1,1199,method,47617,2019-10-22_23h28.12.036,SurveyExpMetaMem,3.2.3,Win32,60
,,,,,,,,,,,,,,,,,,,,6,3.942000151,3,0.454000235,1,0,1200,428,1,1199,end,47617,2019-10-22_23h28.12.036,SurveyExpMetaMem,3.2.3,Win32,60
,,,,,,,,,,,,,,,,,,,,5,3.352000237,6,0.511000156,1,0,1200,825,1,1199,swan,47617,2019-10-22_23h28.12.036,SurveyExpMetaMem,3.2.3,Win32,60
,,,,,,,,,,,,,,,,,,,,7,1.818000078,3,0.538000107,1,0,1200,968,1,1199,insult,47617,2019-10-22_23h28.12.036,SurveyExpMetaMem,3.2.3,Win32,60
,,,,,,,,,,,,,,,,,,,,5,11.43000007,5,0.195000172,1,0,1200,606,1,1199,easel,47617,2019-10-22_23h28.12.036,SurveyExpMetaMem,3.2.3,Win32,60
,,,,,,,,,,,,,,,,,,,,7,2.101000071,3,0.601000071,1,0,1200,1070,1,1199,bleed,47617,2019-10-22_23h28.12.036,SurveyExpMetaMem,3.2.3,Win32,60
,,,,,,,,,,,,,,,,,,,,8,2.968999863,8,0.414999962,1,0,1200,171,1,1199,imagination,47617,2019-10-22_23h28.12.036,SurveyExpMetaMem,3.2.3,Win32,60
,,,,,,,,,,,,,,,,,,,,4,9.134000063,6,0.355000257,1,0,1200,837,1,1199,responsible,47617,2019-10-22_23h28.12.036,SurveyExpMetaMem,3.2.3,Win32,60
,,,,,,,,,,,,,,,,,,,,8,3.764999866,8,0.261000156,1,0,1200,862,1,1199,ease,47617,2019-10-22_23h28.12.036,SurveyExpMetaMem,3.2.3,Win32,60
,,,,,,,,,,,,,,,,,,,,7,2.601999998,3,0.730000019,1,0,1200,1139,1,1199,scare,47617,2019-10-22_23h28.12.036,SurveyExpMetaMem,3.2.3,Win32,60
,,,,,,,,,,,,,,,,,,,,7,13.29600024,3,0.507999897,1,0,1200,312,1,1199,stench,47617,2019-10-22_23h28.12.036,SurveyExpMetaMem,3.2.3,Win32,60
,,,,,,,,,,,,,,,,,,,,3,3.635000229,3,0.756999969,1,0,1200,385,1,1199,tiresome,47617,2019-10-22_23h28.12.036,SurveyExpMetaMem,3.2.3,Win32,60
,,,,,,,,,,,,,,,,,,,,5,21.5250001,6,0.542000294,1,0,1200,728,1,1199,patio,47617,2019-10-22_23h28.12.036,SurveyExpMetaMem,3.2.3,Win32,60
,,,,,,,,,,,,,,,,,,,,6,3.286000013,3,0.592000246,1,0,1200,473,1,1199,senseless,47617,2019-10-22_23h28.12.036,SurveyExpMetaMem,3.2.3,Win32,60
,,,,,,,,,,,,,,,,,,,,5,2.045000315,5,0.282999992,1,0,1200,698,1,1199,oven,47617,2019-10-22_23h28.12.036,SurveyExpMetaMem,3.2.3,Win32,60
,,,,,,,,,,,,,,,,,,,,7,2.156000137,4,1.988000154,1,0,1200,1089,1,1199,ridicule,47617,2019-10-22_23h28.12.036,SurveyExpMetaMem,3.2.3,Win32,60
,,,,,,,,,,,,,,,,,,,,8,4.562999964,8,0.423000097,1,0,1200,240,1,1199,giggles,47617,2019-10-22_23h28.12.036,SurveyExpMetaMem,3.2.3,Win32,60
,,,,,,,,,,,,,,,,,,,,7,7.669000149,4,1.838000059,1,0,1200,462,1,1199,shallow,47617,2019-10-22_23h28.12.036,SurveyExpMetaMem,3.2.3,Win32,60
,,,,,,,,,,,,,,,,,,,,8,2.994999886,2,0.139000177,1,0,1200,1040,1,1199,communism,47617,2019-10-22_23h28.12.036,SurveyExpMetaMem,3.2.3,Win32,60
,,,,,,,,,,,,,,,,,,,,8,2.348999977,3,1.118000031,1,0,1200,983,1,1199,demonic,47617,2019-10-22_23h28.12.036,SurveyExpMetaMem,3.2.3,Win32,60
,,,,,,,,,,,,,,,,,,,,5,1.6650002,5,0.266000271,1,0,1200,815,1,1199,apple,47617,2019-10-22_23h28.12.036,SurveyExpMetaMem,3.2.3,Win32,60
,,,,,,,,,,,,,,,,,,,,7,15.03500009,4,0.440999985,1,0,1200,599,1,1199,obstinate,47617,2019-10-22_23h28.12.036,SurveyExpMetaMem,3.2.3,Win32,60
,,,,,,,,,,,,,,,,,,,,3,3.989000082,6,1.434000015,1,0,1200,643,1,1199,library,47617,2019-10-22_23h28.12.036,SurveyExpMetaMem,3.2.3,Win32,60
,,,,,,,,,,,,,,,,,,,,5,2.769000053,5,0.255000114,1,0,1200,647,1,1199,accord,47617,2019-10-22_23h28.12.036,SurveyExpMetaMem,3.2.3,Win32,60
,,,,,,,,,,,,,,,,,,,,5,3.281000137,6,0.525000095,1,0,1200,280,1,1199,cookout,47617,2019-10-22_23h28.12.036,SurveyExpMetaMem,3.2.3,Win32,60
,,,,,,,,,,,,,,,,,,,,6,24.53000021,3,0.273000002,1,0,1200,988,1,1199,deserter,47617,2019-10-22_23h28.12.036,SurveyExpMetaMem,3.2.3,Win32,60
,,,,,,,,,,,,,,,,,,,,8,1.817000151,8,0.244999886,1,0,1200,292,1,1199,birthday,47617,2019-10-22_23h28.12.036,SurveyExpMetaMem,3.2.3,Win32,60
,,,,,,,,,,,,,,,,,,,,7,6.850000143,6,0.261000156,1,0,1200,757,1,1199,sentiment,47617,2019-10-22_23h28.12.036,SurveyExpMetaMem,3.2.3,Win32,60
,,,,,,,,,,,,,,,,,,,,7,17.75300026,2,0.484999895,1,0,1200,522,1,1199,cleft,47617,2019-10-22_23h28.12.036,SurveyExpMetaMem,3.2.3,Win32,60
,,,,,,,,,,,,,,,,,,,,6,5.937000036,3,0.611000061,1,0,1200,413,1,1199,deficient,47617,2019-10-22_23h28.12.036,SurveyExpMetaMem,3.2.3,Win32,60
,,,,,,,,,,,,,,,,,,,,6,3.927000284,3,0.342000008,1,0,1200,1013,1,1199,guilty,47617,2019-10-22_23h28.12.036,SurveyExpMetaMem,3.2.3,Win32,60
,,,,,,,,,,,,,,,,,,,,7,2.842000008,3,0.268000126,1,0,1200,1112,1,1199,pressure,47617,2019-10-22_23h28.12.036,SurveyExpMetaMem,3.2.3,Win32,60
,,,,,,,,,,,,,,,,,,,,5,2.835000277,5,0.325000048,1,0,1200,710,1,1199,gender,47617,2019-10-22_23h28.12.036,SurveyExpMetaMem,3.2.3,Win32,60
,,,,,,,,,,,,,,,,,,,,7,3.06400013,8,0.770000219,1,0,1200,21,1,1199,game,47617,2019-10-22_23h28.12.036,SurveyExpMetaMem,3.2.3,Win32,60
,,,,,,,,,,,,,,,,,,,,8,6.493000031,8,0.605000019,1,0,1200,563,1,1199,stupor,47617,2019-10-22_23h28.12.036,SurveyExpMetaMem,3.2.3,Win32,60
,,,,,,,,,,,,,,,,,,,,4,5.059999943,4,0.426000118,1,0,1200,447,1,1199,dishes,47617,2019-10-22_23h28.12.036,SurveyExpMetaMem,3.2.3,Win32,60
,,,,,,,,,,,,,,,,,,,,7,2.054000139,3,0.978000164,1,0,1200,1106,1,1199,pushy,47617,2019-10-22_23h28.12.036,SurveyExpMetaMem,3.2.3,Win32,60
,,,,,,,,,,,,,,,,,,,,8,2.154000044,3,0.271000147,1,0,1200,1152,1,1199,scream,47617,2019-10-22_23h28.12.036,SurveyExpMetaMem,3.2.3,Win32,60
,,,,,,,,,,,,,,,,,,,,8,2.18599987,2,1.108999968,1,0,1200,943,1,1199,trauma,47617,2019-10-22_23h28.12.036,SurveyExpMetaMem,3.2.3,Win32,60
,,,,,,,,,,,,,,,,,,,,7,2.819000006,8,0.238000154,1,0,1200,16,1,1199,sing,47617,2019-10-22_23h28.12.036,SurveyExpMetaMem,3.2.3,Win32,60
,,,,,,,,,,,,,,,,,,,,7,5.802000046,8,0.273000002,1,0,1200,190,1,1199,rescue,47617,2019-10-22_23h28.12.036,SurveyExpMetaMem,3.2.3,Win32,60
,,,,,,,,,,,,,,,,,,,,5,1.479000092,5,0.269999981,1,0,1200,601,1,1199,roof,47617,2019-10-22_23h28.12.036,SurveyExpMetaMem,3.2.3,Win32,60
,,,,,,,,,,,,,,,,,,,,5,1.736999989,5,0.196000099,1,0,1200,716,1,1199,blouse,47617,2019-10-22_23h28.12.036,SurveyExpMetaMem,3.2.3,Win32,60
,,,,,,,,,,,,,,,,,,,,5,2.976000071,6,0.305000067,1,0,1200,634,1,1199,glacier,47617,2019-10-22_23h28.12.036,SurveyExpMetaMem,3.2.3,Win32,60
,,,,,,,,,,,,,,,,,,,,3,2.937000275,8,0.34100008,1,0,1200,880,1,1199,security,47617,2019-10-22_23h28.12.036,SurveyExpMetaMem,3.2.3,Win32,60
,,,,,,,,,,,,,,,,,,,,3,3.41899991,8,0.23300004,1,0,1200,857,1,1199,thankful,47617,2019-10-22_23h28.12.036,SurveyExpMetaMem,3.2.3,Win32,60
,,,,,,,,,,,,,,,,,,,,6,4.121000051,4,1.657999992,1,0,1200,167,1,1199,casino,47617,2019-10-22_23h28.12.036,SurveyExpMetaMem,3.2.3,Win32,60
,,,,,,,,,,,,,,,,,,,,5,1.427000046,5,0.210000038,1,0,1200,739,1,1199,seagull,47617,2019-10-22_23h28.12.036,SurveyExpMetaMem,3.2.3,Win32,60
,,,,,,,,,,,,,,,,,,,,5,1.905999899,5,0.196000099,1,0,1200,814,1,1199,dress,47617,2019-10-22_23h28.12.036,SurveyExpMetaMem,3.2.3,Win32,60
,,,,,,,,,,,,,,,,,,,,5,1.840000153,6,0.305000067,1,0,1200,12,1,1199,mountain,47617,2019-10-22_23h28.12.036,SurveyExpMetaMem,3.2.3,Win32,60
,,,,,,,,,,,,,,,,,,,,5,2.827000141,5,0.228000164,1,0,1200,661,1,1199,cow,47617,2019-10-22_23h28.12.036,SurveyExpMetaMem,3.2.3,Win32,60
,,,,,,,,,,,,,,,,,,,,5,2.662000179,5,0.496000051,1,0,1200,1091,1,1199,cram,47617,2019-10-22_23h28.12.036,SurveyExpMetaMem,3.2.3,Win32,60
,,,,,,,,,,,,,,,,,,,,5,1.749000072,6,0.539000034,1,0,1200,812,1,1199,harp,47617,2019-10-22_23h28.12.036,SurveyExpMetaMem,3.2.3,Win32,60
,,,,,,,,,,,,,,,,,,,,7,2.802000046,2,0.138000011,1,0,1200,1164,1,1199,battle,47617,2019-10-22_23h28.12.036,SurveyExpMetaMem,3.2.3,Win32,60
,,,,,,,,,,,,,,,,,,,,6,4.68900013,6,0.27699995,1,0,1200,690,1,1199,similar,47617,2019-10-22_23h28.12.036,SurveyExpMetaMem,3.2.3,Win32,60
,,,,,,,,,,,,,,,,,,,,3,3.082000017,6,0.205000162,1,0,1200,519,1,1199,listless,47617,2019-10-22_23h28.12.036,SurveyExpMetaMem,3.2.3,Win32,60
,,,,,,,,,,,,,,,,,,,,2,5.525000095,3,1.128000021,1,0,1200,409,1,1199,old,47617,2019-10-22_23h28.12.036,SurveyExpMetaMem,3.2.3,Win32,60
,,,,,,,,,,,,,,,,,,,,8,14.41300011,2,0.124000072,1,0,1200,993,1,1199,remorse,47617,2019-10-22_23h28.12.036,SurveyExpMetaMem,3.2.3,Win32,60
,,,,,,,,,,,,,,,,,,,,5,24.50000024,4,1.094000101,1,0,1200,375,1,1199,manure,47617,2019-10-22_23h28.12.036,SurveyExpMetaMem,3.2.3,Win32,60
,,,,,,,,,,,,,,,,,,,,6,4.236999989,4,2.742000103,1,0,1200,363,1,1199,dumb,47617,2019-10-22_23h28.12.036,SurveyExpMetaMem,3.2.3,Win32,60
,,,,,,,,,,,,,,,,,,,,8,2.647000074,1,1.611000061,1,0,1200,961,1,1199,crucify,47617,2019-10-22_23h28.12.036,SurveyExpMetaMem,3.2.3,Win32,60
,,,,,,,,,,,,,,,,,,,,6,3.409000158,4,1.430999994,1,0,1200,414,1,1199,pity,47617,2019-10-22_23h28.12.036,SurveyExpMetaMem,3.2.3,Win32,60
,,,,,,,,,,,,,,,,,,,,7,5.753000021,3,1.474999905,1,0,1200,1071,1,1199,uncomfortable,47617,2019-10-22_23h28.12.036,SurveyExpMetaMem,3.2.3,Win32,60
,,,,,,,,,,,,,,,,,,,,7,8.707000017,7,0.394000053,1,0,1200,129,1,1199,fly,47617,2019-10-22_23h28.12.036,SurveyExpMetaMem,3.2.3,Win32,60
,,,,,,,,,,,,,,,,,,,,7,2.230999947,3,0.890000105,1,0,1200,1039,1,1199,stalk,47617,2019-10-22_23h28.12.036,SurveyExpMetaMem,3.2.3,Win32,60
,,,,,,,,,,,,,,,,,,,,8,2.187000036,2,0.67200017,1,0,1200,905,1,1199,suffocate,47617,2019-10-22_23h28.12.036,SurveyExpMetaMem,3.2.3,Win32,60
,,,,,,,,,,,,,,,,,,,,7,5.101999998,7,0.595000029,1,0,1200,514,1,1199,defer,47617,2019-10-22_23h28.12.036,SurveyExpMetaMem,3.2.3,Win32,60
,,,,,,,,,,,,,,,,,,,,8,2.019000053,2,0.839000225,1,0,1200,977,1,1199,choke,47617,2019-10-22_23h28.12.036,SurveyExpMetaMem,3.2.3,Win32,60
,,,,,,,,,,,,,,,,,,,,5,3.549999952,6,0.299000263,1,0,1200,106,1,1199,voyage,47617,2019-10-22_23h28.12.036,SurveyExpMetaMem,3.2.3,Win32,60
,,,,,,,,,,,,,,,,,,,,7,18.40100026,7,0.936000109,1,0,1200,133,1,1199,prosperous,47617,2019-10-22_23h28.12.036,SurveyExpMetaMem,3.2.3,Win32,60
,,,,,,,,,,,,,,,,,,,,6,4.103000164,3,1.090000153,1,0,1200,524,1,1199,sigh,47617,2019-10-22_23h28.12.036,SurveyExpMetaMem,3.2.3,Win32,60
,,,,,,,,,,,,,,,,,,,,7,4.161000013,3,0.651000023,1,0,1200,989,1,1199,banish,47617,2019-10-22_23h28.12.036,SurveyExpMetaMem,3.2.3,Win32,60
,,,,,,,,,,,,,,,,,,,,7,2.330000162,3,0.82400012,1,0,1200,305,1,1199,frown,47617,2019-10-22_23h28.12.036,SurveyExpMetaMem,3.2.3,Win32,60
,,,,,,,,,,,,,,,,,,,,7,13.87700009,4,0.744999886,1,0,1200,351,1,1199,germs,47617,2019-10-22_23h28.12.036,SurveyExpMetaMem,3.2.3,Win32,60
,,,,,,,,,,,,,,,,,,,,7,20.95000005,2,0.621000051,1,0,1200,410,1,1199,tarnish,47617,2019-10-22_23h28.12.036,SurveyExpMetaMem,3.2.3,Win32,60
,,,,,,,,,,,,,,,,,,,,5,2.252000093,6,0.210999966,1,0,1200,107,1,1199,sandwich,47617,2019-10-22_23h28.12.036,SurveyExpMetaMem,3.2.3,Win32,60
,,,,,,,,,,,,,,,,,,,,7,2.649000168,3,0.137000084,1,0,1200,1001,1,1199,rude,47617,2019-10-22_23h28.12.036,SurveyExpMetaMem,3.2.3,Win32,60
,,,,,,,,,,,,,,,,,,,,4,19.16100025,8,0.171000004,1,0,1200,638,1,1199,quench,47617,2019-10-22_23h28.12.036,SurveyExpMetaMem,3.2.3,Win32,60
,,,,,,,,,,,,,,,,,,,,5,2.588000059,6,0.282000065,1,0,1200,695,1,1199,teacher,47617,2019-10-22_23h28.12.036,SurveyExpMetaMem,3.2.3,Win32,60
,,,,,,,,,,,,,,,,,,,,7,18.10599995,3,0.151000261,1,0,1200,1138,1,1199,wail,47617,2019-10-22_23h28.12.036,SurveyExpMetaMem,3.2.3,Win32,60
,,,,,,,,,,,,,,,,,,,,6,6.67200017,4,0.397000074,1,0,1200,1102,1,1199,nuclear,47617,2019-10-22_23h28.12.036,SurveyExpMetaMem,3.2.3,Win32,60
,,,,,,,,,,,,,,,,,,,,8,1.80700016,2,0.25600028,1,0,1200,1033,1,1199,horror,47617,2019-10-22_23h28.12.036,SurveyExpMetaMem,3.2.3,Win32,60
,,,,,,,,,,,,,,,,,,,,6,4.709000111,6,0.340000153,1,0,1200,719,1,1199,western,47617,2019-10-22_23h28.12.036,SurveyExpMetaMem,3.2.3,Win32,60
