mouse_4.x,mouse_4.y,mouse_4.leftButton,mouse_4.midButton,mouse_4.rightButton,mouse.x,mouse.y,mouse.leftButton,mouse.midButton,mouse.rightButton,mouse_2.x,mouse_2.y,mouse_2.leftButton,mouse_2.midButton,mouse_2.rightButton,mouse_3.x,mouse_3.y,mouse_3.leftButton,mouse_3.midButton,mouse_3.rightButton,A_key_resp.keys,A_key_resp.rt,key_resp.keys,key_resp.rt,trials.thisRepN,trials.thisTrialN,trials.thisN,trials.thisIndex,trials.ran,trials.order,word,ParticipantID,date,expName,psychopyVersion,OS,frameRate
0.887962963,-0.016666667,1,0,0,0.887962963,-0.016666667,1,0,0,0.887962963,0.123148148,1,0,0,0.771296296,0.082407407,1,0,0,2,6.271999836,3,3.167999983,1,0,1200,385,1,1199,tiresome,11134,2019-10-24_17h39.50.987,SurveyExpMetaMem,3.2.3,Win32,60
,,,,,,,,,,,,,,,,,,,,4,7.602999926,2,4.186999798,1,0,1200,916,1,1199,starvation,11134,2019-10-24_17h39.50.987,SurveyExpMetaMem,3.2.3,Win32,60
,,,,,,,,,,,,,,,,,,,,6,9.937000036,1,1.437999964,1,0,1200,1165,1,1199,revolt,11134,2019-10-24_17h39.50.987,SurveyExpMetaMem,3.2.3,Win32,60
,,,,,,,,,,,,,,,,,,,,3,3.172999859,6,2.069000006,1,0,1200,728,1,1199,patio,11134,2019-10-24_17h39.50.987,SurveyExpMetaMem,3.2.3,Win32,60
,,,,,,,,,,,,,,,,,,,,2,5.036999941,8,1.588000059,1,0,1200,283,1,1199,elated,11134,2019-10-24_17h39.50.987,SurveyExpMetaMem,3.2.3,Win32,60
,,,,,,,,,,,,,,,,,,,,6,10.69799995,1,1.508000135,1,0,1200,341,1,1199,stinky,11134,2019-10-24_17h39.50.987,SurveyExpMetaMem,3.2.3,Win32,60
,,,,,,,,,,,,,,,,,,,,7,9.073999882,4,2.107000113,1,0,1200,1178,1,1199,weight,11134,2019-10-24_17h39.50.987,SurveyExpMetaMem,3.2.3,Win32,60
,,,,,,,,,,,,,,,,,,,,6,7.206999779,3,2.086999893,1,0,1200,1164,1,1199,battle,11134,2019-10-24_17h39.50.987,SurveyExpMetaMem,3.2.3,Win32,60
,,,,,,,,,,,,,,,,,,,,5,4.072999954,4,3.402999878,1,0,1200,569,1,1199,onion,11134,2019-10-24_17h39.50.987,SurveyExpMetaMem,3.2.3,Win32,60
,,,,,,,,,,,,,,,,,,,,7,4.052999735,9,1.421999931,1,0,1200,39,1,1199,birth,11134,2019-10-24_17h39.50.987,SurveyExpMetaMem,3.2.3,Win32,60
,,,,,,,,,,,,,,,,,,,,4,2.553999901,8,1.35199976,1,0,1200,887,1,1199,elegant,11134,2019-10-24_17h39.50.987,SurveyExpMetaMem,3.2.3,Win32,60
,,,,,,,,,,,,,,,,,,,,6,10.25199986,1,2.341999769,1,0,1200,449,1,1199,egotistical,11134,2019-10-24_17h39.50.987,SurveyExpMetaMem,3.2.3,Win32,60
,,,,,,,,,,,,,,,,,,,,8,5.137999773,7,3.64199996,1,0,1200,244,1,1199,sexy,11134,2019-10-24_17h39.50.987,SurveyExpMetaMem,3.2.3,Win32,60
,,,,,,,,,,,,,,,,,,,,5,3.816999912,5,1.005000114,1,0,1200,834,1,1199,crown,11134,2019-10-24_17h39.50.987,SurveyExpMetaMem,3.2.3,Win32,60
,,,,,,,,,,,,,,,,,,,,8,2.68599987,3,4.01699996,1,0,1200,1130,1,1199,slut,11134,2019-10-24_17h39.50.987,SurveyExpMetaMem,3.2.3,Win32,60
,,,,,,,,,,,,,,,,,,,,3,4.627000093,8,3.944000006,1,0,1200,610,1,1199,miniature,11134,2019-10-24_17h39.50.987,SurveyExpMetaMem,3.2.3,Win32,60
,,,,,,,,,,,,,,,,,,,,8,3.986000061,1,1.108999968,1,0,1200,1037,1,1199,scared,11134,2019-10-24_17h39.50.987,SurveyExpMetaMem,3.2.3,Win32,60
,,,,,,,,,,,,,,,,,,,,1,1.469000101,9,1.02699995,1,0,1200,237,1,1199,beautiful,11134,2019-10-24_17h39.50.987,SurveyExpMetaMem,3.2.3,Win32,60
,,,,,,,,,,,,,,,,,,,,6,4.031999826,9,1.526999712,1,0,1200,296,1,1199,awesome,11134,2019-10-24_17h39.50.987,SurveyExpMetaMem,3.2.3,Win32,60
,,,,,,,,,,,,,,,,,,,,7,4.18599987,8,1.890000105,1,0,1200,242,1,1199,triumph,11134,2019-10-24_17h39.50.987,SurveyExpMetaMem,3.2.3,Win32,60
,,,,,,,,,,,,,,,,,,,,5,5.363999844,7,2.920999765,1,0,1200,689,1,1199,land,11134,2019-10-24_17h39.50.987,SurveyExpMetaMem,3.2.3,Win32,60
,,,,,,,,,,,,,,,,,,,,8,3.151999712,1,0.934999943,1,0,1200,979,1,1199,harassment,11134,2019-10-24_17h39.50.987,SurveyExpMetaMem,3.2.3,Win32,60
,,,,,,,,,,,,,,,,,,,,7,2.556999922,9,2.032999992,1,0,1200,175,1,1199,playground,11134,2019-10-24_17h39.50.987,SurveyExpMetaMem,3.2.3,Win32,60
,,,,,,,,,,,,,,,,,,,,5,4.16899991,2,1.605000019,1,0,1200,462,1,1199,shallow,11134,2019-10-24_17h39.50.987,SurveyExpMetaMem,3.2.3,Win32,60
,,,,,,,,,,,,,,,,,,,,4,3.343999863,5,3.601999998,1,0,1200,966,1,1199,regretful,11134,2019-10-24_17h39.50.987,SurveyExpMetaMem,3.2.3,Win32,60
,,,,,,,,,,,,,,,,,,,,5,4.335999966,5,2.428999901,1,0,1200,278,1,1199,king,11134,2019-10-24_17h39.50.987,SurveyExpMetaMem,3.2.3,Win32,60
,,,,,,,,,,,,,,,,,,,,7,4.387999773,2,4.437999964,1,0,1200,364,1,1199,stink,11134,2019-10-24_17h39.50.987,SurveyExpMetaMem,3.2.3,Win32,60
,,,,,,,,,,,,,,,,,,,,8,6.155999899,5,3.406000137,1,0,1200,1032,1,1199,exam,11134,2019-10-24_17h39.50.987,SurveyExpMetaMem,3.2.3,Win32,60
,,,,,,,,,,,,,,,,,,,,5,2.258999825,6,2.677999973,1,0,1200,675,1,1199,golfer,11134,2019-10-24_17h39.50.987,SurveyExpMetaMem,3.2.3,Win32,60
,,,,,,,,,,,,,,,,,,,,3,6.429999828,7,2.407999754,1,0,1200,729,1,1199,velvet,11134,2019-10-24_17h39.50.987,SurveyExpMetaMem,3.2.3,Win32,60
,,,,,,,,,,,,,,,,,,,,3,5.70299983,7,2.29399991,1,0,1200,672,1,1199,ketchup,11134,2019-10-24_17h39.50.987,SurveyExpMetaMem,3.2.3,Win32,60
,,,,,,,,,,,,,,,,,,,,9,5.16899991,1,2.036999941,1,0,1200,373,1,1199,ignorance,11134,2019-10-24_17h39.50.987,SurveyExpMetaMem,3.2.3,Win32,60
,,,,,,,,,,,,,,,,,,,,6,4.905999899,2,2.347999811,1,0,1200,1002,1,1199,wounds,11134,2019-10-24_17h39.50.987,SurveyExpMetaMem,3.2.3,Win32,60
,,,,,,,,,,,,,,,,,,,,7,5.12899971,4,5.437999964,1,0,1200,204,1,1199,crazy,11134,2019-10-24_17h39.50.987,SurveyExpMetaMem,3.2.3,Win32,60
,,,,,,,,,,,,,,,,,,,,5,2.101999998,7,1.636999846,1,0,1200,666,1,1199,verify,11134,2019-10-24_17h39.50.987,SurveyExpMetaMem,3.2.3,Win32,60
,,,,,,,,,,,,,,,,,,,,2,5.552999973,5,4.322000027,1,0,1200,855,1,1199,girl,11134,2019-10-24_17h39.50.987,SurveyExpMetaMem,3.2.3,Win32,60
,,,,,,,,,,,,,,,,,,,,8,3.587999821,8,3.725999832,1,0,1200,82,1,1199,stunning,11134,2019-10-24_17h39.50.987,SurveyExpMetaMem,3.2.3,Win32,60
,,,,,,,,,,,,,,,,,,,,5,3.305999756,5,2.169999838,1,0,1200,339,1,1199,chore,11134,2019-10-24_17h39.50.987,SurveyExpMetaMem,3.2.3,Win32,60
,,,,,,,,,,,,,,,,,,,,6,4.55099988,3,4.428999901,1,0,1200,200,1,1199,preach,11134,2019-10-24_17h39.50.987,SurveyExpMetaMem,3.2.3,Win32,60
,,,,,,,,,,,,,,,,,,,,8,3.536000013,1,1.464999914,1,0,1200,308,1,1199,worthless,11134,2019-10-24_17h39.50.987,SurveyExpMetaMem,3.2.3,Win32,60
,,,,,,,,,,,,,,,,,,,,2,6.132999897,9,2.503999949,1,0,1200,832,1,1199,candy,11134,2019-10-24_17h39.50.987,SurveyExpMetaMem,3.2.3,Win32,60
,,,,,,,,,,,,,,,,,,,,4,4.756999969,6,8.325999975,1,0,1200,127,1,1199,glamorous,11134,2019-10-24_17h39.50.987,SurveyExpMetaMem,3.2.3,Win32,60
,,,,,,,,,,,,,,,,,,,,8,3.530999899,9,1.540999889,1,0,1200,19,1,1199,firefighter,11134,2019-10-24_17h39.50.987,SurveyExpMetaMem,3.2.3,Win32,60
,,,,,,,,,,,,,,,,,,,,5,2.888000011,6,2.256000042,1,0,1200,713,1,1199,mobile,11134,2019-10-24_17h39.50.987,SurveyExpMetaMem,3.2.3,Win32,60
,,,,,,,,,,,,,,,,,,,,7,2.707000017,8,7.619999886,1,0,1200,155,1,1199,ignite,11134,2019-10-24_17h39.50.987,SurveyExpMetaMem,3.2.3,Win32,60
,,,,,,,,,,,,,,,,,,,,2,5.80099988,7,1.953000069,1,0,1200,812,1,1199,harp,11134,2019-10-24_17h39.50.987,SurveyExpMetaMem,3.2.3,Win32,60
,,,,,,,,,,,,,,,,,,,,3,4.069000006,8,3.138999939,1,0,1200,87,1,1199,cookie,11134,2019-10-24_17h39.50.987,SurveyExpMetaMem,3.2.3,Win32,60
,,,,,,,,,,,,,,,,,,,,4,2.902999878,7,2.005000114,1,0,1200,640,1,1199,cabin,11134,2019-10-24_17h39.50.987,SurveyExpMetaMem,3.2.3,Win32,60
,,,,,,,,,,,,,,,,,,,,4,3.872999907,6,2.278000116,1,0,1200,793,1,1199,virtue,11134,2019-10-24_17h39.50.987,SurveyExpMetaMem,3.2.3,Win32,60
,,,,,,,,,,,,,,,,,,,,7,3.700999975,5,4.690999985,1,0,1200,1132,1,1199,anarchy,11134,2019-10-24_17h39.50.987,SurveyExpMetaMem,3.2.3,Win32,60
,,,,,,,,,,,,,,,,,,,,2,5.353999853,5,3.082000017,1,0,1200,454,1,1199,damp,11134,2019-10-24_17h39.50.987,SurveyExpMetaMem,3.2.3,Win32,60
,,,,,,,,,,,,,,,,,,,,1,3.843999863,8,2.190999985,1,0,1200,859,1,1199,serene,11134,2019-10-24_17h39.50.987,SurveyExpMetaMem,3.2.3,Win32,60
,,,,,,,,,,,,,,,,,,,,7,4.072999716,1,3.385999918,1,0,1200,961,1,1199,crucify,11134,2019-10-24_17h39.50.987,SurveyExpMetaMem,3.2.3,Win32,60
,,,,,,,,,,,,,,,,,,,,5,3.252000093,6,0.963999987,1,0,1200,719,1,1199,western,11134,2019-10-24_17h39.50.987,SurveyExpMetaMem,3.2.3,Win32,60
,,,,,,,,,,,,,,,,,,,,3,2.893999815,6,3.239999771,1,0,1200,830,1,1199,pear,11134,2019-10-24_17h39.50.987,SurveyExpMetaMem,3.2.3,Win32,60
,,,,,,,,,,,,,,,,,,,,1,3.183000088,5,4.90899992,1,0,1200,741,1,1199,wheat,11134,2019-10-24_17h39.50.987,SurveyExpMetaMem,3.2.3,Win32,60
,,,,,,,,,,,,,,,,,,,,4,11.1559999,2,4.885999918,1,0,1200,393,1,1199,droop,11134,2019-10-24_17h39.50.987,SurveyExpMetaMem,3.2.3,Win32,60
,,,,,,,,,,,,,,,,,,,,7,5.286000013,8,4.410000086,1,0,1200,64,1,1199,brain,11134,2019-10-24_17h39.50.987,SurveyExpMetaMem,3.2.3,Win32,60
,,,,,,,,,,,,,,,,,,,,7,4.026999712,3,3.512999773,1,0,1200,1113,1,1199,dagger,11134,2019-10-24_17h39.50.987,SurveyExpMetaMem,3.2.3,Win32,60
,,,,,,,,,,,,,,,,,,,,8,5.957999945,7,3.04399991,1,0,1200,160,1,1199,reunion,11134,2019-10-24_17h39.50.987,SurveyExpMetaMem,3.2.3,Win32,60
,,,,,,,,,,,,,,,,,,,,3,6.70600009,5,4.359999895,1,0,1200,621,1,1199,chew,11134,2019-10-24_17h39.50.987,SurveyExpMetaMem,3.2.3,Win32,60
,,,,,,,,,,,,,,,,,,,,7,6.204999924,5,6.444999933,1,0,1200,102,1,1199,motorcycle,11134,2019-10-24_17h39.50.987,SurveyExpMetaMem,3.2.3,Win32,60
,,,,,,,,,,,,,,,,,,,,8,2.996999979,7,3.780999899,1,0,1200,8,1,1199,extreme,11134,2019-10-24_17h39.50.987,SurveyExpMetaMem,3.2.3,Win32,60
,,,,,,,,,,,,,,,,,,,,6,6.268999815,3,3.504999876,1,0,1200,1078,1,1199,trouble,11134,2019-10-24_17h39.50.987,SurveyExpMetaMem,3.2.3,Win32,60
,,,,,,,,,,,,,,,,,,,,5,4.089999914,3,6.996999979,1,0,1200,570,1,1199,muddy,11134,2019-10-24_17h39.50.987,SurveyExpMetaMem,3.2.3,Win32,60
,,,,,,,,,,,,,,,,,,,,8,2.875999928,9,2.432999849,1,0,1200,194,1,1199,celebration,11134,2019-10-24_17h39.50.987,SurveyExpMetaMem,3.2.3,Win32,60
,,,,,,,,,,,,,,,,,,,,2,2.722999811,2,2.571000099,1,0,1200,559,1,1199,lazy,11134,2019-10-24_17h39.50.987,SurveyExpMetaMem,3.2.3,Win32,60
,,,,,,,,,,,,,,,,,,,,5,3.8349998,5,3.121999979,1,0,1200,250,1,1199,erupt,11134,2019-10-24_17h39.50.987,SurveyExpMetaMem,3.2.3,Win32,60
,,,,,,,,,,,,,,,,,,,,1,3.190999985,8,1.46999979,1,0,1200,880,1,1199,security,11134,2019-10-24_17h39.50.987,SurveyExpMetaMem,3.2.3,Win32,60
,,,,,,,,,,,,,,,,,,,,6,7.253999949,5,3,1,0,1200,638,1,1199,quench,11134,2019-10-24_17h39.50.987,SurveyExpMetaMem,3.2.3,Win32,60
,,,,,,,,,,,,,,,,,,,,6,6.656999826,1,2.353999853,1,0,1200,925,1,1199,disloyal,11134,2019-10-24_17h39.50.987,SurveyExpMetaMem,3.2.3,Win32,60
,,,,,,,,,,,,,,,,,,,,6,4.928999901,4,3.789000034,1,0,1200,1063,1,1199,quarrel,11134,2019-10-24_17h39.50.987,SurveyExpMetaMem,3.2.3,Win32,60
,,,,,,,,,,,,,,,,,,,,6,3.832000017,1,1.907999992,1,0,1200,365,1,1199,discouraged,11134,2019-10-24_17h39.50.987,SurveyExpMetaMem,3.2.3,Win32,60
,,,,,,,,,,,,,,,,,,,,5,1.554999828,5,0.796000004,1,0,1200,662,1,1199,bib,11134,2019-10-24_17h39.50.987,SurveyExpMetaMem,3.2.3,Win32,60
,,,,,,,,,,,,,,,,,,,,7,6.401000023,2,2.549000025,1,0,1200,357,1,1199,whine,11134,2019-10-24_17h39.50.987,SurveyExpMetaMem,3.2.3,Win32,60
,,,,,,,,,,,,,,,,,,,,1,1.659999847,9,1.386999846,1,0,1200,878,1,1199,sleep,11134,2019-10-24_17h39.50.987,SurveyExpMetaMem,3.2.3,Win32,60
,,,,,,,,,,,,,,,,,,,,8,2.34499979,2,3.061999798,1,0,1200,958,1,1199,traitor,11134,2019-10-24_17h39.50.987,SurveyExpMetaMem,3.2.3,Win32,60
,,,,,,,,,,,,,,,,,,,,7,3.31799984,2,4.075999975,1,0,1200,1151,1,1199,drama,11134,2019-10-24_17h39.50.987,SurveyExpMetaMem,3.2.3,Win32,60
,,,,,,,,,,,,,,,,,,,,8,4.06799984,1,1.526000023,1,0,1200,346,1,1199,alcoholism,11134,2019-10-24_17h39.50.987,SurveyExpMetaMem,3.2.3,Win32,60
,,,,,,,,,,,,,,,,,,,,6,3.922999859,3,3.610999823,1,0,1200,1016,1,1199,awful,11134,2019-10-24_17h39.50.987,SurveyExpMetaMem,3.2.3,Win32,60
,,,,,,,,,,,,,,,,,,,,5,9.30099988,5,1.888999939,1,0,1200,506,1,1199,lower,11134,2019-10-24_17h39.50.987,SurveyExpMetaMem,3.2.3,Win32,60
,,,,,,,,,,,,,,,,,,,,4,7.674000025,8,3.171000004,1,0,1200,149,1,1199,loved,11134,2019-10-24_17h39.50.987,SurveyExpMetaMem,3.2.3,Win32,60
,,,,,,,,,,,,,,,,,,,,1,3.273999929,9,2.649999857,1,0,1200,294,1,1199,confident,11134,2019-10-24_17h39.50.987,SurveyExpMetaMem,3.2.3,Win32,60
,,,,,,,,,,,,,,,,,,,,5,4.405999899,5,1.135999918,1,0,1200,111,1,1199,band,11134,2019-10-24_17h39.50.987,SurveyExpMetaMem,3.2.3,Win32,60
,,,,,,,,,,,,,,,,,,,,7,4.112999916,2,3.921999931,1,0,1200,1121,1,1199,ban,11134,2019-10-24_17h39.50.987,SurveyExpMetaMem,3.2.3,Win32,60
,,,,,,,,,,,,,,,,,,,,5,2.284999847,7,4.687000036,1,0,1200,655,1,1199,name,11134,2019-10-24_17h39.50.987,SurveyExpMetaMem,3.2.3,Win32,60
,,,,,,,,,,,,,,,,,,,,2,2.792000055,7,4.636999846,1,0,1200,783,1,1199,sprinkle,11134,2019-10-24_17h39.50.987,SurveyExpMetaMem,3.2.3,Win32,60
,,,,,,,,,,,,,,,,,,,,6,6.699999809,8,3.107999802,1,0,1200,187,1,1199,excite,11134,2019-10-24_17h39.50.987,SurveyExpMetaMem,3.2.3,Win32,60
,,,,,,,,,,,,,,,,,,,,3,4.121999741,3,3.803999901,1,0,1200,436,1,1199,mediocre,11134,2019-10-24_17h39.50.987,SurveyExpMetaMem,3.2.3,Win32,60
,,,,,,,,,,,,,,,,,,,,5,4.958999872,5,4.842999935,1,0,1200,654,1,1199,brief,11134,2019-10-24_17h39.50.987,SurveyExpMetaMem,3.2.3,Win32,60
,,,,,,,,,,,,,,,,,,,,8,2.062000036,9,1.213999987,1,0,1200,292,1,1199,birthday,11134,2019-10-24_17h39.50.987,SurveyExpMetaMem,3.2.3,Win32,60
,,,,,,,,,,,,,,,,,,,,6,3.41899991,1,1.85800004,1,0,1200,425,1,1199,crutch,11134,2019-10-24_17h39.50.987,SurveyExpMetaMem,3.2.3,Win32,60
,,,,,,,,,,,,,,,,,,,,8,2.555999994,1,1.054999828,1,0,1200,1048,1,1199,paranoid,11134,2019-10-24_17h39.50.987,SurveyExpMetaMem,3.2.3,Win32,60
,,,,,,,,,,,,,,,,,,,,1,1.713999987,9,1.329999924,1,0,1200,36,1,1199,puppy,11134,2019-10-24_17h39.50.987,SurveyExpMetaMem,3.2.3,Win32,60
,,,,,,,,,,,,,,,,,,,,8,7.796000004,1,1.029999971,1,0,1200,957,1,1199,debt,11134,2019-10-24_17h39.50.987,SurveyExpMetaMem,3.2.3,Win32,60
,,,,,,,,,,,,,,,,,,,,3,3.912999868,6,1.441999912,1,0,1200,645,1,1199,telescope,11134,2019-10-24_17h39.50.987,SurveyExpMetaMem,3.2.3,Win32,60
,,,,,,,,,,,,,,,,,,,,7,2.786000013,9,4.960999966,1,0,1200,297,1,1199,pleasure,11134,2019-10-24_17h39.50.987,SurveyExpMetaMem,3.2.3,Win32,60
,,,,,,,,,,,,,,,,,,,,5,3.563999891,3,4.957000017,1,0,1200,477,1,1199,separate,11134,2019-10-24_17h39.50.987,SurveyExpMetaMem,3.2.3,Win32,60
,,,,,,,,,,,,,,,,,,,,4,4.627000093,7,3.049000025,1,0,1200,709,1,1199,ancestor,11134,2019-10-24_17h39.50.987,SurveyExpMetaMem,3.2.3,Win32,60
,,,,,,,,,,,,,,,,,,,,1,4.871999979,1,2.753000021,1,0,1200,401,1,1199,feeble,11134,2019-10-24_17h39.50.987,SurveyExpMetaMem,3.2.3,Win32,60
,,,,,,,,,,,,,,,,,,,,4,3.957999945,6,1.477999926,1,0,1200,782,1,1199,open,11134,2019-10-24_17h39.50.987,SurveyExpMetaMem,3.2.3,Win32,60
,,,,,,,,,,,,,,,,,,,,3,2.855999947,8,2.603999853,1,0,1200,235,1,1199,cheery,11134,2019-10-24_17h39.50.987,SurveyExpMetaMem,3.2.3,Win32,60
,,,,,,,,,,,,,,,,,,,,6,11.04399991,6,4.631999969,1,0,1200,137,1,1199,money,11134,2019-10-24_17h39.50.987,SurveyExpMetaMem,3.2.3,Win32,60
,,,,,,,,,,,,,,,,,,,,5,2.138999939,5,1.56099987,1,0,1200,575,1,1199,paragraph,11134,2019-10-24_17h39.50.987,SurveyExpMetaMem,3.2.3,Win32,60
,,,,,,,,,,,,,,,,,,,,1,2.602999926,8,1.522000074,1,0,1200,751,1,1199,listen,11134,2019-10-24_17h39.50.987,SurveyExpMetaMem,3.2.3,Win32,60
,,,,,,,,,,,,,,,,,,,,2,1.753999949,6,2.055999994,1,0,1200,213,1,1199,fair,11134,2019-10-24_17h39.50.987,SurveyExpMetaMem,3.2.3,Win32,60
,,,,,,,,,,,,,,,,,,,,6,6.718999863,3,3.743000031,1,0,1200,535,1,1199,ramble,11134,2019-10-24_17h39.50.987,SurveyExpMetaMem,3.2.3,Win32,60
,,,,,,,,,,,,,,,,,,,,5,1.990999937,5,0.287999868,1,0,1200,514,1,1199,defer,11134,2019-10-24_17h39.50.987,SurveyExpMetaMem,3.2.3,Win32,60
,,,,,,,,,,,,,,,,,,,,6,8.710999966,8,3.95299983,1,0,1200,120,1,1199,imaginative,11134,2019-10-24_17h39.50.987,SurveyExpMetaMem,3.2.3,Win32,60
,,,,,,,,,,,,,,,,,,,,5,3.538999796,5,13.7349999,1,0,1200,794,1,1199,pray,11134,2019-10-24_17h39.50.987,SurveyExpMetaMem,3.2.3,Win32,60
,,,,,,,,,,,,,,,,,,,,6,4.941999912,4,2.608999968,1,0,1200,1193,1,1199,damn,11134,2019-10-24_17h39.50.987,SurveyExpMetaMem,3.2.3,Win32,60
,,,,,,,,,,,,,,,,,,,,3,8.230000019,4,3.951999903,1,0,1200,710,1,1199,gender,11134,2019-10-24_17h39.50.987,SurveyExpMetaMem,3.2.3,Win32,60
,,,,,,,,,,,,,,,,,,,,7,5.718999863,1,1.392999887,1,0,1200,358,1,1199,waste,11134,2019-10-24_17h39.50.987,SurveyExpMetaMem,3.2.3,Win32,60
,,,,,,,,,,,,,,,,,,,,1,2.053999901,8,2.521999836,1,0,1200,4,1,1199,night,11134,2019-10-24_17h39.50.987,SurveyExpMetaMem,3.2.3,Win32,60
,,,,,,,,,,,,,,,,,,,,4,3.57799983,6,2.004999876,1,0,1200,725,1,1199,checkerboard,11134,2019-10-24_17h39.50.987,SurveyExpMetaMem,3.2.3,Win32,60
,,,,,,,,,,,,,,,,,,,,2,2.579999924,9,1.128000021,1,0,1200,256,1,1199,galaxy,11134,2019-10-24_17h39.50.987,SurveyExpMetaMem,3.2.3,Win32,60
,,,,,,,,,,,,,,,,,,,,7,6.618999958,3,5.052999973,1,0,1200,480,1,1199,hinder,11134,2019-10-24_17h39.50.987,SurveyExpMetaMem,3.2.3,Win32,60
,,,,,,,,,,,,,,,,,,,,6,3.613999844,2,3.421000004,1,0,1200,1071,1,1199,uncomfortable,11134,2019-10-24_17h39.50.987,SurveyExpMetaMem,3.2.3,Win32,60
,,,,,,,,,,,,,,,,,,,,4,4.552000046,5,5.803999901,1,0,1200,7,1,1199,duet,11134,2019-10-24_17h39.50.987,SurveyExpMetaMem,3.2.3,Win32,60
,,,,,,,,,,,,,,,,,,,,8,3.868999958,8,2.648000002,1,0,1200,233,1,1199,exhilaration,11134,2019-10-24_17h39.50.987,SurveyExpMetaMem,3.2.3,Win32,60
,,,,,,,,,,,,,,,,,,,,5,1.568000078,7,2.803999901,1,0,1200,616,1,1199,coat,11134,2019-10-24_17h39.50.987,SurveyExpMetaMem,3.2.3,Win32,60
,,,,,,,,,,,,,,,,,,,,5,2.858999968,4,6.462999821,1,0,1200,448,1,1199,depart,11134,2019-10-24_17h39.50.987,SurveyExpMetaMem,3.2.3,Win32,60
,,,,,,,,,,,,,,,,,,,,7,3.986000061,1,1.353999853,1,0,1200,452,1,1199,scapegoat,11134,2019-10-24_17h39.50.987,SurveyExpMetaMem,3.2.3,Win32,60
,,,,,,,,,,,,,,,,,,,,5,3.474999905,5,1.053999901,1,0,1200,549,1,1199,beet,11134,2019-10-24_17h39.50.987,SurveyExpMetaMem,3.2.3,Win32,60
,,,,,,,,,,,,,,,,,,,,6,7.455999851,8,1.207999945,1,0,1200,275,1,1199,brilliant,11134,2019-10-24_17h39.50.987,SurveyExpMetaMem,3.2.3,Win32,60
,,,,,,,,,,,,,,,,,,,,1,1.415999889,9,2.410999775,1,0,1200,894,1,1199,sunset,11134,2019-10-24_17h39.50.987,SurveyExpMetaMem,3.2.3,Win32,60
,,,,,,,,,,,,,,,,,,,,4,4.921999931,4,1.31099987,1,0,1200,305,1,1199,frown,11134,2019-10-24_17h39.50.987,SurveyExpMetaMem,3.2.3,Win32,60
,,,,,,,,,,,,,,,,,,,,6,11.22300005,5,1.231999874,1,0,1200,234,1,1199,redeem,11134,2019-10-24_17h39.50.987,SurveyExpMetaMem,3.2.3,Win32,60
,,,,,,,,,,,,,,,,,,,,7,3.890999794,2,2.403999805,1,0,1200,980,1,1199,liar,11134,2019-10-24_17h39.50.987,SurveyExpMetaMem,3.2.3,Win32,60
,,,,,,,,,,,,,,,,,,,,4,3.605999947,5,5.148999929,1,0,1200,257,1,1199,cockpit,11134,2019-10-24_17h39.50.987,SurveyExpMetaMem,3.2.3,Win32,60
,,,,,,,,,,,,,,,,,,,,6,10.96899986,9,1.720999956,1,0,1200,824,1,1199,favor,11134,2019-10-24_17h39.50.987,SurveyExpMetaMem,3.2.3,Win32,60
,,,,,,,,,,,,,,,,,,,,4,5.795000076,3,4.936999798,1,0,1200,363,1,1199,dumb,11134,2019-10-24_17h39.50.987,SurveyExpMetaMem,3.2.3,Win32,60
,,,,,,,,,,,,,,,,,,,,7,6.10199976,9,1.087999821,1,0,1200,146,1,1199,congratulations,11134,2019-10-24_17h39.50.987,SurveyExpMetaMem,3.2.3,Win32,60
,,,,,,,,,,,,,,,,,,,,8,8.876999855,1,1.845000029,1,0,1200,918,1,1199,gunpoint,11134,2019-10-24_17h39.50.987,SurveyExpMetaMem,3.2.3,Win32,60
,,,,,,,,,,,,,,,,,,,,3,2.000999928,6,6.15199995,1,0,1200,669,1,1199,plaza,11134,2019-10-24_17h39.50.987,SurveyExpMetaMem,3.2.3,Win32,60
,,,,,,,,,,,,,,,,,,,,6,4.240999937,9,2.075999975,1,0,1200,88,1,1199,ambitious,11134,2019-10-24_17h39.50.987,SurveyExpMetaMem,3.2.3,Win32,60
,,,,,,,,,,,,,,,,,,,,2,2.542999983,5,3.289000034,1,0,1200,603,1,1199,mane,11134,2019-10-24_17h39.50.987,SurveyExpMetaMem,3.2.3,Win32,60
,,,,,,,,,,,,,,,,,,,,7,3.203000069,1,5.257999897,1,0,1200,1058,1,1199,bloody,11134,2019-10-24_17h39.50.987,SurveyExpMetaMem,3.2.3,Win32,60
,,,,,,,,,,,,,,,,,,,,6,2.804000139,6,1.820999861,1,0,1200,138,1,1199,blessings,11134,2019-10-24_17h39.50.987,SurveyExpMetaMem,3.2.3,Win32,60
,,,,,,,,,,,,,,,,,,,,5,4.207999945,5,1.332999945,1,0,1200,768,1,1199,trait,11134,2019-10-24_17h39.50.987,SurveyExpMetaMem,3.2.3,Win32,60
,,,,,,,,,,,,,,,,,,,,2,2.534999847,6,1.477999926,1,0,1200,529,1,1199,small,11134,2019-10-24_17h39.50.987,SurveyExpMetaMem,3.2.3,Win32,60
,,,,,,,,,,,,,,,,,,,,7,2.753999949,6,1.828999996,1,0,1200,566,1,1199,obscure,11134,2019-10-24_17h39.50.987,SurveyExpMetaMem,3.2.3,Win32,60
,,,,,,,,,,,,,,,,,,,,4,6.220000029,7,5.309000015,1,0,1200,444,1,1199,mold,11134,2019-10-24_17h39.50.987,SurveyExpMetaMem,3.2.3,Win32,60
,,,,,,,,,,,,,,,,,,,,6,4.618000031,9,2.871999979,1,0,1200,288,1,1199,tasty,11134,2019-10-24_17h39.50.987,SurveyExpMetaMem,3.2.3,Win32,60
,,,,,,,,,,,,,,,,,,,,2,2.345999718,7,1.665999889,1,0,1200,455,1,1199,chubby,11134,2019-10-24_17h39.50.987,SurveyExpMetaMem,3.2.3,Win32,60
,,,,,,,,,,,,,,,,,,,,3,15.17399979,5,1.496999979,1,0,1200,714,1,1199,courtyard,11134,2019-10-24_17h39.50.987,SurveyExpMetaMem,3.2.3,Win32,60
,,,,,,,,,,,,,,,,,,,,6,2.585999966,6,1.421000004,1,0,1200,17,1,1199,outgoing,11134,2019-10-24_17h39.50.987,SurveyExpMetaMem,3.2.3,Win32,60
,,,,,,,,,,,,,,,,,,,,6,3.520999908,5,1.710999966,1,0,1200,104,1,1199,freeway,11134,2019-10-24_17h39.50.987,SurveyExpMetaMem,3.2.3,Win32,60
,,,,,,,,,,,,,,,,,,,,1,2.695999861,7,1.203999996,1,0,1200,835,1,1199,helpful,11134,2019-10-24_17h39.50.987,SurveyExpMetaMem,3.2.3,Win32,60
,,,,,,,,,,,,,,,,,,,,5,3.352999926,1,2.84800005,1,0,1200,394,1,1199,dump,11134,2019-10-24_17h39.50.987,SurveyExpMetaMem,3.2.3,Win32,60
,,,,,,,,,,,,,,,,,,,,2,4.593999863,4,5.289999962,1,0,1200,498,1,1199,alimony,11134,2019-10-24_17h39.50.987,SurveyExpMetaMem,3.2.3,Win32,60
,,,,,,,,,,,,,,,,,,,,1,2.123999834,6,3.671999931,1,0,1200,819,1,1199,sheep,11134,2019-10-24_17h39.50.987,SurveyExpMetaMem,3.2.3,Win32,60
,,,,,,,,,,,,,,,,,,,,6,2.388000011,9,2.232999802,1,0,1200,198,1,1199,comedy,11134,2019-10-24_17h39.50.987,SurveyExpMetaMem,3.2.3,Win32,60
,,,,,,,,,,,,,,,,,,,,8,4.286999941,3,3.255999804,1,0,1200,543,1,1199,gloat,11134,2019-10-24_17h39.50.987,SurveyExpMetaMem,3.2.3,Win32,60
,,,,,,,,,,,,,,,,,,,,5,2.711999893,6,2.368999958,1,0,1200,261,1,1199,windsurfers,11134,2019-10-24_17h39.50.987,SurveyExpMetaMem,3.2.3,Win32,60
,,,,,,,,,,,,,,,,,,,,5,3.911000013,5,0.213999748,1,0,1200,601,1,1199,roof,11134,2019-10-24_17h39.50.987,SurveyExpMetaMem,3.2.3,Win32,60
,,,,,,,,,,,,,,,,,,,,6,3.023000002,8,1.337000132,1,0,1200,840,1,1199,cuisine,11134,2019-10-24_17h39.50.987,SurveyExpMetaMem,3.2.3,Win32,60
,,,,,,,,,,,,,,,,,,,,7,5.144000053,9,1.039999962,1,0,1200,247,1,1199,graduate,11134,2019-10-24_17h39.50.987,SurveyExpMetaMem,3.2.3,Win32,60
,,,,,,,,,,,,,,,,,,,,6,6.411999941,8,2.404000044,1,0,1200,72,1,1199,attract,11134,2019-10-24_17h39.50.987,SurveyExpMetaMem,3.2.3,Win32,60
,,,,,,,,,,,,,,,,,,,,7,6.337999821,1,2.9599998,1,0,1200,468,1,1199,noose,11134,2019-10-24_17h39.50.987,SurveyExpMetaMem,3.2.3,Win32,60
,,,,,,,,,,,,,,,,,,,,6,3.867999792,4,2.039000034,1,0,1200,1166,1,1199,compulsive,11134,2019-10-24_17h39.50.987,SurveyExpMetaMem,3.2.3,Win32,60
,,,,,,,,,,,,,,,,,,,,5,3.764999866,2,3.083999872,1,0,1200,938,1,1199,seasick,11134,2019-10-24_17h39.50.987,SurveyExpMetaMem,3.2.3,Win32,60
,,,,,,,,,,,,,,,,,,,,4,11.45899987,4,2.017999887,1,0,1200,597,1,1199,drool,11134,2019-10-24_17h39.50.987,SurveyExpMetaMem,3.2.3,Win32,60
,,,,,,,,,,,,,,,,,,,,6,3.921000004,2,1.180999994,1,0,1200,927,1,1199,jail,11134,2019-10-24_17h39.50.987,SurveyExpMetaMem,3.2.3,Win32,60
,,,,,,,,,,,,,,,,,,,,6,3.052999973,3,2.821000099,1,0,1200,1142,1,1199,disturb,11134,2019-10-24_17h39.50.987,SurveyExpMetaMem,3.2.3,Win32,60
,,,,,,,,,,,,,,,,,,,,5,4.352999926,5,1.812000036,1,0,1200,251,1,1199,meteor,11134,2019-10-24_17h39.50.987,SurveyExpMetaMem,3.2.3,Win32,60
,,,,,,,,,,,,,,,,,,,,6,2.951999903,3,3.570999861,1,0,1200,1128,1,1199,fighting,11134,2019-10-24_17h39.50.987,SurveyExpMetaMem,3.2.3,Win32,60
,,,,,,,,,,,,,,,,,,,,7,3.125999928,8,1.335999966,1,0,1200,224,1,1199,strengthen,11134,2019-10-24_17h39.50.987,SurveyExpMetaMem,3.2.3,Win32,60
,,,,,,,,,,,,,,,,,,,,2,3.135999918,6,1.921000004,1,0,1200,580,1,1199,fur,11134,2019-10-24_17h39.50.987,SurveyExpMetaMem,3.2.3,Win32,60
,,,,,,,,,,,,,,,,,,,,6,4.001999855,1,2.119999886,1,0,1200,337,1,1199,stinks,11134,2019-10-24_17h39.50.987,SurveyExpMetaMem,3.2.3,Win32,60
,,,,,,,,,,,,,,,,,,,,7,5.741999865,1,0.875999928,1,0,1200,1125,1,1199,outrage,11134,2019-10-24_17h39.50.987,SurveyExpMetaMem,3.2.3,Win32,60
,,,,,,,,,,,,,,,,,,,,4,3.485000134,4,3.396999836,1,0,1200,1077,1,1199,unsure,11134,2019-10-24_17h39.50.987,SurveyExpMetaMem,3.2.3,Win32,60
,,,,,,,,,,,,,,,,,,,,3,7.529999971,6,2.07400012,1,0,1200,510,1,1199,excuse,11134,2019-10-24_17h39.50.987,SurveyExpMetaMem,3.2.3,Win32,60
,,,,,,,,,,,,,,,,,,,,8,4.187000036,1,2.280999899,1,0,1200,1046,1,1199,unsafe,11134,2019-10-24_17h39.50.987,SurveyExpMetaMem,3.2.3,Win32,60
,,,,,,,,,,,,,,,,,,,,4,6.395999908,6,1.365999937,1,0,1200,161,1,1199,limousine,11134,2019-10-24_17h39.50.987,SurveyExpMetaMem,3.2.3,Win32,60
,,,,,,,,,,,,,,,,,,,,5,2.14199996,5,0.831999779,1,0,1200,576,1,1199,policy,11134,2019-10-24_17h39.50.987,SurveyExpMetaMem,3.2.3,Win32,60
,,,,,,,,,,,,,,,,,,,,1,2.986000061,8,1.625,1,0,1200,813,1,1199,walking,11134,2019-10-24_17h39.50.987,SurveyExpMetaMem,3.2.3,Win32,60
,,,,,,,,,,,,,,,,,,,,6,4.046000004,4,3.721999884,1,0,1200,500,1,1199,nosey,11134,2019-10-24_17h39.50.987,SurveyExpMetaMem,3.2.3,Win32,60
,,,,,,,,,,,,,,,,,,,,3,4.521999836,5,4.772999763,1,0,1200,663,1,1199,trout,11134,2019-10-24_17h39.50.987,SurveyExpMetaMem,3.2.3,Win32,60
,,,,,,,,,,,,,,,,,,,,7,4.421999931,1,2.339999914,1,0,1200,431,1,1199,itch,11134,2019-10-24_17h39.50.987,SurveyExpMetaMem,3.2.3,Win32,60
,,,,,,,,,,,,,,,,,,,,6,9.445999861,2,1.694000006,1,0,1200,571,1,1199,marrow,11134,2019-10-24_17h39.50.987,SurveyExpMetaMem,3.2.3,Win32,60
,,,,,,,,,,,,,,,,,,,,9,3.859999895,1,1.471999884,1,0,1200,901,1,1199,rape,11134,2019-10-24_17h39.50.987,SurveyExpMetaMem,3.2.3,Win32,60
,,,,,,,,,,,,,,,,,,,,2,4.548000097,8,2.147000074,1,0,1200,229,1,1199,heaven,11134,2019-10-24_17h39.50.987,SurveyExpMetaMem,3.2.3,Win32,60
,,,,,,,,,,,,,,,,,,,,3,4.322000027,5,2.544999838,1,0,1200,432,1,1199,resign,11134,2019-10-24_17h39.50.987,SurveyExpMetaMem,3.2.3,Win32,60
,,,,,,,,,,,,,,,,,,,,1,2.474999905,7,3.707000017,1,0,1200,677,1,1199,handwriting,11134,2019-10-24_17h39.50.987,SurveyExpMetaMem,3.2.3,Win32,60
,,,,,,,,,,,,,,,,,,,,3,3.703999758,6,1.79399991,1,0,1200,228,1,1199,suite,11134,2019-10-24_17h39.50.987,SurveyExpMetaMem,3.2.3,Win32,60
,,,,,,,,,,,,,,,,,,,,3,1.56799984,7,2.258000135,1,0,1200,836,1,1199,lounge,11134,2019-10-24_17h39.50.987,SurveyExpMetaMem,3.2.3,Win32,60
,,,,,,,,,,,,,,,,,,,,5,4.245999813,4,1.438999891,1,0,1200,485,1,1199,pinch,11134,2019-10-24_17h39.50.987,SurveyExpMetaMem,3.2.3,Win32,60
,,,,,,,,,,,,,,,,,,,,1,1.427999973,8,1.980999947,1,0,1200,860,1,1199,silk,11134,2019-10-24_17h39.50.987,SurveyExpMetaMem,3.2.3,Win32,60
,,,,,,,,,,,,,,,,,,,,7,2.891999722,3,2.688999891,1,0,1200,1173,1,1199,lurk,11134,2019-10-24_17h39.50.987,SurveyExpMetaMem,3.2.3,Win32,60
,,,,,,,,,,,,,,,,,,,,2,2.27699995,7,2.520999908,1,0,1200,266,1,1199,juice,11134,2019-10-24_17h39.50.987,SurveyExpMetaMem,3.2.3,Win32,60
,,,,,,,,,,,,,,,,,,,,4,8.486000061,7,2.704999924,1,0,1200,128,1,1199,supper,11134,2019-10-24_17h39.50.987,SurveyExpMetaMem,3.2.3,Win32,60
,,,,,,,,,,,,,,,,,,,,6,2.427999973,2,1.358999968,1,0,1200,1156,1,1199,weapon,11134,2019-10-24_17h39.50.987,SurveyExpMetaMem,3.2.3,Win32,60
,,,,,,,,,,,,,,,,,,,,7,4.372999907,5,3.035000086,1,0,1200,205,1,1199,outspoken,11134,2019-10-24_17h39.50.987,SurveyExpMetaMem,3.2.3,Win32,60
,,,,,,,,,,,,,,,,,,,,2,3.642999887,5,2.240999937,1,0,1200,625,1,1199,hat,11134,2019-10-24_17h39.50.987,SurveyExpMetaMem,3.2.3,Win32,60
,,,,,,,,,,,,,,,,,,,,7,2.517999887,2,0.737999916,1,0,1200,464,1,1199,tick,11134,2019-10-24_17h39.50.987,SurveyExpMetaMem,3.2.3,Win32,60
,,,,,,,,,,,,,,,,,,,,7,4.269999981,3,5.267999887,1,0,1200,1007,1,1199,tornado,11134,2019-10-24_17h39.50.987,SurveyExpMetaMem,3.2.3,Win32,60
,,,,,,,,,,,,,,,,,,,,1,2.671000004,5,5.740999937,1,0,1200,766,1,1199,flag,11134,2019-10-24_17h39.50.987,SurveyExpMetaMem,3.2.3,Win32,60
,,,,,,,,,,,,,,,,,,,,5,1.620999813,5,0.562999964,1,0,1200,696,1,1199,rink,11134,2019-10-24_17h39.50.987,SurveyExpMetaMem,3.2.3,Win32,60
,,,,,,,,,,,,,,,,,,,,8,3.036000013,1,2.056999922,1,0,1200,446,1,1199,greedy,11134,2019-10-24_17h39.50.987,SurveyExpMetaMem,3.2.3,Win32,60
,,,,,,,,,,,,,,,,,,,,7,13.35099983,1,0.974999905,1,0,1200,908,1,1199,suffer,11134,2019-10-24_17h39.50.987,SurveyExpMetaMem,3.2.3,Win32,60
,,,,,,,,,,,,,,,,,,,,3,2.389999866,8,3.453999996,1,0,1200,858,1,1199,donate,11134,2019-10-24_17h39.50.987,SurveyExpMetaMem,3.2.3,Win32,60
,,,,,,,,,,,,,,,,,,,,2,2.203000069,7,2.236999989,1,0,1200,731,1,1199,decency,11134,2019-10-24_17h39.50.987,SurveyExpMetaMem,3.2.3,Win32,60
,,,,,,,,,,,,,,,,,,,,6,2.621999979,8,1.242999792,1,0,1200,171,1,1199,imagination,11134,2019-10-24_17h39.50.987,SurveyExpMetaMem,3.2.3,Win32,60
,,,,,,,,,,,,,,,,,,,,1,2.09499979,9,0.891000032,1,0,1200,896,1,1199,cuddle,11134,2019-10-24_17h39.50.987,SurveyExpMetaMem,3.2.3,Win32,60
,,,,,,,,,,,,,,,,,,,,2,1.559000015,9,1.332000017,1,0,1200,232,1,1199,prosper,11134,2019-10-24_17h39.50.987,SurveyExpMetaMem,3.2.3,Win32,60
,,,,,,,,,,,,,,,,,,,,5,1.459000111,5,0.489000082,1,0,1200,112,1,1199,jaguar,11134,2019-10-24_17h39.50.987,SurveyExpMetaMem,3.2.3,Win32,60
,,,,,,,,,,,,,,,,,,,,4,1.605000019,8,2.106999874,1,0,1200,271,1,1199,applaud,11134,2019-10-24_17h39.50.987,SurveyExpMetaMem,3.2.3,Win32,60
,,,,,,,,,,,,,,,,,,,,3,4.035000086,2,3.984999895,1,0,1200,402,1,1199,dismissive,11134,2019-10-24_17h39.50.987,SurveyExpMetaMem,3.2.3,Win32,60
,,,,,,,,,,,,,,,,,,,,7,2.866999865,3,1.741999865,1,0,1200,1185,1,1199,shotgun,11134,2019-10-24_17h39.50.987,SurveyExpMetaMem,3.2.3,Win32,60
,,,,,,,,,,,,,,,,,,,,5,4.003999949,5,0.488999844,1,0,1200,750,1,1199,porpoise,11134,2019-10-24_17h39.50.987,SurveyExpMetaMem,3.2.3,Win32,60
,,,,,,,,,,,,,,,,,,,,8,4.102999926,8,1.308999777,1,0,1200,32,1,1199,festival,11134,2019-10-24_17h39.50.987,SurveyExpMetaMem,3.2.3,Win32,60
,,,,,,,,,,,,,,,,,,,,8,2.53399992,3,4.055999994,1,0,1200,948,1,1199,pain,11134,2019-10-24_17h39.50.987,SurveyExpMetaMem,3.2.3,Win32,60
,,,,,,,,,,,,,,,,,,,,5,3.200000048,6,3.888000011,1,0,1200,206,1,1199,comet,11134,2019-10-24_17h39.50.987,SurveyExpMetaMem,3.2.3,Win32,60
,,,,,,,,,,,,,,,,,,,,8,4.776000023,1,1.345999956,1,0,1200,469,1,1199,resent,11134,2019-10-24_17h39.50.987,SurveyExpMetaMem,3.2.3,Win32,60
,,,,,,,,,,,,,,,,,,,,6,4.647000074,3,2.529000044,1,0,1200,400,1,1199,urine,11134,2019-10-24_17h39.50.987,SurveyExpMetaMem,3.2.3,Win32,60
,,,,,,,,,,,,,,,,,,,,6,6.713000059,1,1.825999975,1,0,1200,327,1,1199,misfortune,11134,2019-10-24_17h39.50.987,SurveyExpMetaMem,3.2.3,Win32,60
,,,,,,,,,,,,,,,,,,,,2,2.430000067,8,1.990999937,1,0,1200,866,1,1199,haven,11134,2019-10-24_17h39.50.987,SurveyExpMetaMem,3.2.3,Win32,60
,,,,,,,,,,,,,,,,,,,,3,3.054999828,6,3.924000025,1,0,1200,539,1,1199,novice,11134,2019-10-24_17h39.50.987,SurveyExpMetaMem,3.2.3,Win32,60
,,,,,,,,,,,,,,,,,,,,4,5.271999836,7,2.253999949,1,0,1200,803,1,1199,tidy,11134,2019-10-24_17h39.50.987,SurveyExpMetaMem,3.2.3,Win32,60
,,,,,,,,,,,,,,,,,,,,6,8.684999943,5,1.738999844,1,0,1200,165,1,1199,sizzle,11134,2019-10-24_17h39.50.987,SurveyExpMetaMem,3.2.3,Win32,60
,,,,,,,,,,,,,,,,,,,,3,9.251999855,5,3.510999918,1,0,1200,622,1,1199,revere,11134,2019-10-24_17h39.50.987,SurveyExpMetaMem,3.2.3,Win32,60
,,,,,,,,,,,,,,,,,,,,7,2.90199995,9,6.181999922,1,0,1200,290,1,1199,enthusiasm,11134,2019-10-24_17h39.50.987,SurveyExpMetaMem,3.2.3,Win32,60
,,,,,,,,,,,,,,,,,,,,7,5.546999931,9,2.134999752,1,0,1200,49,1,1199,ecstatic,11134,2019-10-24_17h39.50.987,SurveyExpMetaMem,3.2.3,Win32,60
,,,,,,,,,,,,,,,,,,,,6,3.495999813,4,0.805999994,1,0,1200,413,1,1199,deficient,11134,2019-10-24_17h39.50.987,SurveyExpMetaMem,3.2.3,Win32,60
,,,,,,,,,,,,,,,,,,,,6,5.234999895,6,1.174000025,1,0,1200,550,1,1199,fart,11134,2019-10-24_17h39.50.987,SurveyExpMetaMem,3.2.3,Win32,60
,,,,,,,,,,,,,,,,,,,,1,2.786999941,8,2.635999918,1,0,1200,723,1,1199,cinnamon,11134,2019-10-24_17h39.50.987,SurveyExpMetaMem,3.2.3,Win32,60
,,,,,,,,,,,,,,,,,,,,3,3.268999815,8,1.213000059,1,0,1200,298,1,1199,success,11134,2019-10-24_17h39.50.987,SurveyExpMetaMem,3.2.3,Win32,60
,,,,,,,,,,,,,,,,,,,,7,4.351999998,1,5.218999863,1,0,1200,987,1,1199,disgusted,11134,2019-10-24_17h39.50.987,SurveyExpMetaMem,3.2.3,Win32,60
,,,,,,,,,,,,,,,,,,,,5,4.11199975,3,2.405999899,1,0,1200,395,1,1199,lack,11134,2019-10-24_17h39.50.987,SurveyExpMetaMem,3.2.3,Win32,60
,,,,,,,,,,,,,,,,,,,,7,2.369999886,7,2.407000065,1,0,1200,269,1,1199,extravagant,11134,2019-10-24_17h39.50.987,SurveyExpMetaMem,3.2.3,Win32,60
,,,,,,,,,,,,,,,,,,,,1,4.661999941,9,1.256000042,1,0,1200,284,1,1199,delight,11134,2019-10-24_17h39.50.987,SurveyExpMetaMem,3.2.3,Win32,60
,,,,,,,,,,,,,,,,,,,,2,1.319999695,6,6.20299983,1,0,1200,780,1,1199,grass,11134,2019-10-24_17h39.50.987,SurveyExpMetaMem,3.2.3,Win32,60
,,,,,,,,,,,,,,,,,,,,7,6.436999798,1,1.214999914,1,0,1200,983,1,1199,demonic,11134,2019-10-24_17h39.50.987,SurveyExpMetaMem,3.2.3,Win32,60
,,,,,,,,,,,,,,,,,,,,1,2.736999989,8,3.947000027,1,0,1200,886,1,1199,sunflower,11134,2019-10-24_17h39.50.987,SurveyExpMetaMem,3.2.3,Win32,60
,,,,,,,,,,,,,,,,,,,,6,5.680000067,1,1.149999857,1,0,1200,505,1,1199,exhaust,11134,2019-10-24_17h39.50.987,SurveyExpMetaMem,3.2.3,Win32,60
,,,,,,,,,,,,,,,,,,,,5,3.367999792,7,2.014999866,1,0,1200,74,1,1199,explore,11134,2019-10-24_17h39.50.987,SurveyExpMetaMem,3.2.3,Win32,60
,,,,,,,,,,,,,,,,,,,,5,5.801000118,4,3.076999903,1,0,1200,562,1,1199,average,11134,2019-10-24_17h39.50.987,SurveyExpMetaMem,3.2.3,Win32,60
,,,,,,,,,,,,,,,,,,,,7,3.460000038,2,2.106999874,1,0,1200,520,1,1199,gullible,11134,2019-10-24_17h39.50.987,SurveyExpMetaMem,3.2.3,Win32,60
,,,,,,,,,,,,,,,,,,,,7,3.842999935,1,0.891000032,1,0,1200,318,1,1199,disappointment,11134,2019-10-24_17h39.50.987,SurveyExpMetaMem,3.2.3,Win32,60
,,,,,,,,,,,,,,,,,,,,5,1.777999878,5,0.31099987,1,0,1200,24,1,1199,model,11134,2019-10-24_17h39.50.987,SurveyExpMetaMem,3.2.3,Win32,60
,,,,,,,,,,,,,,,,,,,,3,2.852999926,5,1.320999861,1,0,1200,592,1,1199,sweep,11134,2019-10-24_17h39.50.987,SurveyExpMetaMem,3.2.3,Win32,60
,,,,,,,,,,,,,,,,,,,,2,1.628999949,6,1.90199995,1,0,1200,608,1,1199,carrot,11134,2019-10-24_17h39.50.987,SurveyExpMetaMem,3.2.3,Win32,60
,,,,,,,,,,,,,,,,,,,,4,3.605999947,5,2.026000023,1,0,1200,561,1,1199,plain,11134,2019-10-24_17h39.50.987,SurveyExpMetaMem,3.2.3,Win32,60
,,,,,,,,,,,,,,,,,,,,5,9.333999872,8,1.746000051,1,0,1200,282,1,1199,luck,11134,2019-10-24_17h39.50.987,SurveyExpMetaMem,3.2.3,Win32,60
,,,,,,,,,,,,,,,,,,,,8,4.35800004,1,2.801999807,1,0,1200,923,1,1199,punish,11134,2019-10-24_17h39.50.987,SurveyExpMetaMem,3.2.3,Win32,60
,,,,,,,,,,,,,,,,,,,,6,5.138000011,2,2.993999958,1,0,1200,931,1,1199,overweight,11134,2019-10-24_17h39.50.987,SurveyExpMetaMem,3.2.3,Win32,60
,,,,,,,,,,,,,,,,,,,,6,5.945999861,1,0.976000071,1,0,1200,348,1,1199,impotent,11134,2019-10-24_17h39.50.987,SurveyExpMetaMem,3.2.3,Win32,60
,,,,,,,,,,,,,,,,,,,,1,3.894000053,2,4.239999771,1,0,1200,511,1,1199,slouch,11134,2019-10-24_17h39.50.987,SurveyExpMetaMem,3.2.3,Win32,60
,,,,,,,,,,,,,,,,,,,,8,4.70299983,8,2.790999889,1,0,1200,115,1,1199,sexual,11134,2019-10-24_17h39.50.987,SurveyExpMetaMem,3.2.3,Win32,60
,,,,,,,,,,,,,,,,,,,,9,1.35199976,1,1.125999928,1,0,1200,907,1,1199,terrorist,11134,2019-10-24_17h39.50.987,SurveyExpMetaMem,3.2.3,Win32,60
,,,,,,,,,,,,,,,,,,,,7,3.710000038,1,2.828999996,1,0,1200,419,1,1199,immature,11134,2019-10-24_17h39.50.987,SurveyExpMetaMem,3.2.3,Win32,60
,,,,,,,,,,,,,,,,,,,,3,7.838999987,6,1.131999731,1,0,1200,733,1,1199,poetry,11134,2019-10-24_17h39.50.987,SurveyExpMetaMem,3.2.3,Win32,60
,,,,,,,,,,,,,,,,,,,,7,3.069999933,5,5.371000051,1,0,1200,254,1,1199,crush,11134,2019-10-24_17h39.50.987,SurveyExpMetaMem,3.2.3,Win32,60
,,,,,,,,,,,,,,,,,,,,3,3.18599987,8,2.15899992,1,0,1200,734,1,1199,piano,11134,2019-10-24_17h39.50.987,SurveyExpMetaMem,3.2.3,Win32,60
,,,,,,,,,,,,,,,,,,,,6,5.774999857,9,1.215999842,1,0,1200,99,1,1199,funny,11134,2019-10-24_17h39.50.987,SurveyExpMetaMem,3.2.3,Win32,60
,,,,,,,,,,,,,,,,,,,,9,3.89199996,1,1.187999964,1,0,1200,956,1,1199,crushed,11134,2019-10-24_17h39.50.987,SurveyExpMetaMem,3.2.3,Win32,60
,,,,,,,,,,,,,,,,,,,,1,1.605999947,9,1.002999783,1,0,1200,785,1,1199,pond,11134,2019-10-24_17h39.50.987,SurveyExpMetaMem,3.2.3,Win32,60
,,,,,,,,,,,,,,,,,,,,8,4.052999973,1,1.276000023,1,0,1200,405,1,1199,fatigued,11134,2019-10-24_17h39.50.987,SurveyExpMetaMem,3.2.3,Win32,60
,,,,,,,,,,,,,,,,,,,,9,3.43599987,3,7.751999855,1,0,1200,253,1,1199,soldier,11134,2019-10-24_17h39.50.987,SurveyExpMetaMem,3.2.3,Win32,60
,,,,,,,,,,,,,,,,,,,,6,6.039999962,8,1.212999821,1,0,1200,209,1,1199,husband,11134,2019-10-24_17h39.50.987,SurveyExpMetaMem,3.2.3,Win32,60
,,,,,,,,,,,,,,,,,,,,2,8.276000023,5,1.40899992,1,0,1200,629,1,1199,barn,11134,2019-10-24_17h39.50.987,SurveyExpMetaMem,3.2.3,Win32,60
,,,,,,,,,,,,,,,,,,,,8,8.809000015,1,1.371999979,1,0,1200,1100,1,1199,evil,11134,2019-10-24_17h39.50.987,SurveyExpMetaMem,3.2.3,Win32,60
,,,,,,,,,,,,,,,,,,,,7,7.400000095,4,7.773999929,1,0,1200,330,1,1199,sunburn,11134,2019-10-24_17h39.50.987,SurveyExpMetaMem,3.2.3,Win32,60
,,,,,,,,,,,,,,,,,,,,7,3.621999979,1,1.345000029,1,0,1200,1138,1,1199,wail,11134,2019-10-24_17h39.50.987,SurveyExpMetaMem,3.2.3,Win32,60
,,,,,,,,,,,,,,,,,,,,6,8.260999918,2,3.593999863,1,0,1200,332,1,1199,sewage,11134,2019-10-24_17h39.50.987,SurveyExpMetaMem,3.2.3,Win32,60
,,,,,,,,,,,,,,,,,,,,2,3.454999924,7,4.551999807,1,0,1200,386,1,1199,pale,11134,2019-10-24_17h39.50.987,SurveyExpMetaMem,3.2.3,Win32,60
,,,,,,,,,,,,,,,,,,,,1,2.003000021,7,4.120999813,1,0,1200,863,1,1199,fireplace,11134,2019-10-24_17h39.50.987,SurveyExpMetaMem,3.2.3,Win32,60
,,,,,,,,,,,,,,,,,,,,1,1.821000099,4,4.773000002,1,0,1200,527,1,1199,passive,11134,2019-10-24_17h39.50.987,SurveyExpMetaMem,3.2.3,Win32,60
,,,,,,,,,,,,,,,,,,,,5,5.238999844,5,5.201999903,1,0,1200,460,1,1199,rag,11134,2019-10-24_17h39.50.987,SurveyExpMetaMem,3.2.3,Win32,60
,,,,,,,,,,,,,,,,,,,,7,5.700999975,7,2.50999999,1,0,1200,11,1,1199,astonished,11134,2019-10-24_17h39.50.987,SurveyExpMetaMem,3.2.3,Win32,60
,,,,,,,,,,,,,,,,,,,,2,3.261999846,7,2.426000118,1,0,1200,450,1,1199,overcast,11134,2019-10-24_17h39.50.987,SurveyExpMetaMem,3.2.3,Win32,60
,,,,,,,,,,,,,,,,,,,,4,3.992000103,6,3.056999922,1,0,1200,188,1,1199,profit,11134,2019-10-24_17h39.50.987,SurveyExpMetaMem,3.2.3,Win32,60
,,,,,,,,,,,,,,,,,,,,7,5.541999817,1,1.198999882,1,0,1200,335,1,1199,decay,11134,2019-10-24_17h39.50.987,SurveyExpMetaMem,3.2.3,Win32,60
,,,,,,,,,,,,,,,,,,,,6,8.736999989,3,4.742000103,1,0,1200,410,1,1199,tarnish,11134,2019-10-24_17h39.50.987,SurveyExpMetaMem,3.2.3,Win32,60
,,,,,,,,,,,,,,,,,,,,3,6.189999819,7,2.072000027,1,0,1200,212,1,1199,belief,11134,2019-10-24_17h39.50.987,SurveyExpMetaMem,3.2.3,Win32,60
,,,,,,,,,,,,,,,,,,,,8,5.888000011,1,1.143999815,1,0,1200,1054,1,1199,jealous,11134,2019-10-24_17h39.50.987,SurveyExpMetaMem,3.2.3,Win32,60
,,,,,,,,,,,,,,,,,,,,5,8.281000137,2,2.184000015,1,0,1200,391,1,1199,detach,11134,2019-10-24_17h39.50.987,SurveyExpMetaMem,3.2.3,Win32,60
,,,,,,,,,,,,,,,,,,,,2,2.440999985,9,1.976999998,1,0,1200,879,1,1199,bird,11134,2019-10-24_17h39.50.987,SurveyExpMetaMem,3.2.3,Win32,60
,,,,,,,,,,,,,,,,,,,,5,3.501999855,5,2.628999949,1,0,1200,420,1,1199,smoke,11134,2019-10-24_17h39.50.987,SurveyExpMetaMem,3.2.3,Win32,60
,,,,,,,,,,,,,,,,,,,,8,6.021999836,1,1.775000095,1,0,1200,355,1,1199,graveyard,11134,2019-10-24_17h39.50.987,SurveyExpMetaMem,3.2.3,Win32,60
,,,,,,,,,,,,,,,,,,,,1,2.248999834,6,5.006999731,1,0,1200,517,1,1199,habit,11134,2019-10-24_17h39.50.987,SurveyExpMetaMem,3.2.3,Win32,60
,,,,,,,,,,,,,,,,,,,,1,2.042999983,7,1.736999989,1,0,1200,634,1,1199,glacier,11134,2019-10-24_17h39.50.987,SurveyExpMetaMem,3.2.3,Win32,60
,,,,,,,,,,,,,,,,,,,,6,4.570999861,2,1.995999813,1,0,1200,1169,1,1199,enforcement,11134,2019-10-24_17h39.50.987,SurveyExpMetaMem,3.2.3,Win32,60
,,,,,,,,,,,,,,,,,,,,4,3.581999779,5,3.84499979,1,0,1200,626,1,1199,pan,11134,2019-10-24_17h39.50.987,SurveyExpMetaMem,3.2.3,Win32,60
,,,,,,,,,,,,,,,,,,,,5,7.011999846,5,0.403999805,1,0,1200,522,1,1199,cleft,11134,2019-10-24_17h39.50.987,SurveyExpMetaMem,3.2.3,Win32,60
,,,,,,,,,,,,,,,,,,,,4,3.489999771,5,1.378000021,1,0,1200,459,1,1199,heavy,11134,2019-10-24_17h39.50.987,SurveyExpMetaMem,3.2.3,Win32,60
,,,,,,,,,,,,,,,,,,,,6,4.035000086,6,1.937999964,1,0,1200,3,1,1199,nudist,11134,2019-10-24_17h39.50.987,SurveyExpMetaMem,3.2.3,Win32,60
,,,,,,,,,,,,,,,,,,,,5,8.9599998,5,3.145999908,1,0,1200,577,1,1199,retreat,11134,2019-10-24_17h39.50.987,SurveyExpMetaMem,3.2.3,Win32,60
,,,,,,,,,,,,,,,,,,,,1,1.829999924,8,1.271000147,1,0,1200,12,1,1199,mountain,11134,2019-10-24_17h39.50.987,SurveyExpMetaMem,3.2.3,Win32,60
,,,,,,,,,,,,,,,,,,,,3,2.75999999,7,2.131999969,1,0,1200,630,1,1199,website,11134,2019-10-24_17h39.50.987,SurveyExpMetaMem,3.2.3,Win32,60
,,,,,,,,,,,,,,,,,,,,8,2.575999975,1,1.851000071,1,0,1200,1090,1,1199,destruction,11134,2019-10-24_17h39.50.987,SurveyExpMetaMem,3.2.3,Win32,60
,,,,,,,,,,,,,,,,,,,,1,2.688999891,5,2.354999781,1,0,1200,162,1,1199,royalty,11134,2019-10-24_17h39.50.987,SurveyExpMetaMem,3.2.3,Win32,60
,,,,,,,,,,,,,,,,,,,,8,8.625,2,4.072000027,1,0,1200,1182,1,1199,pierce,11134,2019-10-24_17h39.50.987,SurveyExpMetaMem,3.2.3,Win32,60
,,,,,,,,,,,,,,,,,,,,6,2.322000027,1,2.920000076,1,0,1200,384,1,1199,idiot,11134,2019-10-24_17h39.50.987,SurveyExpMetaMem,3.2.3,Win32,60
,,,,,,,,,,,,,,,,,,,,2,2.487999916,4,2.313999891,1,0,1200,465,1,1199,void,11134,2019-10-24_17h39.50.987,SurveyExpMetaMem,3.2.3,Win32,60
,,,,,,,,,,,,,,,,,,,,9,3.125999928,1,1.887999773,1,0,1200,362,1,1199,despair,11134,2019-10-24_17h39.50.987,SurveyExpMetaMem,3.2.3,Win32,60
,,,,,,,,,,,,,,,,,,,,6,2.260999918,3,3.416999817,1,0,1200,1069,1,1199,defeat,11134,2019-10-24_17h39.50.987,SurveyExpMetaMem,3.2.3,Win32,60
,,,,,,,,,,,,,,,,,,,,7,2.967000008,1,0.887999773,1,0,1200,1115,1,1199,invade,11134,2019-10-24_17h39.50.987,SurveyExpMetaMem,3.2.3,Win32,60
,,,,,,,,,,,,,,,,,,,,2,4.74000001,7,1.419999838,1,0,1200,89,1,1199,cruiseship,11134,2019-10-24_17h39.50.987,SurveyExpMetaMem,3.2.3,Win32,60
,,,,,,,,,,,,,,,,,,,,6,4.252999783,5,4.054000139,1,0,1200,387,1,1199,tax,11134,2019-10-24_17h39.50.987,SurveyExpMetaMem,3.2.3,Win32,60
,,,,,,,,,,,,,,,,,,,,7,3.605999947,2,2.59499979,1,0,1200,995,1,1199,cult,11134,2019-10-24_17h39.50.987,SurveyExpMetaMem,3.2.3,Win32,60
,,,,,,,,,,,,,,,,,,,,6,4.868999958,7,3.228999853,1,0,1200,170,1,1199,entertainment,11134,2019-10-24_17h39.50.987,SurveyExpMetaMem,3.2.3,Win32,60
,,,,,,,,,,,,,,,,,,,,3,3.352999926,4,2.874999762,1,0,1200,349,1,1199,mope,11134,2019-10-24_17h39.50.987,SurveyExpMetaMem,3.2.3,Win32,60
,,,,,,,,,,,,,,,,,,,,1,4.15199995,5,1.481999874,1,0,1200,1189,1,1199,lava,11134,2019-10-24_17h39.50.987,SurveyExpMetaMem,3.2.3,Win32,60
,,,,,,,,,,,,,,,,,,,,8,3.492999792,1,1.282999992,1,0,1200,1044,1,1199,lost,11134,2019-10-24_17h39.50.987,SurveyExpMetaMem,3.2.3,Win32,60
,,,,,,,,,,,,,,,,,,,,7,2.191999912,4,2.270999908,1,0,1200,1148,1,1199,suspicious,11134,2019-10-24_17h39.50.987,SurveyExpMetaMem,3.2.3,Win32,60
,,,,,,,,,,,,,,,,,,,,7,4.381999731,3,2.735999823,1,0,1200,1081,1,1199,damage,11134,2019-10-24_17h39.50.987,SurveyExpMetaMem,3.2.3,Win32,60
,,,,,,,,,,,,,,,,,,,,7,3.588999748,3,3.230000019,1,0,1200,1154,1,1199,politics,11134,2019-10-24_17h39.50.987,SurveyExpMetaMem,3.2.3,Win32,60
,,,,,,,,,,,,,,,,,,,,5,4.221999884,3,3.424999952,1,0,1200,540,1,1199,derelict,11134,2019-10-24_17h39.50.987,SurveyExpMetaMem,3.2.3,Win32,60
,,,,,,,,,,,,,,,,,,,,2,2.752000093,8,2.329999924,1,0,1200,210,1,1199,elephant,11134,2019-10-24_17h39.50.987,SurveyExpMetaMem,3.2.3,Win32,60
,,,,,,,,,,,,,,,,,,,,1,5.004999876,9,1.544999838,1,0,1200,192,1,1199,pleased,11134,2019-10-24_17h39.50.987,SurveyExpMetaMem,3.2.3,Win32,60
,,,,,,,,,,,,,,,,,,,,8,2.85199976,2,1.820999861,1,0,1200,1042,1,1199,brutal,11134,2019-10-24_17h39.50.987,SurveyExpMetaMem,3.2.3,Win32,60
,,,,,,,,,,,,,,,,,,,,6,3.791999817,4,1.818999767,1,0,1200,1086,1,1199,irritate,11134,2019-10-24_17h39.50.987,SurveyExpMetaMem,3.2.3,Win32,60
,,,,,,,,,,,,,,,,,,,,1,2.111000061,7,3.368999958,1,0,1200,754,1,1199,reflection,11134,2019-10-24_17h39.50.987,SurveyExpMetaMem,3.2.3,Win32,60
,,,,,,,,,,,,,,,,,,,,1,1.786999941,9,1.018000126,1,0,1200,871,1,1199,comfort,11134,2019-10-24_17h39.50.987,SurveyExpMetaMem,3.2.3,Win32,60
,,,,,,,,,,,,,,,,,,,,1,1.572999954,2,2.653999805,1,0,1200,438,1,1199,dull,11134,2019-10-24_17h39.50.987,SurveyExpMetaMem,3.2.3,Win32,60
,,,,,,,,,,,,,,,,,,,,1,2.84499979,8,1.869999886,1,0,1200,842,1,1199,breathe,11134,2019-10-24_17h39.50.987,SurveyExpMetaMem,3.2.3,Win32,60
,,,,,,,,,,,,,,,,,,,,9,4.971999884,1,1.629999876,1,0,1200,910,1,1199,abusive,11134,2019-10-24_17h39.50.987,SurveyExpMetaMem,3.2.3,Win32,60
,,,,,,,,,,,,,,,,,,,,2,2.088000059,5,3.22300005,1,0,1200,565,1,1199,frozen,11134,2019-10-24_17h39.50.987,SurveyExpMetaMem,3.2.3,Win32,60
,,,,,,,,,,,,,,,,,,,,5,6.78399992,7,2.907999992,1,0,1200,299,1,1199,champion,11134,2019-10-24_17h39.50.987,SurveyExpMetaMem,3.2.3,Win32,60
,,,,,,,,,,,,,,,,,,,,7,4.375,3,4.255000114,1,0,1200,969,1,1199,whore,11134,2019-10-24_17h39.50.987,SurveyExpMetaMem,3.2.3,Win32,60
,,,,,,,,,,,,,,,,,,,,5,2.652999878,5,1.132999897,1,0,1200,501,1,1199,dustpan,11134,2019-10-24_17h39.50.987,SurveyExpMetaMem,3.2.3,Win32,60
,,,,,,,,,,,,,,,,,,,,7,2.983999968,5,2.507999897,1,0,1200,46,1,1199,god,11134,2019-10-24_17h39.50.987,SurveyExpMetaMem,3.2.3,Win32,60
,,,,,,,,,,,,,,,,,,,,3,2.128999949,6,1.792999983,1,0,1200,647,1,1199,accord,11134,2019-10-24_17h39.50.987,SurveyExpMetaMem,3.2.3,Win32,60
,,,,,,,,,,,,,,,,,,,,2,6.622999907,6,2.164000034,1,0,1200,544,1,1199,snail,11134,2019-10-24_17h39.50.987,SurveyExpMetaMem,3.2.3,Win32,60
,,,,,,,,,,,,,,,,,,,,7,8.536999941,9,0.96999979,1,0,1200,166,1,1199,unite,11134,2019-10-24_17h39.50.987,SurveyExpMetaMem,3.2.3,Win32,60
,,,,,,,,,,,,,,,,,,,,8,2.725999832,1,0.769999981,1,0,1200,985,1,1199,pollution,11134,2019-10-24_17h39.50.987,SurveyExpMetaMem,3.2.3,Win32,60
,,,,,,,,,,,,,,,,,,,,1,1.585999966,6,2.040999889,1,0,1200,690,1,1199,similar,11134,2019-10-24_17h39.50.987,SurveyExpMetaMem,3.2.3,Win32,60
,,,,,,,,,,,,,,,,,,,,1,0.960999966,9,0.870999813,1,0,1200,898,1,1199,kindness,11134,2019-10-24_17h39.50.987,SurveyExpMetaMem,3.2.3,Win32,60
,,,,,,,,,,,,,,,,,,,,6,3.174999952,8,2.169999838,1,0,1200,686,1,1199,phone,11134,2019-10-24_17h39.50.987,SurveyExpMetaMem,3.2.3,Win32,60
,,,,,,,,,,,,,,,,,,,,1,2.253999949,8,0.91899991,1,0,1200,31,1,1199,brownie,11134,2019-10-24_17h39.50.987,SurveyExpMetaMem,3.2.3,Win32,60
,,,,,,,,,,,,,,,,,,,,6,3.896999836,2,5.305999756,1,0,1200,484,1,1199,leave,11134,2019-10-24_17h39.50.987,SurveyExpMetaMem,3.2.3,Win32,60
,,,,,,,,,,,,,,,,,,,,7,4.534999847,6,2.697000027,1,0,1200,1188,1,1199,swear,11134,2019-10-24_17h39.50.987,SurveyExpMetaMem,3.2.3,Win32,60
,,,,,,,,,,,,,,,,,,,,7,5.902999878,1,1.121999979,1,0,1200,1102,1,1199,nuclear,11134,2019-10-24_17h39.50.987,SurveyExpMetaMem,3.2.3,Win32,60
,,,,,,,,,,,,,,,,,,,,2,1.671000004,7,2.105000019,1,0,1200,737,1,1199,lamb,11134,2019-10-24_17h39.50.987,SurveyExpMetaMem,3.2.3,Win32,60
,,,,,,,,,,,,,,,,,,,,4,3.252000093,6,0.975999832,1,0,1200,557,1,1199,class,11134,2019-10-24_17h39.50.987,SurveyExpMetaMem,3.2.3,Win32,60
,,,,,,,,,,,,,,,,,,,,4,3.775000095,7,2.471999884,1,0,1200,1175,1,1199,prostitute,11134,2019-10-24_17h39.50.987,SurveyExpMetaMem,3.2.3,Win32,60
,,,,,,,,,,,,,,,,,,,,1,3.723999739,9,1.023999929,1,0,1200,80,1,1199,wonderful,11134,2019-10-24_17h39.50.987,SurveyExpMetaMem,3.2.3,Win32,60
,,,,,,,,,,,,,,,,,,,,3,3.680999994,7,1.171999931,1,0,1200,588,1,1199,bandage,11134,2019-10-24_17h39.50.987,SurveyExpMetaMem,3.2.3,Win32,60
,,,,,,,,,,,,,,,,,,,,1,2.212999821,7,1.904999971,1,0,1200,648,1,1199,beads,11134,2019-10-24_17h39.50.987,SurveyExpMetaMem,3.2.3,Win32,60
,,,,,,,,,,,,,,,,,,,,4,2.481999874,7,2.290999889,1,0,1200,126,1,1199,rich,11134,2019-10-24_17h39.50.987,SurveyExpMetaMem,3.2.3,Win32,60
,,,,,,,,,,,,,,,,,,,,7,2.307999849,1,1.596999884,1,0,1200,340,1,1199,coward,11134,2019-10-24_17h39.50.987,SurveyExpMetaMem,3.2.3,Win32,60
,,,,,,,,,,,,,,,,,,,,3,3.937999964,7,1.799999952,1,0,1200,218,1,1199,charming,11134,2019-10-24_17h39.50.987,SurveyExpMetaMem,3.2.3,Win32,60
,,,,,,,,,,,,,,,,,,,,6,2.488999844,2,2.161000013,1,0,1200,1011,1,1199,robber,11134,2019-10-24_17h39.50.987,SurveyExpMetaMem,3.2.3,Win32,60
,,,,,,,,,,,,,,,,,,,,1,1.670000076,6,0.988999844,1,0,1200,515,1,1199,blues,11134,2019-10-24_17h39.50.987,SurveyExpMetaMem,3.2.3,Win32,60
,,,,,,,,,,,,,,,,,,,,1,2.480999947,5,2.740999937,1,0,1200,642,1,1199,newspaper,11134,2019-10-24_17h39.50.987,SurveyExpMetaMem,3.2.3,Win32,60
,,,,,,,,,,,,,,,,,,,,8,4.128999949,9,0.855999947,1,0,1200,193,1,1199,party,11134,2019-10-24_17h39.50.987,SurveyExpMetaMem,3.2.3,Win32,60
,,,,,,,,,,,,,,,,,,,,6,6.29399991,7,1.430999994,1,0,1200,182,1,1199,genius,11134,2019-10-24_17h39.50.987,SurveyExpMetaMem,3.2.3,Win32,60
,,,,,,,,,,,,,,,,,,,,6,4.640000105,2,1.786000013,1,0,1200,311,1,1199,discomfort,11134,2019-10-24_17h39.50.987,SurveyExpMetaMem,3.2.3,Win32,60
,,,,,,,,,,,,,,,,,,,,9,2.727999926,1,1.147000074,1,0,1200,336,1,1199,wasteful,11134,2019-10-24_17h39.50.987,SurveyExpMetaMem,3.2.3,Win32,60
,,,,,,,,,,,,,,,,,,,,9,1.349999905,1,0.427999973,1,0,1200,323,1,1199,ungrateful,11134,2019-10-24_17h39.50.987,SurveyExpMetaMem,3.2.3,Win32,60
,,,,,,,,,,,,,,,,,,,,7,2.623999834,9,0.926999807,1,0,1200,147,1,1199,cure,11134,2019-10-24_17h39.50.987,SurveyExpMetaMem,3.2.3,Win32,60
,,,,,,,,,,,,,,,,,,,,6,5.654000044,5,3.34800005,1,0,1200,1196,1,1199,breathless,11134,2019-10-24_17h39.50.987,SurveyExpMetaMem,3.2.3,Win32,60
,,,,,,,,,,,,,,,,,,,,6,2.917999983,2,2.438999891,1,0,1200,1105,1,1199,flee,11134,2019-10-24_17h39.50.987,SurveyExpMetaMem,3.2.3,Win32,60
,,,,,,,,,,,,,,,,,,,,1,1.819000006,8,1.27699995,1,0,1200,85,1,1199,like,11134,2019-10-24_17h39.50.987,SurveyExpMetaMem,3.2.3,Win32,60
,,,,,,,,,,,,,,,,,,,,2,3.252999783,5,1.372999907,1,0,1200,1168,1,1199,financial,11134,2019-10-24_17h39.50.987,SurveyExpMetaMem,3.2.3,Win32,60
,,,,,,,,,,,,,,,,,,,,7,4.536000013,6,2.588999987,1,0,1200,1099,1,1199,fire,11134,2019-10-24_17h39.50.987,SurveyExpMetaMem,3.2.3,Win32,60
,,,,,,,,,,,,,,,,,,,,1,4.003000021,8,1.312000036,1,0,1200,221,1,1199,sparkle,11134,2019-10-24_17h39.50.987,SurveyExpMetaMem,3.2.3,Win32,60
,,,,,,,,,,,,,,,,,,,,6,2.691999912,8,0.909999847,1,0,1200,132,1,1199,silly,11134,2019-10-24_17h39.50.987,SurveyExpMetaMem,3.2.3,Win32,60
,,,,,,,,,,,,,,,,,,,,7,4.374000072,3,2.486999989,1,0,1200,1012,1,1199,gunshot,11134,2019-10-24_17h39.50.987,SurveyExpMetaMem,3.2.3,Win32,60
,,,,,,,,,,,,,,,,,,,,1,1.746999979,8,1.786999941,1,0,1200,823,1,1199,nourish,11134,2019-10-24_17h39.50.987,SurveyExpMetaMem,3.2.3,Win32,60
,,,,,,,,,,,,,,,,,,,,2,3.624000072,9,1.210999966,1,0,1200,173,1,1199,hope,11134,2019-10-24_17h39.50.987,SurveyExpMetaMem,3.2.3,Win32,60
,,,,,,,,,,,,,,,,,,,,5,2.102999926,5,0.286999702,1,0,1200,471,1,1199,chump,11134,2019-10-24_17h39.50.987,SurveyExpMetaMem,3.2.3,Win32,60
,,,,,,,,,,,,,,,,,,,,6,2.555000067,8,2.194000006,1,0,1200,141,1,1199,surprise,11134,2019-10-24_17h39.50.987,SurveyExpMetaMem,3.2.3,Win32,60
,,,,,,,,,,,,,,,,,,,,6,3.700000048,4,2.237999916,1,0,1200,591,1,1199,bereavement,11134,2019-10-24_17h39.50.987,SurveyExpMetaMem,3.2.3,Win32,60
,,,,,,,,,,,,,,,,,,,,3,3.40199995,8,1.444999933,1,0,1200,113,1,1199,bridesmaid,11134,2019-10-24_17h39.50.987,SurveyExpMetaMem,3.2.3,Win32,60
,,,,,,,,,,,,,,,,,,,,7,4.239999771,1,1.491999865,1,0,1200,959,1,1199,divorce,11134,2019-10-24_17h39.50.987,SurveyExpMetaMem,3.2.3,Win32,60
,,,,,,,,,,,,,,,,,,,,1,1.828999996,3,2.073999882,1,0,1200,359,1,1199,bored,11134,2019-10-24_17h39.50.987,SurveyExpMetaMem,3.2.3,Win32,60
,,,,,,,,,,,,,,,,,,,,4,4.819999933,4,1.707000017,1,0,1200,564,1,1199,wane,11134,2019-10-24_17h39.50.987,SurveyExpMetaMem,3.2.3,Win32,60
,,,,,,,,,,,,,,,,,,,,7,5.924999952,2,2.076999903,1,0,1200,1021,1,1199,attack,11134,2019-10-24_17h39.50.987,SurveyExpMetaMem,3.2.3,Win32,60
,,,,,,,,,,,,,,,,,,,,2,1.826999903,7,2.683000088,1,0,1200,755,1,1199,soap,11134,2019-10-24_17h39.50.987,SurveyExpMetaMem,3.2.3,Win32,60
,,,,,,,,,,,,,,,,,,,,7,2.502000093,8,1.076999903,1,0,1200,295,1,1199,passion,11134,2019-10-24_17h39.50.987,SurveyExpMetaMem,3.2.3,Win32,60
,,,,,,,,,,,,,,,,,,,,1,1.660999775,8,2.570999861,1,0,1200,864,1,1199,blanket,11134,2019-10-24_17h39.50.987,SurveyExpMetaMem,3.2.3,Win32,60
,,,,,,,,,,,,,,,,,,,,7,5.667999983,3,4.244999886,1,0,1200,321,1,1199,wart,11134,2019-10-24_17h39.50.987,SurveyExpMetaMem,3.2.3,Win32,60
,,,,,,,,,,,,,,,,,,,,6,2.15899992,9,1.874999762,1,0,1200,125,1,1199,dancing,11134,2019-10-24_17h39.50.987,SurveyExpMetaMem,3.2.3,Win32,60
,,,,,,,,,,,,,,,,,,,,1,1.731999874,8,2.404000044,1,0,1200,804,1,1199,peach,11134,2019-10-24_17h39.50.987,SurveyExpMetaMem,3.2.3,Win32,60
,,,,,,,,,,,,,,,,,,,,7,6.019999981,8,2.086999893,1,0,1200,829,1,1199,innocent,11134,2019-10-24_17h39.50.987,SurveyExpMetaMem,3.2.3,Win32,60
,,,,,,,,,,,,,,,,,,,,7,3.569000006,6,5.514999866,1,0,1200,1129,1,1199,spanking,11134,2019-10-24_17h39.50.987,SurveyExpMetaMem,3.2.3,Win32,60
,,,,,,,,,,,,,,,,,,,,9,2.727999926,1,0.860999823,1,0,1200,915,1,1199,abuse,11134,2019-10-24_17h39.50.987,SurveyExpMetaMem,3.2.3,Win32,60
,,,,,,,,,,,,,,,,,,,,2,1.851999998,7,1.730000019,1,0,1200,653,1,1199,detail,11134,2019-10-24_17h39.50.987,SurveyExpMetaMem,3.2.3,Win32,60
,,,,,,,,,,,,,,,,,,,,7,3.461999893,7,2.862999916,1,0,1200,207,1,1199,erect,11134,2019-10-24_17h39.50.987,SurveyExpMetaMem,3.2.3,Win32,60
,,,,,,,,,,,,,,,,,,,,6,3.28399992,4,1.68900013,1,0,1200,986,1,1199,mad,11134,2019-10-24_17h39.50.987,SurveyExpMetaMem,3.2.3,Win32,60
,,,,,,,,,,,,,,,,,,,,5,3.61500001,5,2.247999907,1,0,1200,279,1,1199,bargain,11134,2019-10-24_17h39.50.987,SurveyExpMetaMem,3.2.3,Win32,60
,,,,,,,,,,,,,,,,,,,,6,3.554999828,4,3.601999998,1,0,1200,356,1,1199,mucous,11134,2019-10-24_17h39.50.987,SurveyExpMetaMem,3.2.3,Win32,60
,,,,,,,,,,,,,,,,,,,,7,2.070999861,2,2.037999868,1,0,1200,1020,1,1199,malice,11134,2019-10-24_17h39.50.987,SurveyExpMetaMem,3.2.3,Win32,60
,,,,,,,,,,,,,,,,,,,,9,2.50999999,1,0.753999949,1,0,1200,1010,1,1199,arson,11134,2019-10-24_17h39.50.987,SurveyExpMetaMem,3.2.3,Win32,60
,,,,,,,,,,,,,,,,,,,,6,5.984999895,4,6.396999836,1,0,1200,383,1,1199,messy,11134,2019-10-24_17h39.50.987,SurveyExpMetaMem,3.2.3,Win32,60
,,,,,,,,,,,,,,,,,,,,3,2.956999779,8,2.720999956,1,0,1200,873,1,1199,useful,11134,2019-10-24_17h39.50.987,SurveyExpMetaMem,3.2.3,Win32,60
,,,,,,,,,,,,,,,,,,,,4,4.039999962,7,1.17599988,1,0,1200,62,1,1199,interested,11134,2019-10-24_17h39.50.987,SurveyExpMetaMem,3.2.3,Win32,60
,,,,,,,,,,,,,,,,,,,,6,2.84100008,9,1.005999804,1,0,1200,68,1,1199,perfect,11134,2019-10-24_17h39.50.987,SurveyExpMetaMem,3.2.3,Win32,60
,,,,,,,,,,,,,,,,,,,,9,2.58100009,1,0.674000025,1,0,1200,992,1,1199,addict,11134,2019-10-24_17h39.50.987,SurveyExpMetaMem,3.2.3,Win32,60
,,,,,,,,,,,,,,,,,,,,2,2.27699995,5,3.087999821,1,0,1200,496,1,1199,slow,11134,2019-10-24_17h39.50.987,SurveyExpMetaMem,3.2.3,Win32,60
,,,,,,,,,,,,,,,,,,,,6,3.426000118,9,2.410999775,1,0,1200,124,1,1199,honeymoon,11134,2019-10-24_17h39.50.987,SurveyExpMetaMem,3.2.3,Win32,60
,,,,,,,,,,,,,,,,,,,,1,6.397000074,5,3.56099987,1,0,1200,660,1,1199,rock,11134,2019-10-24_17h39.50.987,SurveyExpMetaMem,3.2.3,Win32,60
,,,,,,,,,,,,,,,,,,,,3,2.611999989,6,2.573999882,1,0,1200,632,1,1199,avenue,11134,2019-10-24_17h39.50.987,SurveyExpMetaMem,3.2.3,Win32,60
,,,,,,,,,,,,,,,,,,,,1,1.368999958,6,4.623999834,1,0,1200,602,1,1199,vegetable,11134,2019-10-24_17h39.50.987,SurveyExpMetaMem,3.2.3,Win32,60
,,,,,,,,,,,,,,,,,,,,7,2.525999784,2,0.987999916,1,0,1200,366,1,1199,fatigue,11134,2019-10-24_17h39.50.987,SurveyExpMetaMem,3.2.3,Win32,60
,,,,,,,,,,,,,,,,,,,,1,2.121000051,7,2.413999796,1,0,1200,107,1,1199,sandwich,11134,2019-10-24_17h39.50.987,SurveyExpMetaMem,3.2.3,Win32,60
,,,,,,,,,,,,,,,,,,,,7,3.286999941,4,2.871000051,1,0,1200,583,1,1199,obey,11134,2019-10-24_17h39.50.987,SurveyExpMetaMem,3.2.3,Win32,60
,,,,,,,,,,,,,,,,,,,,5,3.644999981,5,3.922999859,1,0,1200,156,1,1199,gym,11134,2019-10-24_17h39.50.987,SurveyExpMetaMem,3.2.3,Win32,60
,,,,,,,,,,,,,,,,,,,,6,3.414999962,3,2.627000093,1,0,1200,497,1,1199,pungent,11134,2019-10-24_17h39.50.987,SurveyExpMetaMem,3.2.3,Win32,60
,,,,,,,,,,,,,,,,,,,,6,3.460000038,8,2.854999781,1,0,1200,190,1,1199,rescue,11134,2019-10-24_17h39.50.987,SurveyExpMetaMem,3.2.3,Win32,60
,,,,,,,,,,,,,,,,,,,,1,3.561000109,9,1.820999861,1,0,1200,189,1,1199,thoughtful,11134,2019-10-24_17h39.50.987,SurveyExpMetaMem,3.2.3,Win32,60
,,,,,,,,,,,,,,,,,,,,7,3.920999765,9,1.130999804,1,0,1200,214,1,1199,revive,11134,2019-10-24_17h39.50.987,SurveyExpMetaMem,3.2.3,Win32,60
,,,,,,,,,,,,,,,,,,,,1,1.836999893,6,2.586999893,1,0,1200,716,1,1199,blouse,11134,2019-10-24_17h39.50.987,SurveyExpMetaMem,3.2.3,Win32,60
,,,,,,,,,,,,,,,,,,,,5,2.013999939,5,0.360999823,1,0,1200,619,1,1199,pulpit,11134,2019-10-24_17h39.50.987,SurveyExpMetaMem,3.2.3,Win32,60
,,,,,,,,,,,,,,,,,,,,6,3.910999775,3,2.786999941,1,0,1200,351,1,1199,germs,11134,2019-10-24_17h39.50.987,SurveyExpMetaMem,3.2.3,Win32,60
,,,,,,,,,,,,,,,,,,,,5,4.502000093,5,0.903999805,1,0,1200,1155,1,1199,tangle,11134,2019-10-24_17h39.50.987,SurveyExpMetaMem,3.2.3,Win32,60
,,,,,,,,,,,,,,,,,,,,2,4.763999939,9,1.54399991,1,0,1200,287,1,1199,optimistic,11134,2019-10-24_17h39.50.987,SurveyExpMetaMem,3.2.3,Win32,60
,,,,,,,,,,,,,,,,,,,,7,3.875999928,1,1.514999866,1,0,1200,919,1,1199,loss,11134,2019-10-24_17h39.50.987,SurveyExpMetaMem,3.2.3,Win32,60
,,,,,,,,,,,,,,,,,,,,7,9.167999744,9,1.345000029,1,0,1200,837,1,1199,responsible,11134,2019-10-24_17h39.50.987,SurveyExpMetaMem,3.2.3,Win32,60
,,,,,,,,,,,,,,,,,,,,6,2.741999865,2,1.078999758,1,0,1200,404,1,1199,nuisance,11134,2019-10-24_17h39.50.987,SurveyExpMetaMem,3.2.3,Win32,60
,,,,,,,,,,,,,,,,,,,,7,3.589999914,6,3.431999922,1,0,1200,20,1,1199,climax,11134,2019-10-24_17h39.50.987,SurveyExpMetaMem,3.2.3,Win32,60
,,,,,,,,,,,,,,,,,,,,7,7.14199996,4,5.052999973,1,0,1200,537,1,1199,absurd,11134,2019-10-24_17h39.50.987,SurveyExpMetaMem,3.2.3,Win32,60
,,,,,,,,,,,,,,,,,,,,6,5.469000101,2,1.097999811,1,0,1200,926,1,1199,dead,11134,2019-10-24_17h39.50.987,SurveyExpMetaMem,3.2.3,Win32,60
,,,,,,,,,,,,,,,,,,,,7,3.034999847,2,1.822999954,1,0,1200,1043,1,1199,scold,11134,2019-10-24_17h39.50.987,SurveyExpMetaMem,3.2.3,Win32,60
,,,,,,,,,,,,,,,,,,,,6,5.289000034,4,1.377000093,1,0,1200,1103,1,1199,mob,11134,2019-10-24_17h39.50.987,SurveyExpMetaMem,3.2.3,Win32,60
,,,,,,,,,,,,,,,,,,,,5,2.298000097,5,0.973999977,1,0,1200,1112,1,1199,pressure,11134,2019-10-24_17h39.50.987,SurveyExpMetaMem,3.2.3,Win32,60
,,,,,,,,,,,,,,,,,,,,2,2.455999851,5,0.792999983,1,0,1200,75,1,1199,actor,11134,2019-10-24_17h39.50.987,SurveyExpMetaMem,3.2.3,Win32,60
,,,,,,,,,,,,,,,,,,,,2,2.849999905,8,1.337000132,1,0,1200,722,1,1199,consoled,11134,2019-10-24_17h39.50.987,SurveyExpMetaMem,3.2.3,Win32,60
,,,,,,,,,,,,,,,,,,,,6,4.089999914,8,1.529999733,1,0,1200,765,1,1199,candid,11134,2019-10-24_17h39.50.987,SurveyExpMetaMem,3.2.3,Win32,60
,,,,,,,,,,,,,,,,,,,,1,1.45299983,5,2.200000048,1,0,1200,617,1,1199,tomato,11134,2019-10-24_17h39.50.987,SurveyExpMetaMem,3.2.3,Win32,60
,,,,,,,,,,,,,,,,,,,,6,4.402999878,4,2.362999916,1,0,1200,1066,1,1199,annoy,11134,2019-10-24_17h39.50.987,SurveyExpMetaMem,3.2.3,Win32,60
,,,,,,,,,,,,,,,,,,,,2,2.212999821,8,1.426999807,1,0,1200,844,1,1199,soul,11134,2019-10-24_17h39.50.987,SurveyExpMetaMem,3.2.3,Win32,60
,,,,,,,,,,,,,,,,,,,,6,6.136999846,9,1.771999836,1,0,1200,135,1,1199,applause,11134,2019-10-24_17h39.50.987,SurveyExpMetaMem,3.2.3,Win32,60
,,,,,,,,,,,,,,,,,,,,6,3.902999878,7,2.247999907,1,0,1200,58,1,1199,boost,11134,2019-10-24_17h39.50.987,SurveyExpMetaMem,3.2.3,Win32,60
,,,,,,,,,,,,,,,,,,,,6,3.455999851,7,2.295000076,1,0,1200,226,1,1199,prize,11134,2019-10-24_17h39.50.987,SurveyExpMetaMem,3.2.3,Win32,60
,,,,,,,,,,,,,,,,,,,,7,3.451999903,1,1.093999863,1,0,1200,426,1,1199,con,11134,2019-10-24_17h39.50.987,SurveyExpMetaMem,3.2.3,Win32,60
,,,,,,,,,,,,,,,,,,,,1,2.885999918,7,1.404999971,1,0,1200,661,1,1199,cow,11134,2019-10-24_17h39.50.987,SurveyExpMetaMem,3.2.3,Win32,60
,,,,,,,,,,,,,,,,,,,,8,2.970000029,1,2.171000004,1,0,1200,303,1,1199,death,11134,2019-10-24_17h39.50.987,SurveyExpMetaMem,3.2.3,Win32,60
,,,,,,,,,,,,,,,,,,,,6,4.833999872,5,3.062000036,1,0,1200,241,1,1199,car,11134,2019-10-24_17h39.50.987,SurveyExpMetaMem,3.2.3,Win32,60
,,,,,,,,,,,,,,,,,,,,5,1.530999899,3,1.819999933,1,0,1200,560,1,1199,spurn,11134,2019-10-24_17h39.50.987,SurveyExpMetaMem,3.2.3,Win32,60
,,,,,,,,,,,,,,,,,,,,7,3.878999949,2,3.579999924,1,0,1200,1022,1,1199,creepy,11134,2019-10-24_17h39.50.987,SurveyExpMetaMem,3.2.3,Win32,60
,,,,,,,,,,,,,,,,,,,,1,2.430999994,9,1.005999804,1,0,1200,711,1,1199,sympathetic,11134,2019-10-24_17h39.50.987,SurveyExpMetaMem,3.2.3,Win32,60
,,,,,,,,,,,,,,,,,,,,4,5.803999901,4,2.688999891,1,0,1200,382,1,1199,vulnerable,11134,2019-10-24_17h39.50.987,SurveyExpMetaMem,3.2.3,Win32,60
,,,,,,,,,,,,,,,,,,,,1,2.437999964,8,1.56099987,1,0,1200,220,1,1199,reef,11134,2019-10-24_17h39.50.987,SurveyExpMetaMem,3.2.3,Win32,60
,,,,,,,,,,,,,,,,,,,,3,2.802000046,4,4.32799983,1,0,1200,406,1,1199,tired,11134,2019-10-24_17h39.50.987,SurveyExpMetaMem,3.2.3,Win32,60
,,,,,,,,,,,,,,,,,,,,6,3.99000001,4,3.622999907,1,0,1200,1122,1,1199,gossip,11134,2019-10-24_17h39.50.987,SurveyExpMetaMem,3.2.3,Win32,60
,,,,,,,,,,,,,,,,,,,,1,1.605999947,7,1.636999846,1,0,1200,277,1,1199,cupcake,11134,2019-10-24_17h39.50.987,SurveyExpMetaMem,3.2.3,Win32,60
,,,,,,,,,,,,,,,,,,,,2,1.921000004,8,2.312999964,1,0,1200,664,1,1199,quiet,11134,2019-10-24_17h39.50.987,SurveyExpMetaMem,3.2.3,Win32,60
,,,,,,,,,,,,,,,,,,,,5,3.642999887,5,0.465999842,1,0,1200,66,1,1199,zest,11134,2019-10-24_17h39.50.987,SurveyExpMetaMem,3.2.3,Win32,60
,,,,,,,,,,,,,,,,,,,,3,3.174999952,8,1.941999912,1,0,1200,708,1,1199,nursery,11134,2019-10-24_17h39.50.987,SurveyExpMetaMem,3.2.3,Win32,60
,,,,,,,,,,,,,,,,,,,,6,3.876999855,2,5.238999844,1,0,1200,1159,1,1199,rifle,11134,2019-10-24_17h39.50.987,SurveyExpMetaMem,3.2.3,Win32,60
,,,,,,,,,,,,,,,,,,,,1,2.253000021,7,1.269999981,1,0,1200,798,1,1199,crystal,11134,2019-10-24_17h39.50.987,SurveyExpMetaMem,3.2.3,Win32,60
,,,,,,,,,,,,,,,,,,,,5,2.787999868,6,1.099999905,1,0,1200,249,1,1199,award,11134,2019-10-24_17h39.50.987,SurveyExpMetaMem,3.2.3,Win32,60
,,,,,,,,,,,,,,,,,,,,6,2.753999949,8,1.463999987,1,0,1200,225,1,1199,strong,11134,2019-10-24_17h39.50.987,SurveyExpMetaMem,3.2.3,Win32,60
,,,,,,,,,,,,,,,,,,,,1,1.385999918,8,1.695999861,1,0,1200,839,1,1199,flower,11134,2019-10-24_17h39.50.987,SurveyExpMetaMem,3.2.3,Win32,60
,,,,,,,,,,,,,,,,,,,,6,2.893999815,6,3.444000006,1,0,1200,185,1,1199,flirt,11134,2019-10-24_17h39.50.987,SurveyExpMetaMem,3.2.3,Win32,60
,,,,,,,,,,,,,,,,,,,,1,2.865999937,6,2.64199996,1,0,1200,749,1,1199,glasses,11134,2019-10-24_17h39.50.987,SurveyExpMetaMem,3.2.3,Win32,60
,,,,,,,,,,,,,,,,,,,,3,5.053999901,8,1.629999876,1,0,1200,868,1,1199,grace,11134,2019-10-24_17h39.50.987,SurveyExpMetaMem,3.2.3,Win32,60
,,,,,,,,,,,,,,,,,,,,8,3.501999855,1,0.720999956,1,0,1200,1014,1,1199,destroy,11134,2019-10-24_17h39.50.987,SurveyExpMetaMem,3.2.3,Win32,60
,,,,,,,,,,,,,,,,,,,,9,1.506999969,1,0.570999861,1,0,1200,972,1,1199,homicide,11134,2019-10-24_17h39.50.987,SurveyExpMetaMem,3.2.3,Win32,60
,,,,,,,,,,,,,,,,,,,,9,3.469000101,2,1.476999998,1,0,1200,473,1,1199,senseless,11134,2019-10-24_17h39.50.987,SurveyExpMetaMem,3.2.3,Win32,60
,,,,,,,,,,,,,,,,,,,,9,1.66899991,1,0.946999788,1,0,1200,1087,1,1199,affair,11134,2019-10-24_17h39.50.987,SurveyExpMetaMem,3.2.3,Win32,60
,,,,,,,,,,,,,,,,,,,,7,6.528999805,3,3.470000029,1,0,1200,1083,1,1199,delayed,11134,2019-10-24_17h39.50.987,SurveyExpMetaMem,3.2.3,Win32,60
,,,,,,,,,,,,,,,,,,,,1,2.438999891,4,1.522000074,1,0,1200,524,1,1199,sigh,11134,2019-10-24_17h39.50.987,SurveyExpMetaMem,3.2.3,Win32,60
,,,,,,,,,,,,,,,,,,,,7,2.986000061,3,2.426000118,1,0,1200,1118,1,1199,frantic,11134,2019-10-24_17h39.50.987,SurveyExpMetaMem,3.2.3,Win32,60
,,,,,,,,,,,,,,,,,,,,5,2.825000048,6,1.394999981,1,0,1200,10,1,1199,cheerleader,11134,2019-10-24_17h39.50.987,SurveyExpMetaMem,3.2.3,Win32,60
,,,,,,,,,,,,,,,,,,,,4,2.844000101,6,1.470000029,1,0,1200,726,1,1199,crackers,11134,2019-10-24_17h39.50.987,SurveyExpMetaMem,3.2.3,Win32,60
,,,,,,,,,,,,,,,,,,,,2,1.371999979,7,1.256999969,1,0,1200,644,1,1199,farm,11134,2019-10-24_17h39.50.987,SurveyExpMetaMem,3.2.3,Win32,60
,,,,,,,,,,,,,,,,,,,,6,3.005000114,8,1.535999775,1,0,1200,106,1,1199,voyage,11134,2019-10-24_17h39.50.987,SurveyExpMetaMem,3.2.3,Win32,60
,,,,,,,,,,,,,,,,,,,,8,3.113999844,2,1.315999985,1,0,1200,1029,1,1199,abduction,11134,2019-10-24_17h39.50.987,SurveyExpMetaMem,3.2.3,Win32,60
,,,,,,,,,,,,,,,,,,,,7,5.888999939,3,4.211999893,1,0,1200,1126,1,1199,offensive,11134,2019-10-24_17h39.50.987,SurveyExpMetaMem,3.2.3,Win32,60
,,,,,,,,,,,,,,,,,,,,1,1.421000004,7,1.313999891,1,0,1200,801,1,1199,noon,11134,2019-10-24_17h39.50.987,SurveyExpMetaMem,3.2.3,Win32,60
,,,,,,,,,,,,,,,,,,,,6,4.037999868,4,2.072000027,1,0,1200,687,1,1199,skinny,11134,2019-10-24_17h39.50.987,SurveyExpMetaMem,3.2.3,Win32,60
,,,,,,,,,,,,,,,,,,,,1,2.671999931,8,1.171999931,1,0,1200,526,1,1199,dry,11134,2019-10-24_17h39.50.987,SurveyExpMetaMem,3.2.3,Win32,60
,,,,,,,,,,,,,,,,,,,,6,3.809999943,6,2.43599987,1,0,1200,1183,1,1199,emotional,11134,2019-10-24_17h39.50.987,SurveyExpMetaMem,3.2.3,Win32,60
,,,,,,,,,,,,,,,,,,,,5,2.965999842,5,1.51699996,1,0,1200,223,1,1199,fashion,11134,2019-10-24_17h39.50.987,SurveyExpMetaMem,3.2.3,Win32,60
,,,,,,,,,,,,,,,,,,,,7,5.65899992,2,0.805999756,1,0,1200,503,1,1199,sludge,11134,2019-10-24_17h39.50.987,SurveyExpMetaMem,3.2.3,Win32,60
,,,,,,,,,,,,,,,,,,,,2,6.565999746,9,1.769999981,1,0,1200,705,1,1199,tolerant,11134,2019-10-24_17h39.50.987,SurveyExpMetaMem,3.2.3,Win32,60
,,,,,,,,,,,,,,,,,,,,6,4.302000046,2,1.739999771,1,0,1200,347,1,1199,unpleasant,11134,2019-10-24_17h39.50.987,SurveyExpMetaMem,3.2.3,Win32,60
,,,,,,,,,,,,,,,,,,,,1,2.0849998,9,0.911000013,1,0,1200,231,1,1199,cherish,11134,2019-10-24_17h39.50.987,SurveyExpMetaMem,3.2.3,Win32,60
,,,,,,,,,,,,,,,,,,,,4,2.669999838,8,1.062000036,1,0,1200,240,1,1199,giggles,11134,2019-10-24_17h39.50.987,SurveyExpMetaMem,3.2.3,Win32,60
,,,,,,,,,,,,,,,,,,,,8,5.066999912,1,0.674000025,1,0,1200,984,1,1199,despairing,11134,2019-10-24_17h39.50.987,SurveyExpMetaMem,3.2.3,Win32,60
,,,,,,,,,,,,,,,,,,,,3,3.120999813,9,1.571000099,1,0,1200,47,1,1199,enjoy,11134,2019-10-24_17h39.50.987,SurveyExpMetaMem,3.2.3,Win32,60
,,,,,,,,,,,,,,,,,,,,6,4.652999878,9,1.085999966,1,0,1200,117,1,1199,powerful,11134,2019-10-24_17h39.50.987,SurveyExpMetaMem,3.2.3,Win32,60
,,,,,,,,,,,,,,,,,,,,6,4.703999996,9,0.923000097,1,0,1200,236,1,1199,amaze,11134,2019-10-24_17h39.50.987,SurveyExpMetaMem,3.2.3,Win32,60
,,,,,,,,,,,,,,,,,,,,7,5.121000051,2,0.980999947,1,0,1200,313,1,1199,rotten,11134,2019-10-24_17h39.50.987,SurveyExpMetaMem,3.2.3,Win32,60
,,,,,,,,,,,,,,,,,,,,6,2.43900013,4,1.414999962,1,0,1200,315,1,1199,zit,11134,2019-10-24_17h39.50.987,SurveyExpMetaMem,3.2.3,Win32,60
,,,,,,,,,,,,,,,,,,,,2,2.270999908,7,2.575999975,1,0,1200,552,1,1199,shadow,11134,2019-10-24_17h39.50.987,SurveyExpMetaMem,3.2.3,Win32,60
,,,,,,,,,,,,,,,,,,,,1,4.352999926,5,1.070999861,1,0,1200,790,1,1199,binoculars,11134,2019-10-24_17h39.50.987,SurveyExpMetaMem,3.2.3,Win32,60
,,,,,,,,,,,,,,,,,,,,3,7.737999916,8,0.940000057,1,0,1200,717,1,1199,modest,11134,2019-10-24_17h39.50.987,SurveyExpMetaMem,3.2.3,Win32,60
,,,,,,,,,,,,,,,,,,,,5,3.809000015,7,1.758999825,1,0,1200,109,1,1199,new,11134,2019-10-24_17h39.50.987,SurveyExpMetaMem,3.2.3,Win32,60
,,,,,,,,,,,,,,,,,,,,6,6.256000042,4,2.747999907,1,0,1200,399,1,1199,withdrawn,11134,2019-10-24_17h39.50.987,SurveyExpMetaMem,3.2.3,Win32,60
,,,,,,,,,,,,,,,,,,,,4,5.376999855,8,1.245999813,1,0,1200,91,1,1199,pretty,11134,2019-10-24_17h39.50.987,SurveyExpMetaMem,3.2.3,Win32,60
,,,,,,,,,,,,,,,,,,,,1,1.019999981,9,0.937999964,1,0,1200,852,1,1199,caring,11134,2019-10-24_17h39.50.987,SurveyExpMetaMem,3.2.3,Win32,60
,,,,,,,,,,,,,,,,,,,,7,2.979000092,2,1.215999842,1,0,1200,1027,1,1199,criticism,11134,2019-10-24_17h39.50.987,SurveyExpMetaMem,3.2.3,Win32,60
,,,,,,,,,,,,,,,,,,,,5,1.753999949,6,1.314999819,1,0,1200,1145,1,1199,officer,11134,2019-10-24_17h39.50.987,SurveyExpMetaMem,3.2.3,Win32,60
,,,,,,,,,,,,,,,,,,,,2,1.352999926,7,1.161000013,1,0,1200,682,1,1199,camel,11134,2019-10-24_17h39.50.987,SurveyExpMetaMem,3.2.3,Win32,60
,,,,,,,,,,,,,,,,,,,,6,3.89199996,4,2.611999989,1,0,1200,536,1,1199,vacant,11134,2019-10-24_17h39.50.987,SurveyExpMetaMem,3.2.3,Win32,60
,,,,,,,,,,,,,,,,,,,,5,4.871999741,2,1.289000034,1,0,1200,445,1,1199,bleak,11134,2019-10-24_17h39.50.987,SurveyExpMetaMem,3.2.3,Win32,60
,,,,,,,,,,,,,,,,,,,,7,5.273000002,2,1.859999895,1,0,1200,1039,1,1199,stalk,11134,2019-10-24_17h39.50.987,SurveyExpMetaMem,3.2.3,Win32,60
,,,,,,,,,,,,,,,,,,,,2,3.61500001,9,1.325999975,1,0,1200,828,1,1199,cooperative,11134,2019-10-24_17h39.50.987,SurveyExpMetaMem,3.2.3,Win32,60
,,,,,,,,,,,,,,,,,,,,1,2.746999979,5,0.825999737,1,0,1200,551,1,1199,coal,11134,2019-10-24_17h39.50.987,SurveyExpMetaMem,3.2.3,Win32,60
,,,,,,,,,,,,,,,,,,,,4,4.36899972,4,3.010999918,1,0,1200,489,1,1199,timid,11134,2019-10-24_17h39.50.987,SurveyExpMetaMem,3.2.3,Win32,60
,,,,,,,,,,,,,,,,,,,,2,1.775999784,8,1.723999977,1,0,1200,71,1,1199,spirit,11134,2019-10-24_17h39.50.987,SurveyExpMetaMem,3.2.3,Win32,60
,,,,,,,,,,,,,,,,,,,,6,7.735000134,9,1.471999884,1,0,1200,186,1,1199,holiday,11134,2019-10-24_17h39.50.987,SurveyExpMetaMem,3.2.3,Win32,60
,,,,,,,,,,,,,,,,,,,,6,3.678999901,9,1.117999792,1,0,1200,78,1,1199,energetic,11134,2019-10-24_17h39.50.987,SurveyExpMetaMem,3.2.3,Win32,60
,,,,,,,,,,,,,,,,,,,,7,11.02799988,2,0.855000019,1,0,1200,1024,1,1199,burn,11134,2019-10-24_17h39.50.987,SurveyExpMetaMem,3.2.3,Win32,60
,,,,,,,,,,,,,,,,,,,,1,3.464999914,5,0.521999836,1,0,1200,417,1,1199,dummy,11134,2019-10-24_17h39.50.987,SurveyExpMetaMem,3.2.3,Win32,60
,,,,,,,,,,,,,,,,,,,,6,2.152999878,2,1.729999781,1,0,1200,1030,1,1199,offend,11134,2019-10-24_17h39.50.987,SurveyExpMetaMem,3.2.3,Win32,60
,,,,,,,,,,,,,,,,,,,,6,6.095999956,3,1.70299983,1,0,1200,453,1,1199,prude,11134,2019-10-24_17h39.50.987,SurveyExpMetaMem,3.2.3,Win32,60
,,,,,,,,,,,,,,,,,,,,6,4.41899991,5,3.292000055,1,0,1200,523,1,1199,witch,11134,2019-10-24_17h39.50.987,SurveyExpMetaMem,3.2.3,Win32,60
,,,,,,,,,,,,,,,,,,,,5,2.704999924,3,1.79399991,1,0,1200,996,1,1199,sting,11134,2019-10-24_17h39.50.987,SurveyExpMetaMem,3.2.3,Win32,60
,,,,,,,,,,,,,,,,,,,,3,3.552000046,6,2.371000051,1,0,1200,764,1,1199,coin,11134,2019-10-24_17h39.50.987,SurveyExpMetaMem,3.2.3,Win32,60
,,,,,,,,,,,,,,,,,,,,4,2.985999823,5,2.422999859,1,0,1200,371,1,1199,weakness,11134,2019-10-24_17h39.50.987,SurveyExpMetaMem,3.2.3,Win32,60
,,,,,,,,,,,,,,,,,,,,6,4.294999838,2,1.178999901,1,0,1200,1088,1,1199,forbid,11134,2019-10-24_17h39.50.987,SurveyExpMetaMem,3.2.3,Win32,60
,,,,,,,,,,,,,,,,,,,,5,8.420000076,7,1.804999828,1,0,1200,59,1,1199,sports,11134,2019-10-24_17h39.50.987,SurveyExpMetaMem,3.2.3,Win32,60
,,,,,,,,,,,,,,,,,,,,7,3.569000006,6,1.878999949,1,0,1200,5,1,1199,drunk,11134,2019-10-24_17h39.50.987,SurveyExpMetaMem,3.2.3,Win32,60
,,,,,,,,,,,,,,,,,,,,5,8.604000092,3,1.432999849,1,0,1200,415,1,1199,grime,11134,2019-10-24_17h39.50.987,SurveyExpMetaMem,3.2.3,Win32,60
,,,,,,,,,,,,,,,,,,,,1,4.93599987,9,1.023000002,1,0,1200,881,1,1199,protected,11134,2019-10-24_17h39.50.987,SurveyExpMetaMem,3.2.3,Win32,60
,,,,,,,,,,,,,,,,,,,,2,1.16899991,8,1.402999878,1,0,1200,461,1,1199,ail,11134,2019-10-24_17h39.50.987,SurveyExpMetaMem,3.2.3,Win32,60
,,,,,,,,,,,,,,,,,,,,7,3.850999832,1,0.891000032,1,0,1200,342,1,1199,alienation,11134,2019-10-24_17h39.50.987,SurveyExpMetaMem,3.2.3,Win32,60
,,,,,,,,,,,,,,,,,,,,3,1.752999783,9,1.187999964,1,0,1200,775,1,1199,pancakes,11134,2019-10-24_17h39.50.987,SurveyExpMetaMem,3.2.3,Win32,60
,,,,,,,,,,,,,,,,,,,,4,3.703000069,6,1.519000053,1,0,1200,659,1,1199,hair,11134,2019-10-24_17h39.50.987,SurveyExpMetaMem,3.2.3,Win32,60
,,,,,,,,,,,,,,,,,,,,7,8.325999737,1,1.121000051,1,0,1200,1089,1,1199,ridicule,11134,2019-10-24_17h39.50.987,SurveyExpMetaMem,3.2.3,Win32,60
,,,,,,,,,,,,,,,,,,,,5,3.68599987,3,1.544999838,1,0,1200,409,1,1199,old,11134,2019-10-24_17h39.50.987,SurveyExpMetaMem,3.2.3,Win32,60
,,,,,,,,,,,,,,,,,,,,1,2.121999741,5,0.98699975,1,0,1200,513,1,1199,bland,11134,2019-10-24_17h39.50.987,SurveyExpMetaMem,3.2.3,Win32,60
,,,,,,,,,,,,,,,,,,,,5,5.875,2,2.240999937,1,0,1200,525,1,1199,stagnant,11134,2019-10-24_17h39.50.987,SurveyExpMetaMem,3.2.3,Win32,60
,,,,,,,,,,,,,,,,,,,,5,2.239000082,5,0.332999945,1,0,1200,599,1,1199,obstinate,11134,2019-10-24_17h39.50.987,SurveyExpMetaMem,3.2.3,Win32,60
,,,,,,,,,,,,,,,,,,,,4,8.95299983,6,1.338999987,1,0,1200,55,1,1199,rare,11134,2019-10-24_17h39.50.987,SurveyExpMetaMem,3.2.3,Win32,60
,,,,,,,,,,,,,,,,,,,,5,6.837999821,4,2.536999941,1,0,1200,1041,1,1199,sin,11134,2019-10-24_17h39.50.987,SurveyExpMetaMem,3.2.3,Win32,60
,,,,,,,,,,,,,,,,,,,,7,2.291999817,1,0.552999735,1,0,1200,338,1,1199,obesity,11134,2019-10-24_17h39.50.987,SurveyExpMetaMem,3.2.3,Win32,60
,,,,,,,,,,,,,,,,,,,,7,2.101999998,2,0.637000084,1,0,1200,1047,1,1199,psycho,11134,2019-10-24_17h39.50.987,SurveyExpMetaMem,3.2.3,Win32,60
,,,,,,,,,,,,,,,,,,,,6,2.421999931,3,3.323999882,1,0,1200,329,1,1199,worse,11134,2019-10-24_17h39.50.987,SurveyExpMetaMem,3.2.3,Win32,60
,,,,,,,,,,,,,,,,,,,,5,4.503999949,5,1.888000011,1,0,1200,620,1,1199,spray,11134,2019-10-24_17h39.50.987,SurveyExpMetaMem,3.2.3,Win32,60
,,,,,,,,,,,,,,,,,,,,3,4.391999722,4,2.039999723,1,0,1200,478,1,1199,numb,11134,2019-10-24_17h39.50.987,SurveyExpMetaMem,3.2.3,Win32,60
,,,,,,,,,,,,,,,,,,,,1,3.386999846,5,0.303999901,1,0,1200,772,1,1199,ornament,11134,2019-10-24_17h39.50.987,SurveyExpMetaMem,3.2.3,Win32,60
,,,,,,,,,,,,,,,,,,,,7,8.224999905,2,1.406999826,1,0,1200,989,1,1199,banish,11134,2019-10-24_17h39.50.987,SurveyExpMetaMem,3.2.3,Win32,60
,,,,,,,,,,,,,,,,,,,,6,4.893999815,1,1.503000021,1,0,1200,344,1,1199,pessimistic,11134,2019-10-24_17h39.50.987,SurveyExpMetaMem,3.2.3,Win32,60
,,,,,,,,,,,,,,,,,,,,1,1.802999973,6,1.190999985,1,0,1200,760,1,1199,shrimp,11134,2019-10-24_17h39.50.987,SurveyExpMetaMem,3.2.3,Win32,60
,,,,,,,,,,,,,,,,,,,,3,2.188999891,7,0.989000082,1,0,1200,797,1,1199,hamburger,11134,2019-10-24_17h39.50.987,SurveyExpMetaMem,3.2.3,Win32,60
,,,,,,,,,,,,,,,,,,,,2,4.618999958,9,1.072000027,1,0,1200,178,1,1199,alive,11134,2019-10-24_17h39.50.987,SurveyExpMetaMem,3.2.3,Win32,60
,,,,,,,,,,,,,,,,,,,,3,1.691999912,9,0.406999826,1,0,1200,35,1,1199,bright,11134,2019-10-24_17h39.50.987,SurveyExpMetaMem,3.2.3,Win32,60
,,,,,,,,,,,,,,,,,,,,5,1.504999876,4,1.438999891,1,0,1200,1190,1,1199,clench,11134,2019-10-24_17h39.50.987,SurveyExpMetaMem,3.2.3,Win32,60
,,,,,,,,,,,,,,,,,,,,7,5.91899991,2,1.805999756,1,0,1200,397,1,1199,complaint,11134,2019-10-24_17h39.50.987,SurveyExpMetaMem,3.2.3,Win32,60
,,,,,,,,,,,,,,,,,,,,1,3.523000002,3,1.780999899,1,0,1200,585,1,1199,tatter,11134,2019-10-24_17h39.50.987,SurveyExpMetaMem,3.2.3,Win32,60
,,,,,,,,,,,,,,,,,,,,1,3.694999933,6,0.409999847,1,0,1200,693,1,1199,key,11134,2019-10-24_17h39.50.987,SurveyExpMetaMem,3.2.3,Win32,60
,,,,,,,,,,,,,,,,,,,,4,3.771999836,6,1.003999949,1,0,1200,157,1,1199,reveal,11134,2019-10-24_17h39.50.987,SurveyExpMetaMem,3.2.3,Win32,60
,,,,,,,,,,,,,,,,,,,,7,2.587999821,1,2.312999964,1,0,1200,905,1,1199,suffocate,11134,2019-10-24_17h39.50.987,SurveyExpMetaMem,3.2.3,Win32,60
,,,,,,,,,,,,,,,,,,,,7,2.419999838,3,1.417999983,1,0,1200,1101,1,1199,scary,11134,2019-10-24_17h39.50.987,SurveyExpMetaMem,3.2.3,Win32,60
,,,,,,,,,,,,,,,,,,,,1,5.095000029,6,3.24000001,1,0,1200,742,1,1199,window,11134,2019-10-24_17h39.50.987,SurveyExpMetaMem,3.2.3,Win32,60
,,,,,,,,,,,,,,,,,,,,5,10.13100004,3,1.459000111,1,0,1200,361,1,1199,glum,11134,2019-10-24_17h39.50.987,SurveyExpMetaMem,3.2.3,Win32,60
,,,,,,,,,,,,,,,,,,,,2,2.243000031,7,1.269999981,1,0,1200,816,1,1199,hippotamus,11134,2019-10-24_17h39.50.987,SurveyExpMetaMem,3.2.3,Win32,60
,,,,,,,,,,,,,,,,,,,,8,5.496999979,1,1.037999868,1,0,1200,990,1,1199,enraged,11134,2019-10-24_17h39.50.987,SurveyExpMetaMem,3.2.3,Win32,60
,,,,,,,,,,,,,,,,,,,,5,2.593999863,5,2.798000097,1,0,1200,286,1,1199,superstar,11134,2019-10-24_17h39.50.987,SurveyExpMetaMem,3.2.3,Win32,60
,,,,,,,,,,,,,,,,,,,,7,2.872999907,9,1.135999918,1,0,1200,92,1,1199,justice,11134,2019-10-24_17h39.50.987,SurveyExpMetaMem,3.2.3,Win32,60
,,,,,,,,,,,,,,,,,,,,1,1.340999842,7,0.706999779,1,0,1200,787,1,1199,dawn,11134,2019-10-24_17h39.50.987,SurveyExpMetaMem,3.2.3,Win32,60
,,,,,,,,,,,,,,,,,,,,7,1.919999838,2,1.50999999,1,0,1200,976,1,1199,tumor,11134,2019-10-24_17h39.50.987,SurveyExpMetaMem,3.2.3,Win32,60
,,,,,,,,,,,,,,,,,,,,3,7.219000101,5,2.411000013,1,0,1200,13,1,1199,mingle,11134,2019-10-24_17h39.50.987,SurveyExpMetaMem,3.2.3,Win32,60
,,,,,,,,,,,,,,,,,,,,6,2.631000042,9,1.180000067,1,0,1200,183,1,1199,congratulate,11134,2019-10-24_17h39.50.987,SurveyExpMetaMem,3.2.3,Win32,60
,,,,,,,,,,,,,,,,,,,,3,4.512999773,3,0.924999952,1,0,1200,1092,1,1199,rattlesnake,11134,2019-10-24_17h39.50.987,SurveyExpMetaMem,3.2.3,Win32,60
,,,,,,,,,,,,,,,,,,,,3,3.517999887,6,1.690999985,1,0,1200,16,1,1199,sing,11134,2019-10-24_17h39.50.987,SurveyExpMetaMem,3.2.3,Win32,60
,,,,,,,,,,,,,,,,,,,,5,1.769000053,5,0.342000008,1,0,1200,6,1,1199,chest,11134,2019-10-24_17h39.50.987,SurveyExpMetaMem,3.2.3,Win32,60
,,,,,,,,,,,,,,,,,,,,2,3.246000051,6,1.798000097,1,0,1200,651,1,1199,bathroom,11134,2019-10-24_17h39.50.987,SurveyExpMetaMem,3.2.3,Win32,60
,,,,,,,,,,,,,,,,,,,,7,2.351999998,1,1.405999899,1,0,1200,1028,1,1199,terror,11134,2019-10-24_17h39.50.987,SurveyExpMetaMem,3.2.3,Win32,60
,,,,,,,,,,,,,,,,,,,,7,1.737999916,2,0.795000076,1,0,1200,325,1,1199,disability,11134,2019-10-24_17h39.50.987,SurveyExpMetaMem,3.2.3,Win32,60
,,,,,,,,,,,,,,,,,,,,7,2.420999765,2,0.273999929,1,0,1200,451,1,1199,lame,11134,2019-10-24_17h39.50.987,SurveyExpMetaMem,3.2.3,Win32,60
,,,,,,,,,,,,,,,,,,,,7,1.536999941,2,0.232000113,1,0,1200,307,1,1199,sick,11134,2019-10-24_17h39.50.987,SurveyExpMetaMem,3.2.3,Win32,60
,,,,,,,,,,,,,,,,,,,,5,3.720999956,6,1.980000019,1,0,1200,1162,1,1199,baffle,11134,2019-10-24_17h39.50.987,SurveyExpMetaMem,3.2.3,Win32,60
,,,,,,,,,,,,,,,,,,,,5,3.237999916,6,4.205999851,1,0,1200,586,1,1199,cab,11134,2019-10-24_17h39.50.987,SurveyExpMetaMem,3.2.3,Win32,60
,,,,,,,,,,,,,,,,,,,,7,7.424000025,2,1.053999901,1,0,1200,541,1,1199,apathy,11134,2019-10-24_17h39.50.987,SurveyExpMetaMem,3.2.3,Win32,60
,,,,,,,,,,,,,,,,,,,,1,1.308000088,7,1.190999985,1,0,1200,805,1,1199,autumn,11134,2019-10-24_17h39.50.987,SurveyExpMetaMem,3.2.3,Win32,60
,,,,,,,,,,,,,,,,,,,,5,2.896999836,6,0.572999954,1,0,1200,267,1,1199,bold,11134,2019-10-24_17h39.50.987,SurveyExpMetaMem,3.2.3,Win32,60
,,,,,,,,,,,,,,,,,,,,5,1.664000034,5,0.23699975,1,0,1200,437,1,1199,blubber,11134,2019-10-24_17h39.50.987,SurveyExpMetaMem,3.2.3,Win32,60
,,,,,,,,,,,,,,,,,,,,6,2.427999973,3,2.460000038,1,0,1200,1094,1,1199,disruptive,11134,2019-10-24_17h39.50.987,SurveyExpMetaMem,3.2.3,Win32,60
,,,,,,,,,,,,,,,,,,,,1,2.454999924,8,0.990999937,1,0,1200,9,1,1199,try,11134,2019-10-24_17h39.50.987,SurveyExpMetaMem,3.2.3,Win32,60
,,,,,,,,,,,,,,,,,,,,2,3.253999949,9,1.130000114,1,0,1200,26,1,1199,inspired,11134,2019-10-24_17h39.50.987,SurveyExpMetaMem,3.2.3,Win32,60
,,,,,,,,,,,,,,,,,,,,6,2.844000101,2,2.662999868,1,0,1200,968,1,1199,insult,11134,2019-10-24_17h39.50.987,SurveyExpMetaMem,3.2.3,Win32,60
,,,,,,,,,,,,,,,,,,,,6,2.979000092,2,1.763000011,1,0,1200,353,1,1199,blister,11134,2019-10-24_17h39.50.987,SurveyExpMetaMem,3.2.3,Win32,60
,,,,,,,,,,,,,,,,,,,,3,1.903000116,9,1.057999849,1,0,1200,83,1,1199,appreciative,11134,2019-10-24_17h39.50.987,SurveyExpMetaMem,3.2.3,Win32,60
,,,,,,,,,,,,,,,,,,,,5,5.224999905,4,1.019999981,1,0,1200,1091,1,1199,cram,11134,2019-10-24_17h39.50.987,SurveyExpMetaMem,3.2.3,Win32,60
,,,,,,,,,,,,,,,,,,,,1,1.585999966,9,0.470999956,1,0,1200,874,1,1199,butterfly,11134,2019-10-24_17h39.50.987,SurveyExpMetaMem,3.2.3,Win32,60
,,,,,,,,,,,,,,,,,,,,4,4.135999918,6,1.365999937,1,0,1200,639,1,1199,outlet,11134,2019-10-24_17h39.50.987,SurveyExpMetaMem,3.2.3,Win32,60
,,,,,,,,,,,,,,,,,,,,6,4.001999855,6,2.539000034,1,0,1200,1170,1,1199,police,11134,2019-10-24_17h39.50.987,SurveyExpMetaMem,3.2.3,Win32,60
,,,,,,,,,,,,,,,,,,,,5,6.057999849,3,1.910999775,1,0,1200,331,1,1199,casket,11134,2019-10-24_17h39.50.987,SurveyExpMetaMem,3.2.3,Win32,60
,,,,,,,,,,,,,,,,,,,,1,3.197000027,5,0.882999897,1,0,1200,679,1,1199,yellow,11134,2019-10-24_17h39.50.987,SurveyExpMetaMem,3.2.3,Win32,60
,,,,,,,,,,,,,,,,,,,,1,4.770999908,6,1.488999844,1,0,1200,493,1,1199,little,11134,2019-10-24_17h39.50.987,SurveyExpMetaMem,3.2.3,Win32,60
,,,,,,,,,,,,,,,,,,,,6,2.337000132,2,1.271999836,1,0,1200,414,1,1199,pity,11134,2019-10-24_17h39.50.987,SurveyExpMetaMem,3.2.3,Win32,60
,,,,,,,,,,,,,,,,,,,,6,3.001999855,3,1.453999996,1,0,1200,1120,1,1199,gun,11134,2019-10-24_17h39.50.987,SurveyExpMetaMem,3.2.3,Win32,60
,,,,,,,,,,,,,,,,,,,,7,2.022999763,1,1.125999928,1,0,1200,974,1,1199,roach,11134,2019-10-24_17h39.50.987,SurveyExpMetaMem,3.2.3,Win32,60
,,,,,,,,,,,,,,,,,,,,4,4.255999804,7,1.059999943,1,0,1200,788,1,1199,cook,11134,2019-10-24_17h39.50.987,SurveyExpMetaMem,3.2.3,Win32,60
,,,,,,,,,,,,,,,,,,,,7,3.625,2,1.773000002,1,0,1200,467,1,1199,FALSE,11134,2019-10-24_17h39.50.987,SurveyExpMetaMem,3.2.3,Win32,60
,,,,,,,,,,,,,,,,,,,,2,1.694999695,8,0.996000051,1,0,1200,706,1,1199,cat,11134,2019-10-24_17h39.50.987,SurveyExpMetaMem,3.2.3,Win32,60
,,,,,,,,,,,,,,,,,,,,5,2.707000017,9,0.90899992,1,0,1200,692,1,1199,medicine,11134,2019-10-24_17h39.50.987,SurveyExpMetaMem,3.2.3,Win32,60
,,,,,,,,,,,,,,,,,,,,6,3.895999908,5,5.342999935,1,0,1200,584,1,1199,anus,11134,2019-10-24_17h39.50.987,SurveyExpMetaMem,3.2.3,Win32,60
,,,,,,,,,,,,,,,,,,,,3,8.019000053,6,1.159999847,1,0,1200,877,1,1199,bless,11134,2019-10-24_17h39.50.987,SurveyExpMetaMem,3.2.3,Win32,60
,,,,,,,,,,,,,,,,,,,,6,7.609999895,1,1.143999815,1,0,1200,345,1,1199,unfortunate,11134,2019-10-24_17h39.50.987,SurveyExpMetaMem,3.2.3,Win32,60
,,,,,,,,,,,,,,,,,,,,1,1.841999769,6,2.547999859,1,0,1200,861,1,1199,nectar,11134,2019-10-24_17h39.50.987,SurveyExpMetaMem,3.2.3,Win32,60
,,,,,,,,,,,,,,,,,,,,7,3.829999924,2,0.569999933,1,0,1200,1144,1,1199,yelp,11134,2019-10-24_17h39.50.987,SurveyExpMetaMem,3.2.3,Win32,60
,,,,,,,,,,,,,,,,,,,,6,4.838999748,6,2.659999847,1,0,1200,202,1,1199,mercy,11134,2019-10-24_17h39.50.987,SurveyExpMetaMem,3.2.3,Win32,60
,,,,,,,,,,,,,,,,,,,,4,5.269000053,4,2.011999846,1,0,1200,430,1,1199,cancel,11134,2019-10-24_17h39.50.987,SurveyExpMetaMem,3.2.3,Win32,60
,,,,,,,,,,,,,,,,,,,,2,2.845000029,8,1.381000042,1,0,1200,876,1,1199,politeness,11134,2019-10-24_17h39.50.987,SurveyExpMetaMem,3.2.3,Win32,60
,,,,,,,,,,,,,,,,,,,,8,2.052999973,1,1.063999891,1,0,1200,1049,1,1199,electrocute,11134,2019-10-24_17h39.50.987,SurveyExpMetaMem,3.2.3,Win32,60
,,,,,,,,,,,,,,,,,,,,7,1.770999908,2,1.105999947,1,0,1200,999,1,1199,burdened,11134,2019-10-24_17h39.50.987,SurveyExpMetaMem,3.2.3,Win32,60
,,,,,,,,,,,,,,,,,,,,4,5.561999798,3,5.22699976,1,0,1200,528,1,1199,dirt,11134,2019-10-24_17h39.50.987,SurveyExpMetaMem,3.2.3,Win32,60
,,,,,,,,,,,,,,,,,,,,7,2.485000134,9,2.256999969,1,0,1200,21,1,1199,game,11134,2019-10-24_17h39.50.987,SurveyExpMetaMem,3.2.3,Win32,60
,,,,,,,,,,,,,,,,,,,,5,2.720999956,5,0.519999981,1,0,1200,60,1,1199,bikini,11134,2019-10-24_17h39.50.987,SurveyExpMetaMem,3.2.3,Win32,60
,,,,,,,,,,,,,,,,,,,,3,3.592000008,6,1.138999939,1,0,1200,25,1,1199,charisma,11134,2019-10-24_17h39.50.987,SurveyExpMetaMem,3.2.3,Win32,60
,,,,,,,,,,,,,,,,,,,,6,2.835000038,4,2.951999903,1,0,1200,1040,1,1199,communism,11134,2019-10-24_17h39.50.987,SurveyExpMetaMem,3.2.3,Win32,60
,,,,,,,,,,,,,,,,,,,,7,1.921000004,2,0.602999926,1,0,1200,494,1,1199,butcher,11134,2019-10-24_17h39.50.987,SurveyExpMetaMem,3.2.3,Win32,60
,,,,,,,,,,,,,,,,,,,,1,1.451999903,7,0.825000048,1,0,1200,643,1,1199,library,11134,2019-10-24_17h39.50.987,SurveyExpMetaMem,3.2.3,Win32,60
,,,,,,,,,,,,,,,,,,,,7,4.176999807,1,0.740999937,1,0,1200,997,1,1199,injury,11134,2019-10-24_17h39.50.987,SurveyExpMetaMem,3.2.3,Win32,60
,,,,,,,,,,,,,,,,,,,,7,1.207000017,2,1.255999804,1,0,1200,930,1,1199,poison,11134,2019-10-24_17h39.50.987,SurveyExpMetaMem,3.2.3,Win32,60
,,,,,,,,,,,,,,,,,,,,6,2.625999928,6,3.921999931,1,0,1200,154,1,1199,race,11134,2019-10-24_17h39.50.987,SurveyExpMetaMem,3.2.3,Win32,60
,,,,,,,,,,,,,,,,,,,,1,2.184999943,6,1.508000135,1,0,1200,554,1,1199,label,11134,2019-10-24_17h39.50.987,SurveyExpMetaMem,3.2.3,Win32,60
,,,,,,,,,,,,,,,,,,,,3,4.654000044,7,0.970000029,1,0,1200,123,1,1199,favorite,11134,2019-10-24_17h39.50.987,SurveyExpMetaMem,3.2.3,Win32,60
,,,,,,,,,,,,,,,,,,,,7,5.458999872,1,1.002999783,1,0,1200,1131,1,1199,envious,11134,2019-10-24_17h39.50.987,SurveyExpMetaMem,3.2.3,Win32,60
,,,,,,,,,,,,,,,,,,,,2,2.156999826,9,1.25999999,1,0,1200,133,1,1199,prosperous,11134,2019-10-24_17h39.50.987,SurveyExpMetaMem,3.2.3,Win32,60
,,,,,,,,,,,,,,,,,,,,6,3.926999807,5,2.02699995,1,0,1200,34,1,1199,personality,11134,2019-10-24_17h39.50.987,SurveyExpMetaMem,3.2.3,Win32,60
,,,,,,,,,,,,,,,,,,,,6,9.55099988,2,1.262999773,1,0,1200,1119,1,1199,confusion,11134,2019-10-24_17h39.50.987,SurveyExpMetaMem,3.2.3,Win32,60
,,,,,,,,,,,,,,,,,,,,2,1.856999874,9,2.253999949,1,0,1200,869,1,1199,assure,11134,2019-10-24_17h39.50.987,SurveyExpMetaMem,3.2.3,Win32,60
,,,,,,,,,,,,,,,,,,,,7,2.707999945,2,1.074999809,1,0,1200,924,1,1199,terrible,11134,2019-10-24_17h39.50.987,SurveyExpMetaMem,3.2.3,Win32,60
,,,,,,,,,,,,,,,,,,,,7,1.403999805,2,1.985999823,1,0,1200,973,1,1199,anger,11134,2019-10-24_17h39.50.987,SurveyExpMetaMem,3.2.3,Win32,60
,,,,,,,,,,,,,,,,,,,,6,5.056999922,1,2.453999758,1,0,1200,301,1,1199,sad,11134,2019-10-24_17h39.50.987,SurveyExpMetaMem,3.2.3,Win32,60
,,,,,,,,,,,,,,,,,,,,4,4.302999973,6,0.860999823,1,0,1200,69,1,1199,special,11134,2019-10-24_17h39.50.987,SurveyExpMetaMem,3.2.3,Win32,60
,,,,,,,,,,,,,,,,,,,,7,3.052999735,1,1.657999992,1,0,1200,1167,1,1199,bribe,11134,2019-10-24_17h39.50.987,SurveyExpMetaMem,3.2.3,Win32,60
,,,,,,,,,,,,,,,,,,,,6,4.401000023,5,3.064999819,1,0,1200,118,1,1199,conquer,11134,2019-10-24_17h39.50.987,SurveyExpMetaMem,3.2.3,Win32,60
,,,,,,,,,,,,,,,,,,,,4,4.617000103,4,4.637999773,1,0,1200,587,1,1199,dissolve,11134,2019-10-24_17h39.50.987,SurveyExpMetaMem,3.2.3,Win32,60
,,,,,,,,,,,,,,,,,,,,3,5.923000097,8,2.065000057,1,0,1200,872,1,1199,dignified,11134,2019-10-24_17h39.50.987,SurveyExpMetaMem,3.2.3,Win32,60
,,,,,,,,,,,,,,,,,,,,3,2.815000057,3,1.269999981,1,0,1200,1084,1,1199,uneasy,11134,2019-10-24_17h39.50.987,SurveyExpMetaMem,3.2.3,Win32,60
,,,,,,,,,,,,,,,,,,,,6,2.398999929,3,2.072999716,1,0,1200,1161,1,1199,shock,11134,2019-10-24_17h39.50.987,SurveyExpMetaMem,3.2.3,Win32,60
,,,,,,,,,,,,,,,,,,,,3,2.898000002,6,1.312000036,1,0,1200,38,1,1199,cheeseburger,11134,2019-10-24_17h39.50.987,SurveyExpMetaMem,3.2.3,Win32,60
,,,,,,,,,,,,,,,,,,,,2,4.001999855,6,1.404999971,1,0,1200,791,1,1199,shoes,11134,2019-10-24_17h39.50.987,SurveyExpMetaMem,3.2.3,Win32,60
,,,,,,,,,,,,,,,,,,,,2,2.236000061,7,1.321999788,1,0,1200,724,1,1199,owl,11134,2019-10-24_17h39.50.987,SurveyExpMetaMem,3.2.3,Win32,60
,,,,,,,,,,,,,,,,,,,,7,2.191999912,3,2.478999853,1,0,1200,998,1,1199,virus,11134,2019-10-24_17h39.50.987,SurveyExpMetaMem,3.2.3,Win32,60
,,,,,,,,,,,,,,,,,,,,6,7.091999769,1,1.157999754,1,0,1200,381,1,1199,sloppy,11134,2019-10-24_17h39.50.987,SurveyExpMetaMem,3.2.3,Win32,60
,,,,,,,,,,,,,,,,,,,,5,5.698999882,5,3.289000034,1,0,1200,243,1,1199,fame,11134,2019-10-24_17h39.50.987,SurveyExpMetaMem,3.2.3,Win32,60
,,,,,,,,,,,,,,,,,,,,7,2.120000124,1,0.786999941,1,0,1200,354,1,1199,cowardice,11134,2019-10-24_17h39.50.987,SurveyExpMetaMem,3.2.3,Win32,60
,,,,,,,,,,,,,,,,,,,,3,2.061999798,5,3.256999969,1,0,1200,447,1,1199,dishes,11134,2019-10-24_17h39.50.987,SurveyExpMetaMem,3.2.3,Win32,60
,,,,,,,,,,,,,,,,,,,,6,4.904999971,3,2.265999794,1,0,1200,343,1,1199,fever,11134,2019-10-24_17h39.50.987,SurveyExpMetaMem,3.2.3,Win32,60
,,,,,,,,,,,,,,,,,,,,1,1.52699995,5,1.473999977,1,0,1200,604,1,1199,lamp,11134,2019-10-24_17h39.50.987,SurveyExpMetaMem,3.2.3,Win32,60
,,,,,,,,,,,,,,,,,,,,1,1.490999699,8,1.194999933,1,0,1200,704,1,1199,flute,11134,2019-10-24_17h39.50.987,SurveyExpMetaMem,3.2.3,Win32,60
,,,,,,,,,,,,,,,,,,,,6,3.569000006,3,3.519999981,1,0,1200,1114,1,1199,foe,11134,2019-10-24_17h39.50.987,SurveyExpMetaMem,3.2.3,Win32,60
,,,,,,,,,,,,,,,,,,,,6,1.670999765,8,0.973999977,1,0,1200,116,1,1199,carnival,11134,2019-10-24_17h39.50.987,SurveyExpMetaMem,3.2.3,Win32,60
,,,,,,,,,,,,,,,,,,,,2,2.618000031,8,1.078000069,1,0,1200,799,1,1199,precise,11134,2019-10-24_17h39.50.987,SurveyExpMetaMem,3.2.3,Win32,60
,,,,,,,,,,,,,,,,,,,,7,4.27699995,3,3.205999851,1,0,1200,670,1,1199,urinate,11134,2019-10-24_17h39.50.987,SurveyExpMetaMem,3.2.3,Win32,60
,,,,,,,,,,,,,,,,,,,,1,4.41899991,6,2.876999855,1,0,1200,684,1,1199,send,11134,2019-10-24_17h39.50.987,SurveyExpMetaMem,3.2.3,Win32,60
,,,,,,,,,,,,,,,,,,,,7,6.059999943,2,2.023000002,1,0,1200,396,1,1199,unpopular,11134,2019-10-24_17h39.50.987,SurveyExpMetaMem,3.2.3,Win32,60
,,,,,,,,,,,,,,,,,,,,1,2.553999901,5,0.59499979,1,0,1200,740,1,1199,groceries,11134,2019-10-24_17h39.50.987,SurveyExpMetaMem,3.2.3,Win32,60
,,,,,,,,,,,,,,,,,,,,1,1.478999853,5,0.719000101,1,0,1200,683,1,1199,scarf,11134,2019-10-24_17h39.50.987,SurveyExpMetaMem,3.2.3,Win32,60
,,,,,,,,,,,,,,,,,,,,1,2.570999861,9,0.708999872,1,0,1200,139,1,1199,generosity,11134,2019-10-24_17h39.50.987,SurveyExpMetaMem,3.2.3,Win32,60
,,,,,,,,,,,,,,,,,,,,6,4.057999849,2,0.906999826,1,0,1200,379,1,1199,slob,11134,2019-10-24_17h39.50.987,SurveyExpMetaMem,3.2.3,Win32,60
,,,,,,,,,,,,,,,,,,,,7,2.919999838,2,1.832000017,1,0,1200,942,1,1199,aggravation,11134,2019-10-24_17h39.50.987,SurveyExpMetaMem,3.2.3,Win32,60
,,,,,,,,,,,,,,,,,,,,1,1.241999865,8,1.320999861,1,0,1200,796,1,1199,rose,11134,2019-10-24_17h39.50.987,SurveyExpMetaMem,3.2.3,Win32,60
,,,,,,,,,,,,,,,,,,,,6,3.482999802,3,1.276000023,1,0,1200,1072,1,1199,bothered,11134,2019-10-24_17h39.50.987,SurveyExpMetaMem,3.2.3,Win32,60
,,,,,,,,,,,,,,,,,,,,1,1.652999878,5,1.110000134,1,0,1200,678,1,1199,lightbulb,11134,2019-10-24_17h39.50.987,SurveyExpMetaMem,3.2.3,Win32,60
,,,,,,,,,,,,,,,,,,,,4,6.253999949,4,2.138000011,1,0,1200,1111,1,1199,bruise,11134,2019-10-24_17h39.50.987,SurveyExpMetaMem,3.2.3,Win32,60
,,,,,,,,,,,,,,,,,,,,6,3.161000013,1,0.808000088,1,0,1200,322,1,1199,widow,11134,2019-10-24_17h39.50.987,SurveyExpMetaMem,3.2.3,Win32,60
,,,,,,,,,,,,,,,,,,,,5,5.902999878,5,3.519000053,1,0,1200,593,1,1199,errand,11134,2019-10-24_17h39.50.987,SurveyExpMetaMem,3.2.3,Win32,60
,,,,,,,,,,,,,,,,,,,,6,4.521999836,2,0.863999844,1,0,1200,970,1,1199,worry,11134,2019-10-24_17h39.50.987,SurveyExpMetaMem,3.2.3,Win32,60
,,,,,,,,,,,,,,,,,,,,1,1.319999933,8,0.923999786,1,0,1200,850,1,1199,lake,11134,2019-10-24_17h39.50.987,SurveyExpMetaMem,3.2.3,Win32,60
,,,,,,,,,,,,,,,,,,,,2,1.075999975,6,2.349999905,1,0,1200,738,1,1199,horse,11134,2019-10-24_17h39.50.987,SurveyExpMetaMem,3.2.3,Win32,60
,,,,,,,,,,,,,,,,,,,,6,5.491999865,2,1.112999916,1,0,1200,1147,1,1199,demand,11134,2019-10-24_17h39.50.987,SurveyExpMetaMem,3.2.3,Win32,60
,,,,,,,,,,,,,,,,,,,,1,1.703999758,7,1.589999914,1,0,1200,853,1,1199,breeze,11134,2019-10-24_17h39.50.987,SurveyExpMetaMem,3.2.3,Win32,60
,,,,,,,,,,,,,,,,,,,,1,3.164000034,6,1.96999979,1,0,1200,747,1,1199,furniture,11134,2019-10-24_17h39.50.987,SurveyExpMetaMem,3.2.3,Win32,60
,,,,,,,,,,,,,,,,,,,,8,6.203999758,1,1.037999868,1,0,1200,1123,1,1199,haunt,11134,2019-10-24_17h39.50.987,SurveyExpMetaMem,3.2.3,Win32,60
,,,,,,,,,,,,,,,,,,,,6,2.121999979,3,1.273999929,1,0,1200,960,1,1199,irritated,11134,2019-10-24_17h39.50.987,SurveyExpMetaMem,3.2.3,Win32,60
,,,,,,,,,,,,,,,,,,,,2,2.263000011,6,1.597999811,1,0,1200,744,1,1199,village,11134,2019-10-24_17h39.50.987,SurveyExpMetaMem,3.2.3,Win32,60
,,,,,,,,,,,,,,,,,,,,1,1.91899991,7,1.4599998,1,0,1200,691,1,1199,circle,11134,2019-10-24_17h39.50.987,SurveyExpMetaMem,3.2.3,Win32,60
,,,,,,,,,,,,,,,,,,,,3,5.302000046,9,1.171999931,1,0,1200,30,1,1199,impressed,11134,2019-10-24_17h39.50.987,SurveyExpMetaMem,3.2.3,Win32,60
,,,,,,,,,,,,,,,,,,,,7,3.741999865,8,1.370999813,1,0,1200,568,1,1199,therapy,11134,2019-10-24_17h39.50.987,SurveyExpMetaMem,3.2.3,Win32,60
,,,,,,,,,,,,,,,,,,,,3,4.857999802,8,2.479000092,1,0,1200,95,1,1199,giggle,11134,2019-10-24_17h39.50.987,SurveyExpMetaMem,3.2.3,Win32,60
,,,,,,,,,,,,,,,,,,,,1,2.479000092,9,0.605000019,1,0,1200,196,1,1199,smile,11134,2019-10-24_17h39.50.987,SurveyExpMetaMem,3.2.3,Win32,60
,,,,,,,,,,,,,,,,,,,,6,2.003999949,3,3.976000071,1,0,1200,1017,1,1199,aggravated,11134,2019-10-24_17h39.50.987,SurveyExpMetaMem,3.2.3,Win32,60
,,,,,,,,,,,,,,,,,,,,5,5.243999958,5,2.769999981,1,0,1200,612,1,1199,propeller,11134,2019-10-24_17h39.50.987,SurveyExpMetaMem,3.2.3,Win32,60
,,,,,,,,,,,,,,,,,,,,1,1.63499999,7,1.144999981,1,0,1200,761,1,1199,corn,11134,2019-10-24_17h39.50.987,SurveyExpMetaMem,3.2.3,Win32,60
,,,,,,,,,,,,,,,,,,,,4,4.370000124,6,3.538999796,1,0,1200,208,1,1199,wild,11134,2019-10-24_17h39.50.987,SurveyExpMetaMem,3.2.3,Win32,60
,,,,,,,,,,,,,,,,,,,,6,6.141000032,3,0.904999971,1,0,1200,567,1,1199,folly,11134,2019-10-24_17h39.50.987,SurveyExpMetaMem,3.2.3,Win32,60
,,,,,,,,,,,,,,,,,,,,1,2.29399991,8,1.587999821,1,0,1200,888,1,1199,refreshment,11134,2019-10-24_17h39.50.987,SurveyExpMetaMem,3.2.3,Win32,60
,,,,,,,,,,,,,,,,,,,,6,3.103999853,4,1.072999954,1,0,1200,952,1,1199,troubled,11134,2019-10-24_17h39.50.987,SurveyExpMetaMem,3.2.3,Win32,60
,,,,,,,,,,,,,,,,,,,,1,3.684000015,5,2.434000015,1,0,1200,656,1,1199,number,11134,2019-10-24_17h39.50.987,SurveyExpMetaMem,3.2.3,Win32,60
,,,,,,,,,,,,,,,,,,,,7,3.328999996,8,1.582000017,1,0,1200,792,1,1199,moral,11134,2019-10-24_17h39.50.987,SurveyExpMetaMem,3.2.3,Win32,60
,,,,,,,,,,,,,,,,,,,,7,4.095999956,2,3.365999937,1,0,1200,1073,1,1199,bitch,11134,2019-10-24_17h39.50.987,SurveyExpMetaMem,3.2.3,Win32,60
,,,,,,,,,,,,,,,,,,,,6,5.806999922,3,4.852999926,1,0,1200,457,1,1199,confuse,11134,2019-10-24_17h39.50.987,SurveyExpMetaMem,3.2.3,Win32,60
,,,,,,,,,,,,,,,,,,,,2,2.995999813,8,0.869999886,1,0,1200,27,1,1199,gourmet,11134,2019-10-24_17h39.50.987,SurveyExpMetaMem,3.2.3,Win32,60
,,,,,,,,,,,,,,,,,,,,7,3.756999731,2,1.186999798,1,0,1200,456,1,1199,piss,11134,2019-10-24_17h39.50.987,SurveyExpMetaMem,3.2.3,Win32,60
,,,,,,,,,,,,,,,,,,,,1,1.11899972,8,1.119999886,1,0,1200,43,1,1199,diamond,11134,2019-10-24_17h39.50.987,SurveyExpMetaMem,3.2.3,Win32,60
,,,,,,,,,,,,,,,,,,,,6,3.003999949,4,2.391000032,1,0,1200,1158,1,1199,dentist,11134,2019-10-24_17h39.50.987,SurveyExpMetaMem,3.2.3,Win32,60
,,,,,,,,,,,,,,,,,,,,6,3.009000063,2,1.040999889,1,0,1200,1074,1,1199,detain,11134,2019-10-24_17h39.50.987,SurveyExpMetaMem,3.2.3,Win32,60
,,,,,,,,,,,,,,,,,,,,6,2.871000051,4,0.320999861,1,0,1200,306,1,1199,gloom,11134,2019-10-24_17h39.50.987,SurveyExpMetaMem,3.2.3,Win32,60
,,,,,,,,,,,,,,,,,,,,3,4.976999998,9,0.945999861,1,0,1200,130,1,1199,great,11134,2019-10-24_17h39.50.987,SurveyExpMetaMem,3.2.3,Win32,60
,,,,,,,,,,,,,,,,,,,,6,3.092999935,3,1.613999844,1,0,1200,407,1,1199,handicap,11134,2019-10-24_17h39.50.987,SurveyExpMetaMem,3.2.3,Win32,60
,,,,,,,,,,,,,,,,,,,,2,2.895999908,8,1.636999846,1,0,1200,636,1,1199,refine,11134,2019-10-24_17h39.50.987,SurveyExpMetaMem,3.2.3,Win32,60
,,,,,,,,,,,,,,,,,,,,1,1.555000067,5,0.728999853,1,0,1200,63,1,1199,clothes,11134,2019-10-24_17h39.50.987,SurveyExpMetaMem,3.2.3,Win32,60
,,,,,,,,,,,,,,,,,,,,5,2.318000078,5,0.220999956,1,0,1200,375,1,1199,manure,11134,2019-10-24_17h39.50.987,SurveyExpMetaMem,3.2.3,Win32,60
,,,,,,,,,,,,,,,,,,,,2,1.963999987,6,1.11500001,1,0,1200,774,1,1199,leaves,11134,2019-10-24_17h39.50.987,SurveyExpMetaMem,3.2.3,Win32,60
,,,,,,,,,,,,,,,,,,,,5,3.103999853,5,2.135999918,1,0,1200,553,1,1199,corner,11134,2019-10-24_17h39.50.987,SurveyExpMetaMem,3.2.3,Win32,60
,,,,,,,,,,,,,,,,,,,,5,1.196999788,5,0.372999907,1,0,1200,694,1,1199,pecan,11134,2019-10-24_17h39.50.987,SurveyExpMetaMem,3.2.3,Win32,60
,,,,,,,,,,,,,,,,,,,,7,3.04399991,2,2.355000019,1,0,1200,369,1,1199,blind,11134,2019-10-24_17h39.50.987,SurveyExpMetaMem,3.2.3,Win32,60
,,,,,,,,,,,,,,,,,,,,6,3.087999821,3,1.287999868,1,0,1200,1109,1,1199,germ,11134,2019-10-24_17h39.50.987,SurveyExpMetaMem,3.2.3,Win32,60
,,,,,,,,,,,,,,,,,,,,6,3.226000071,8,1.606999874,1,0,1200,555,1,1199,school,11134,2019-10-24_17h39.50.987,SurveyExpMetaMem,3.2.3,Win32,60
,,,,,,,,,,,,,,,,,,,,2,4.875999928,6,4.170000076,1,0,1200,1180,1,1199,heat,11134,2019-10-24_17h39.50.987,SurveyExpMetaMem,3.2.3,Win32,60
,,,,,,,,,,,,,,,,,,,,7,3.092999935,2,0.491999865,1,0,1200,1085,1,1199,sever,11134,2019-10-24_17h39.50.987,SurveyExpMetaMem,3.2.3,Win32,60
,,,,,,,,,,,,,,,,,,,,7,2.294999838,4,2.340000153,1,0,1200,1198,1,1199,lightning,11134,2019-10-24_17h39.50.987,SurveyExpMetaMem,3.2.3,Win32,60
,,,,,,,,,,,,,,,,,,,,6,5.611999989,6,2.111999989,1,0,1200,51,1,1199,body,11134,2019-10-24_17h39.50.987,SurveyExpMetaMem,3.2.3,Win32,60
,,,,,,,,,,,,,,,,,,,,7,2.241999865,2,0.728999853,1,0,1200,934,1,1199,sob,11134,2019-10-24_17h39.50.987,SurveyExpMetaMem,3.2.3,Win32,60
,,,,,,,,,,,,,,,,,,,,6,3.337999821,1,3.073999882,1,0,1200,949,1,1199,thief,11134,2019-10-24_17h39.50.987,SurveyExpMetaMem,3.2.3,Win32,60
,,,,,,,,,,,,,,,,,,,,3,2.672999859,8,1.139999866,1,0,1200,48,1,1199,excellence,11134,2019-10-24_17h39.50.987,SurveyExpMetaMem,3.2.3,Win32,60
,,,,,,,,,,,,,,,,,,,,1,2.885999918,5,0.398999929,1,0,1200,809,1,1199,boy,11134,2019-10-24_17h39.50.987,SurveyExpMetaMem,3.2.3,Win32,60
,,,,,,,,,,,,,,,,,,,,1,1.451999903,5,0.243999958,1,0,1200,1117,1,1199,court,11134,2019-10-24_17h39.50.987,SurveyExpMetaMem,3.2.3,Win32,60
,,,,,,,,,,,,,,,,,,,,4,2.563999891,9,1.045000076,1,0,1200,272,1,1199,confidence,11134,2019-10-24_17h39.50.987,SurveyExpMetaMem,3.2.3,Win32,60
,,,,,,,,,,,,,,,,,,,,1,4.036999941,9,0.829999924,1,0,1200,129,1,1199,fly,11134,2019-10-24_17h39.50.987,SurveyExpMetaMem,3.2.3,Win32,60
,,,,,,,,,,,,,,,,,,,,5,3.322999954,3,2.886999846,1,0,1200,442,1,1199,foolish,11134,2019-10-24_17h39.50.987,SurveyExpMetaMem,3.2.3,Win32,60
,,,,,,,,,,,,,,,,,,,,3,5.876999855,8,1.358999968,1,0,1200,595,1,1199,vacuum,11134,2019-10-24_17h39.50.987,SurveyExpMetaMem,3.2.3,Win32,60
,,,,,,,,,,,,,,,,,,,,2,1.694000006,7,2.218999863,1,0,1200,685,1,1199,makeup,11134,2019-10-24_17h39.50.987,SurveyExpMetaMem,3.2.3,Win32,60
,,,,,,,,,,,,,,,,,,,,1,1.882999897,7,1.105000019,1,0,1200,698,1,1199,oven,11134,2019-10-24_17h39.50.987,SurveyExpMetaMem,3.2.3,Win32,60
,,,,,,,,,,,,,,,,,,,,3,3.152999878,7,0.797999859,1,0,1200,635,1,1199,sensitive,11134,2019-10-24_17h39.50.987,SurveyExpMetaMem,3.2.3,Win32,60
,,,,,,,,,,,,,,,,,,,,3,3.751999855,6,0.953999996,1,0,1200,667,1,1199,dew,11134,2019-10-24_17h39.50.987,SurveyExpMetaMem,3.2.3,Win32,60
,,,,,,,,,,,,,,,,,,,,6,3.055999994,2,0.940999985,1,0,1200,317,1,1199,cry,11134,2019-10-24_17h39.50.987,SurveyExpMetaMem,3.2.3,Win32,60
,,,,,,,,,,,,,,,,,,,,1,2.689999819,6,0.355999708,1,0,1200,23,1,1199,earn,11134,2019-10-24_17h39.50.987,SurveyExpMetaMem,3.2.3,Win32,60
,,,,,,,,,,,,,,,,,,,,9,2.984999895,2,2.5,1,0,1200,1143,1,1199,arrogant,11134,2019-10-24_17h39.50.987,SurveyExpMetaMem,3.2.3,Win32,60
,,,,,,,,,,,,,,,,,,,,2,9.596999884,3,2.428999901,1,0,1200,548,1,1199,vague,11134,2019-10-24_17h39.50.987,SurveyExpMetaMem,3.2.3,Win32,60
,,,,,,,,,,,,,,,,,,,,1,1.671000004,9,1.003999949,1,0,1200,806,1,1199,tree,11134,2019-10-24_17h39.50.987,SurveyExpMetaMem,3.2.3,Win32,60
,,,,,,,,,,,,,,,,,,,,2,1.001999855,9,1.004999876,1,0,1200,631,1,1199,delicate,11134,2019-10-24_17h39.50.987,SurveyExpMetaMem,3.2.3,Win32,60
,,,,,,,,,,,,,,,,,,,,3,2.703999758,8,1.523999929,1,0,1200,172,1,1199,potential,11134,2019-10-24_17h39.50.987,SurveyExpMetaMem,3.2.3,Win32,60
,,,,,,,,,,,,,,,,,,,,1,1.56400013,7,0.998000145,1,0,1200,715,1,1199,sheltered,11134,2019-10-24_17h39.50.987,SurveyExpMetaMem,3.2.3,Win32,60
,,,,,,,,,,,,,,,,,,,,1,2.088000059,5,0.583999872,1,0,1200,67,1,1199,penthouse,11134,2019-10-24_17h39.50.987,SurveyExpMetaMem,3.2.3,Win32,60
,,,,,,,,,,,,,,,,,,,,6,2.476999998,2,4.846999884,1,0,1200,314,1,1199,hopeless,11134,2019-10-24_17h39.50.987,SurveyExpMetaMem,3.2.3,Win32,60
,,,,,,,,,,,,,,,,,,,,5,6.251999855,4,2.49000001,1,0,1200,574,1,1199,distracted,11134,2019-10-24_17h39.50.987,SurveyExpMetaMem,3.2.3,Win32,60
,,,,,,,,,,,,,,,,,,,,1,3.792000055,6,1.504999876,1,0,1200,211,1,1199,surfer,11134,2019-10-24_17h39.50.987,SurveyExpMetaMem,3.2.3,Win32,60
,,,,,,,,,,,,,,,,,,,,1,1.572999954,7,0.453000069,1,0,1200,739,1,1199,seagull,11134,2019-10-24_17h39.50.987,SurveyExpMetaMem,3.2.3,Win32,60
,,,,,,,,,,,,,,,,,,,,1,1.147999763,9,0.604000092,1,0,1200,867,1,1199,relaxed,11134,2019-10-24_17h39.50.987,SurveyExpMetaMem,3.2.3,Win32,60
