mouse_4.x,mouse_4.y,mouse_4.leftButton,mouse_4.midButton,mouse_4.rightButton,mouse.x,mouse.y,mouse.leftButton,mouse.midButton,mouse.rightButton,mouse_2.x,mouse_2.y,mouse_2.leftButton,mouse_2.midButton,mouse_2.rightButton,mouse_3.x,mouse_3.y,mouse_3.leftButton,mouse_3.midButton,mouse_3.rightButton,A_key_resp.keys,A_key_resp.rt,key_resp.keys,key_resp.rt,trials.thisRepN,trials.thisTrialN,trials.thisN,trials.thisIndex,trials.ran,trials.order,word,ParticipantID,date,expName,psychopyVersion,OS,frameRate
0.12962963,-0.112037037,1,0,0,0.053703704,0.112962963,1,0,0,0.037962963,0.05462963,1,0,0,0.041666667,-0.124074074,1,0,0,3,6.046000004,5,4.928000212,1,0,1200,477,1,1199,separate,11120 ,2019-10-21_18h48.27.269,SurveyExpMetaMem,3.2.3,Win32,60
,,,,,,,,,,,,,,,,,,,,9,3.867000103,5,4.095999956,1,0,1200,536,1,1199,vacant,11120 ,2019-10-21_18h48.27.269,SurveyExpMetaMem,3.2.3,Win32,60
,,,,,,,,,,,,,,,,,,,,9,2.940999985,5,6.832000017,1,0,1200,258,1,1199,children,11120 ,2019-10-21_18h48.27.269,SurveyExpMetaMem,3.2.3,Win32,60
,,,,,,,,,,,,,,,,,,,,2,2.045000076,6,4.457000017,1,0,1200,532,1,1199,recede,11120 ,2019-10-21_18h48.27.269,SurveyExpMetaMem,3.2.3,Win32,60
,,,,,,,,,,,,,,,,,,,,3,4.289999962,7,3.802999973,1,0,1200,875,1,1199,fluffy,11120 ,2019-10-21_18h48.27.269,SurveyExpMetaMem,3.2.3,Win32,60
,,,,,,,,,,,,,,,,,,,,9,7.24000001,6,5.986999989,1,0,1200,244,1,1199,sexy,11120 ,2019-10-21_18h48.27.269,SurveyExpMetaMem,3.2.3,Win32,60
,,,,,,,,,,,,,,,,,,,,4,3.894000053,8,2.238000154,1,0,1200,577,1,1199,retreat,11120 ,2019-10-21_18h48.27.269,SurveyExpMetaMem,3.2.3,Win32,60
,,,,,,,,,,,,,,,,,,,,5,2.602999926,5,1.026000023,1,0,1200,666,1,1199,verify,11120 ,2019-10-21_18h48.27.269,SurveyExpMetaMem,3.2.3,Win32,60
,,,,,,,,,,,,,,,,,,,,9,1.736000061,6,2.421999931,1,0,1200,125,1,1199,dancing,11120 ,2019-10-21_18h48.27.269,SurveyExpMetaMem,3.2.3,Win32,60
,,,,,,,,,,,,,,,,,,,,5,1.911000013,5,0.586999893,1,0,1200,651,1,1199,bathroom,11120 ,2019-10-21_18h48.27.269,SurveyExpMetaMem,3.2.3,Win32,60
,,,,,,,,,,,,,,,,,,,,6,1.742000103,6,1.480000019,1,0,1200,73,1,1199,rhythm,11120 ,2019-10-21_18h48.27.269,SurveyExpMetaMem,3.2.3,Win32,60
,,,,,,,,,,,,,,,,,,,,9,2.504999876,7,4.174000025,1,0,1200,184,1,1199,surprised,11120 ,2019-10-21_18h48.27.269,SurveyExpMetaMem,3.2.3,Win32,60
,,,,,,,,,,,,,,,,,,,,9,2.810000181,9,0.361999989,1,0,1200,293,1,1199,succeed,11120 ,2019-10-21_18h48.27.269,SurveyExpMetaMem,3.2.3,Win32,60
,,,,,,,,,,,,,,,,,,,,7,1.86500001,5,2.828999996,1,0,1200,531,1,1199,omit,11120 ,2019-10-21_18h48.27.269,SurveyExpMetaMem,3.2.3,Win32,60
,,,,,,,,,,,,,,,,,,,,5,3.262000084,7,1.25999999,1,0,1200,266,1,1199,juice,11120 ,2019-10-21_18h48.27.269,SurveyExpMetaMem,3.2.3,Win32,60
,,,,,,,,,,,,,,,,,,,,4,4.700000048,3,1.224999905,1,0,1200,570,1,1199,muddy,11120 ,2019-10-21_18h48.27.269,SurveyExpMetaMem,3.2.3,Win32,60
,,,,,,,,,,,,,,,,,,,,2,4.164000034,8,1.122999907,1,0,1200,1037,1,1199,scared,11120 ,2019-10-21_18h48.27.269,SurveyExpMetaMem,3.2.3,Win32,60
,,,,,,,,,,,,,,,,,,,,5,5.378000021,8,1.825999975,1,0,1200,709,1,1199,ancestor,11120 ,2019-10-21_18h48.27.269,SurveyExpMetaMem,3.2.3,Win32,60
,,,,,,,,,,,,,,,,,,,,8,3.096999884,7,1.218999863,1,0,1200,35,1,1199,bright,11120 ,2019-10-21_18h48.27.269,SurveyExpMetaMem,3.2.3,Win32,60
,,,,,,,,,,,,,,,,,,,,9,1.247999907,4,3.660000086,1,0,1200,1101,1,1199,scary,11120 ,2019-10-21_18h48.27.269,SurveyExpMetaMem,3.2.3,Win32,60
,,,,,,,,,,,,,,,,,,,,2,4.816999912,3,2.697000027,1,0,1200,524,1,1199,sigh,11120 ,2019-10-21_18h48.27.269,SurveyExpMetaMem,3.2.3,Win32,60
,,,,,,,,,,,,,,,,,,,,4,3.200000048,1,1.067000151,1,0,1200,305,1,1199,frown,11120 ,2019-10-21_18h48.27.269,SurveyExpMetaMem,3.2.3,Win32,60
,,,,,,,,,,,,,,,,,,,,6,3.079999924,1,0.695999861,1,0,1200,66,1,1199,zest,11120 ,2019-10-21_18h48.27.269,SurveyExpMetaMem,3.2.3,Win32,60
,,,,,,,,,,,,,,,,,,,,8,2.516000032,9,1.049000025,1,0,1200,95,1,1199,giggle,11120 ,2019-10-21_18h48.27.269,SurveyExpMetaMem,3.2.3,Win32,60
,,,,,,,,,,,,,,,,,,,,5,1.817000151,5,0.501000166,1,0,1200,1103,1,1199,mob,11120 ,2019-10-21_18h48.27.269,SurveyExpMetaMem,3.2.3,Win32,60
,,,,,,,,,,,,,,,,,,,,7,3.773999929,1,1.245000124,1,0,1200,938,1,1199,seasick,11120 ,2019-10-21_18h48.27.269,SurveyExpMetaMem,3.2.3,Win32,60
,,,,,,,,,,,,,,,,,,,,5,2.503000021,7,1.444000006,1,0,1200,844,1,1199,soul,11120 ,2019-10-21_18h48.27.269,SurveyExpMetaMem,3.2.3,Win32,60
,,,,,,,,,,,,,,,,,,,,5,2.982000113,5,0.919999838,1,0,1200,659,1,1199,hair,11120 ,2019-10-21_18h48.27.269,SurveyExpMetaMem,3.2.3,Win32,60
,,,,,,,,,,,,,,,,,,,,6,4.161000013,1,1.343999863,1,0,1200,917,1,1199,slave,11120 ,2019-10-21_18h48.27.269,SurveyExpMetaMem,3.2.3,Win32,60
,,,,,,,,,,,,,,,,,,,,6,1.950000048,4,3.639999866,1,0,1200,162,1,1199,royalty,11120 ,2019-10-21_18h48.27.269,SurveyExpMetaMem,3.2.3,Win32,60
,,,,,,,,,,,,,,,,,,,,7,7.512000084,5,26.4289999,1,0,1200,1197,1,1199,command,11120 ,2019-10-21_18h48.27.269,SurveyExpMetaMem,3.2.3,Win32,60
,,,,,,,,,,,,,,,,,,,,7,1.687000036,3,1.526000023,1,0,1200,1140,1,1199,blood,11120 ,2019-10-21_18h48.27.269,SurveyExpMetaMem,3.2.3,Win32,60
,,,,,,,,,,,,,,,,,,,,1,3.493000031,3,1.938999891,1,0,1200,379,1,1199,slob,11120 ,2019-10-21_18h48.27.269,SurveyExpMetaMem,3.2.3,Win32,60
,,,,,,,,,,,,,,,,,,,,7,2.450000048,3,2.022000074,1,0,1200,1110,1,1199,bastard,11120 ,2019-10-21_18h48.27.269,SurveyExpMetaMem,3.2.3,Win32,60
,,,,,,,,,,,,,,,,,,,,4,6.251000166,7,0.887000084,1,0,1200,510,1,1199,excuse,11120 ,2019-10-21_18h48.27.269,SurveyExpMetaMem,3.2.3,Win32,60
,,,,,,,,,,,,,,,,,,,,5,2.85800004,6,1.819000006,1,0,1200,33,1,1199,sister,11120 ,2019-10-21_18h48.27.269,SurveyExpMetaMem,3.2.3,Win32,60
,,,,,,,,,,,,,,,,,,,,6,3.040999889,7,1.565000057,1,0,1200,775,1,1199,pancakes,11120 ,2019-10-21_18h48.27.269,SurveyExpMetaMem,3.2.3,Win32,60
,,,,,,,,,,,,,,,,,,,,5,2.410000086,7,1.707999945,1,0,1200,746,1,1199,proper,11120 ,2019-10-21_18h48.27.269,SurveyExpMetaMem,3.2.3,Win32,60
,,,,,,,,,,,,,,,,,,,,8,6.741999865,3,2.118999958,1,0,1200,987,1,1199,disgusted,11120 ,2019-10-21_18h48.27.269,SurveyExpMetaMem,3.2.3,Win32,60
,,,,,,,,,,,,,,,,,,,,4,9.107000113,7,4.30099988,1,0,1200,839,1,1199,flower,11120 ,2019-10-21_18h48.27.269,SurveyExpMetaMem,3.2.3,Win32,60
,,,,,,,,,,,,,,,,,,,,2,8.477999926,7,2.962000132,1,0,1200,754,1,1199,reflection,11120 ,2019-10-21_18h48.27.269,SurveyExpMetaMem,3.2.3,Win32,60
,,,,,,,,,,,,,,,,,,,,5,1.868000031,6,3.527999878,1,0,1200,628,1,1199,chess,11120 ,2019-10-21_18h48.27.269,SurveyExpMetaMem,3.2.3,Win32,60
,,,,,,,,,,,,,,,,,,,,9,3.218999863,1,1.560000181,1,0,1200,914,1,1199,fail,11120 ,2019-10-21_18h48.27.269,SurveyExpMetaMem,3.2.3,Win32,60
,,,,,,,,,,,,,,,,,,,,8,2.993999958,2,1.863000154,1,0,1200,452,1,1199,scapegoat,11120 ,2019-10-21_18h48.27.269,SurveyExpMetaMem,3.2.3,Win32,60
,,,,,,,,,,,,,,,,,,,,9,2.250999928,1,1.089999914,1,0,1200,1082,1,1199,hazard,11120 ,2019-10-21_18h48.27.269,SurveyExpMetaMem,3.2.3,Win32,60
,,,,,,,,,,,,,,,,,,,,8,2.467000008,1,1.236000061,1,0,1200,1010,1,1199,arson,11120 ,2019-10-21_18h48.27.269,SurveyExpMetaMem,3.2.3,Win32,60
,,,,,,,,,,,,,,,,,,,,7,3.147000074,2,2.30700016,1,0,1200,1135,1,1199,thirsty,11120 ,2019-10-21_18h48.27.269,SurveyExpMetaMem,3.2.3,Win32,60
,,,,,,,,,,,,,,,,,,,,9,2.233999968,7,2.262000084,1,0,1200,239,1,1199,compassionate,11120 ,2019-10-21_18h48.27.269,SurveyExpMetaMem,3.2.3,Win32,60
,,,,,,,,,,,,,,,,,,,,6,3.111000061,6,2.325000048,1,0,1200,1097,1,1199,bees,11120 ,2019-10-21_18h48.27.269,SurveyExpMetaMem,3.2.3,Win32,60
,,,,,,,,,,,,,,,,,,,,4,4.836999893,8,3.040999889,1,0,1200,711,1,1199,sympathetic,11120 ,2019-10-21_18h48.27.269,SurveyExpMetaMem,3.2.3,Win32,60
,,,,,,,,,,,,,,,,,,,,5,2.819000006,6,20.56700015,1,0,1200,688,1,1199,jelly,11120 ,2019-10-21_18h48.27.269,SurveyExpMetaMem,3.2.3,Win32,60
,,,,,,,,,,,,,,,,,,,,7,2.878000021,8,2.698999882,1,0,1200,214,1,1199,revive,11120 ,2019-10-21_18h48.27.269,SurveyExpMetaMem,3.2.3,Win32,60
,,,,,,,,,,,,,,,,,,,,6,2.679000139,3,1.099999905,1,0,1200,1034,1,1199,pester,11120 ,2019-10-21_18h48.27.269,SurveyExpMetaMem,3.2.3,Win32,60
,,,,,,,,,,,,,,,,,,,,9,2.871999979,2,1.145999908,1,0,1200,251,1,1199,meteor,11120 ,2019-10-21_18h48.27.269,SurveyExpMetaMem,3.2.3,Win32,60
,,,,,,,,,,,,,,,,,,,,3,2.419999838,2,5.52699995,1,0,1200,488,1,1199,rusty,11120 ,2019-10-21_18h48.27.269,SurveyExpMetaMem,3.2.3,Win32,60
,,,,,,,,,,,,,,,,,,,,5,1.586000204,6,1.930000067,1,0,1200,695,1,1199,teacher,11120 ,2019-10-21_18h48.27.269,SurveyExpMetaMem,3.2.3,Win32,60
,,,,,,,,,,,,,,,,,,,,8,2.700000048,2,1.419000149,1,0,1200,443,1,1199,incorrect,11120 ,2019-10-21_18h48.27.269,SurveyExpMetaMem,3.2.3,Win32,60
,,,,,,,,,,,,,,,,,,,,3,2.728000164,6,1.590999842,1,0,1200,877,1,1199,bless,11120 ,2019-10-21_18h48.27.269,SurveyExpMetaMem,3.2.3,Win32,60
,,,,,,,,,,,,,,,,,,,,8,2.011000156,8,2.409000158,1,0,1200,1176,1,1199,vampire,11120 ,2019-10-21_18h48.27.269,SurveyExpMetaMem,3.2.3,Win32,60
,,,,,,,,,,,,,,,,,,,,9,2.26699996,1,1.791000128,1,0,1200,1130,1,1199,slut,11120 ,2019-10-21_18h48.27.269,SurveyExpMetaMem,3.2.3,Win32,60
,,,,,,,,,,,,,,,,,,,,7,2.353000164,3,12.71000004,1,0,1200,1030,1,1199,offend,11120 ,2019-10-21_18h48.27.269,SurveyExpMetaMem,3.2.3,Win32,60
,,,,,,,,,,,,,,,,,,,,6,5.756999969,3,0.879999876,1,0,1200,376,1,1199,incompetent,11120 ,2019-10-21_18h48.27.269,SurveyExpMetaMem,3.2.3,Win32,60
,,,,,,,,,,,,,,,,,,,,6,2.625,9,2.618999958,1,0,1200,93,1,1199,smiling,11120 ,2019-10-21_18h48.27.269,SurveyExpMetaMem,3.2.3,Win32,60
,,,,,,,,,,,,,,,,,,,,7,10.6730001,4,0.273000002,1,0,1200,599,1,1199,obstinate,11120 ,2019-10-21_18h48.27.269,SurveyExpMetaMem,3.2.3,Win32,60
,,,,,,,,,,,,,,,,,,,,6,2.039000034,6,1.819999933,1,0,1200,104,1,1199,freeway,11120 ,2019-10-21_18h48.27.269,SurveyExpMetaMem,3.2.3,Win32,60
,,,,,,,,,,,,,,,,,,,,5,2.592999935,8,1.160000086,1,0,1200,209,1,1199,husband,11120 ,2019-10-21_18h48.27.269,SurveyExpMetaMem,3.2.3,Win32,60
,,,,,,,,,,,,,,,,,,,,7,5.125999928,3,1.299999952,1,0,1200,377,1,1199,complain,11120 ,2019-10-21_18h48.27.269,SurveyExpMetaMem,3.2.3,Win32,60
,,,,,,,,,,,,,,,,,,,,9,1.397000074,9,1.589999914,1,0,1200,82,1,1199,stunning,11120 ,2019-10-21_18h48.27.269,SurveyExpMetaMem,3.2.3,Win32,60
,,,,,,,,,,,,,,,,,,,,2,2.691999912,4,2.321000099,1,0,1200,593,1,1199,errand,11120 ,2019-10-21_18h48.27.269,SurveyExpMetaMem,3.2.3,Win32,60
,,,,,,,,,,,,,,,,,,,,1,3.573999882,3,1.829999924,1,0,1200,434,1,1199,frail,11120 ,2019-10-21_18h48.27.269,SurveyExpMetaMem,3.2.3,Win32,60
,,,,,,,,,,,,,,,,,,,,6,8.061000109,9,0.536000013,1,0,1200,186,1,1199,holiday,11120 ,2019-10-21_18h48.27.269,SurveyExpMetaMem,3.2.3,Win32,60
,,,,,,,,,,,,,,,,,,,,7,1.921999931,2,1.944000006,1,0,1200,1063,1,1199,quarrel,11120 ,2019-10-21_18h48.27.269,SurveyExpMetaMem,3.2.3,Win32,60
,,,,,,,,,,,,,,,,,,,,7,2.046000004,8,2.177000046,1,0,1200,644,1,1199,farm,11120 ,2019-10-21_18h48.27.269,SurveyExpMetaMem,3.2.3,Win32,60
,,,,,,,,,,,,,,,,,,,,5,2.375999928,8,1.084000111,1,0,1200,728,1,1199,patio,11120 ,2019-10-21_18h48.27.269,SurveyExpMetaMem,3.2.3,Win32,60
,,,,,,,,,,,,,,,,,,,,5,1.950999975,8,0.59800005,1,0,1200,581,1,1199,dork,11120 ,2019-10-21_18h48.27.269,SurveyExpMetaMem,3.2.3,Win32,60
,,,,,,,,,,,,,,,,,,,,7,2.210000038,4,1.065000057,1,0,1200,1072,1,1199,bothered,11120 ,2019-10-21_18h48.27.269,SurveyExpMetaMem,3.2.3,Win32,60
,,,,,,,,,,,,,,,,,,,,9,1.667000055,1,0.757000208,1,0,1200,335,1,1199,decay,11120 ,2019-10-21_18h48.27.269,SurveyExpMetaMem,3.2.3,Win32,60
,,,,,,,,,,,,,,,,,,,,9,0.955999851,2,0.580000162,1,0,1200,1014,1,1199,destroy,11120 ,2019-10-21_18h48.27.269,SurveyExpMetaMem,3.2.3,Win32,60
,,,,,,,,,,,,,,,,,,,,9,0.684000015,2,0.601000071,1,0,1200,1094,1,1199,disruptive,11120 ,2019-10-21_18h48.27.269,SurveyExpMetaMem,3.2.3,Win32,60
,,,,,,,,,,,,,,,,,,,,5,1.532000065,7,0.930999994,1,0,1200,643,1,1199,library,11120 ,2019-10-21_18h48.27.269,SurveyExpMetaMem,3.2.3,Win32,60
,,,,,,,,,,,,,,,,,,,,3,3.372999907,2,4.238000154,1,0,1200,520,1,1199,gullible,11120 ,2019-10-21_18h48.27.269,SurveyExpMetaMem,3.2.3,Win32,60
,,,,,,,,,,,,,,,,,,,,9,1.506999969,3,2.128000021,1,0,1200,1013,1,1199,guilty,11120 ,2019-10-21_18h48.27.269,SurveyExpMetaMem,3.2.3,Win32,60
,,,,,,,,,,,,,,,,,,,,5,2.536999941,6,1.730000019,1,0,1200,686,1,1199,phone,11120 ,2019-10-21_18h48.27.269,SurveyExpMetaMem,3.2.3,Win32,60
,,,,,,,,,,,,,,,,,,,,1,2.253000021,2,2.253000021,1,0,1200,374,1,1199,sluggish,11120 ,2019-10-21_18h48.27.269,SurveyExpMetaMem,3.2.3,Win32,60
,,,,,,,,,,,,,,,,,,,,6,2.463999987,6,1.782999992,1,0,1200,1022,1,1199,creepy,11120 ,2019-10-21_18h48.27.269,SurveyExpMetaMem,3.2.3,Win32,60
,,,,,,,,,,,,,,,,,,,,9,32.41600013,3,1.184000015,1,0,1200,1149,1,1199,fight,11120 ,2019-10-21_18h48.27.269,SurveyExpMetaMem,3.2.3,Win32,60
,,,,,,,,,,,,,,,,,,,,8,2.686000109,1,0.98300004,1,0,1200,940,1,1199,war,11120 ,2019-10-21_18h48.27.269,SurveyExpMetaMem,3.2.3,Win32,60
,,,,,,,,,,,,,,,,,,,,7,14.23300004,2,1.09800005,1,0,1200,1105,1,1199,flee,11120 ,2019-10-21_18h48.27.269,SurveyExpMetaMem,3.2.3,Win32,60
,,,,,,,,,,,,,,,,,,,,8,1.911999941,5,1.686000109,1,0,1200,1129,1,1199,spanking,11120 ,2019-10-21_18h48.27.269,SurveyExpMetaMem,3.2.3,Win32,60
,,,,,,,,,,,,,,,,,,,,8,2.197999954,8,1.328000069,1,0,1200,298,1,1199,success,11120 ,2019-10-21_18h48.27.269,SurveyExpMetaMem,3.2.3,Win32,60
,,,,,,,,,,,,,,,,,,,,2,3.440999985,3,1.214999914,1,0,1200,332,1,1199,sewage,11120 ,2019-10-21_18h48.27.269,SurveyExpMetaMem,3.2.3,Win32,60
,,,,,,,,,,,,,,,,,,,,8,1.506000042,2,0.613000154,1,0,1200,973,1,1199,anger,11120 ,2019-10-21_18h48.27.269,SurveyExpMetaMem,3.2.3,Win32,60
,,,,,,,,,,,,,,,,,,,,5,2.200000048,5,0.291999817,1,0,1200,7,1,1199,duet,11120 ,2019-10-21_18h48.27.269,SurveyExpMetaMem,3.2.3,Win32,60
,,,,,,,,,,,,,,,,,,,,5,1.755000114,5,0.411000013,1,0,1200,883,1,1199,sky,11120 ,2019-10-21_18h48.27.269,SurveyExpMetaMem,3.2.3,Win32,60
,,,,,,,,,,,,,,,,,,,,3,2.697000027,7,0.21600008,1,0,1200,761,1,1199,corn,11120 ,2019-10-21_18h48.27.269,SurveyExpMetaMem,3.2.3,Win32,60
,,,,,,,,,,,,,,,,,,,,5,1.762000084,5,0.194000006,1,0,1200,768,1,1199,trait,11120 ,2019-10-21_18h48.27.269,SurveyExpMetaMem,3.2.3,Win32,60
,,,,,,,,,,,,,,,,,,,,3,4.040999889,7,0.912000179,1,0,1200,843,1,1199,garden,11120 ,2019-10-21_18h48.27.269,SurveyExpMetaMem,3.2.3,Win32,60
,,,,,,,,,,,,,,,,,,,,8,1.738999844,3,1.221999884,1,0,1200,1028,1,1199,terror,11120 ,2019-10-21_18h48.27.269,SurveyExpMetaMem,3.2.3,Win32,60
,,,,,,,,,,,,,,,,,,,,3,4.332000017,7,2.339999914,1,0,1200,580,1,1199,fur,11120 ,2019-10-21_18h48.27.269,SurveyExpMetaMem,3.2.3,Win32,60
,,,,,,,,,,,,,,,,,,,,5,2.756000042,5,0.517000198,1,0,1200,809,1,1199,boy,11120 ,2019-10-21_18h48.27.269,SurveyExpMetaMem,3.2.3,Win32,60
,,,,,,,,,,,,,,,,,,,,7,27.22899985,1,1.368000031,1,0,1200,1056,1,1199,crime,11120 ,2019-10-21_18h48.27.269,SurveyExpMetaMem,3.2.3,Win32,60
,,,,,,,,,,,,,,,,,,,,7,2.062000036,7,0.673999786,1,0,1200,734,1,1199,piano,11120 ,2019-10-21_18h48.27.269,SurveyExpMetaMem,3.2.3,Win32,60
,,,,,,,,,,,,,,,,,,,,5,1.284999847,5,0.228000164,1,0,1200,855,1,1199,girl,11120 ,2019-10-21_18h48.27.269,SurveyExpMetaMem,3.2.3,Win32,60
,,,,,,,,,,,,,,,,,,,,5,2.182999849,5,1.19299984,1,0,1200,632,1,1199,avenue,11120 ,2019-10-21_18h48.27.269,SurveyExpMetaMem,3.2.3,Win32,60
,,,,,,,,,,,,,,,,,,,,7,2.088000059,7,0.911000013,1,0,1200,272,1,1199,confidence,11120 ,2019-10-21_18h48.27.269,SurveyExpMetaMem,3.2.3,Win32,60
,,,,,,,,,,,,,,,,,,,,9,1.758000135,7,1.672999859,1,0,1200,58,1,1199,boost,11120 ,2019-10-21_18h48.27.269,SurveyExpMetaMem,3.2.3,Win32,60
,,,,,,,,,,,,,,,,,,,,5,1.996999979,5,0.365999937,1,0,1200,646,1,1199,wear,11120 ,2019-10-21_18h48.27.269,SurveyExpMetaMem,3.2.3,Win32,60
,,,,,,,,,,,,,,,,,,,,7,2.379999876,6,1.302999973,1,0,1200,1093,1,1199,hive,11120 ,2019-10-21_18h48.27.269,SurveyExpMetaMem,3.2.3,Win32,60
,,,,,,,,,,,,,,,,,,,,4,2.29399991,7,0.746999979,1,0,1200,211,1,1199,surfer,11120 ,2019-10-21_18h48.27.269,SurveyExpMetaMem,3.2.3,Win32,60
,,,,,,,,,,,,,,,,,,,,5,7.888999939,5,0.890000105,1,0,1200,678,1,1199,lightbulb,11120 ,2019-10-21_18h48.27.269,SurveyExpMetaMem,3.2.3,Win32,60
,,,,,,,,,,,,,,,,,,,,5,2.301000118,7,1.115999937,1,0,1200,706,1,1199,cat,11120 ,2019-10-21_18h48.27.269,SurveyExpMetaMem,3.2.3,Win32,60
,,,,,,,,,,,,,,,,,,,,8,12.02800012,4,1.150000095,1,0,1200,274,1,1199,song,11120 ,2019-10-21_18h48.27.269,SurveyExpMetaMem,3.2.3,Win32,60
,,,,,,,,,,,,,,,,,,,,4,3.687999964,8,0.697000027,1,0,1200,943,1,1199,trauma,11120 ,2019-10-21_18h48.27.269,SurveyExpMetaMem,3.2.3,Win32,60
,,,,,,,,,,,,,,,,,,,,5,6.058000088,5,0.232000113,1,0,1200,637,1,1199,flock,11120 ,2019-10-21_18h48.27.269,SurveyExpMetaMem,3.2.3,Win32,60
,,,,,,,,,,,,,,,,,,,,5,1.345000029,5,0.214999914,1,0,1200,1178,1,1199,weight,11120 ,2019-10-21_18h48.27.269,SurveyExpMetaMem,3.2.3,Win32,60
,,,,,,,,,,,,,,,,,,,,6,2.924000025,2,1.529999971,1,0,1200,1008,1,1199,gang,11120 ,2019-10-21_18h48.27.269,SurveyExpMetaMem,3.2.3,Win32,60
,,,,,,,,,,,,,,,,,,,,8,2.368000031,2,0.460000038,1,0,1200,967,1,1199,horrible,11120 ,2019-10-21_18h48.27.269,SurveyExpMetaMem,3.2.3,Win32,60
,,,,,,,,,,,,,,,,,,,,5,2.995000124,6,0.597000122,1,0,1200,645,1,1199,telescope,11120 ,2019-10-21_18h48.27.269,SurveyExpMetaMem,3.2.3,Win32,60
,,,,,,,,,,,,,,,,,,,,5,1.401000023,6,0.233999968,1,0,1200,663,1,1199,trout,11120 ,2019-10-21_18h48.27.269,SurveyExpMetaMem,3.2.3,Win32,60
,,,,,,,,,,,,,,,,,,,,5,1.279000044,5,0.223999977,1,0,1200,658,1,1199,method,11120 ,2019-10-21_18h48.27.269,SurveyExpMetaMem,3.2.3,Win32,60
,,,,,,,,,,,,,,,,,,,,6,3.322999954,2,0.560000181,1,0,1200,431,1,1199,itch,11120 ,2019-10-21_18h48.27.269,SurveyExpMetaMem,3.2.3,Win32,60
,,,,,,,,,,,,,,,,,,,,7,2.311000109,1,1.228999853,1,0,1200,336,1,1199,wasteful,11120 ,2019-10-21_18h48.27.269,SurveyExpMetaMem,3.2.3,Win32,60
,,,,,,,,,,,,,,,,,,,,8,4.071000099,3,1.101999998,1,0,1200,1096,1,1199,flood,11120 ,2019-10-21_18h48.27.269,SurveyExpMetaMem,3.2.3,Win32,60
,,,,,,,,,,,,,,,,,,,,9,1.620000124,6,2.76699996,1,0,1200,49,1,1199,ecstatic,11120 ,2019-10-21_18h48.27.269,SurveyExpMetaMem,3.2.3,Win32,60
,,,,,,,,,,,,,,,,,,,,3,3.599999905,9,1.121000051,1,0,1200,750,1,1199,porpoise,11120 ,2019-10-21_18h48.27.269,SurveyExpMetaMem,3.2.3,Win32,60
,,,,,,,,,,,,,,,,,,,,1,4.970999956,1,1.016000032,1,0,1200,401,1,1199,feeble,11120 ,2019-10-21_18h48.27.269,SurveyExpMetaMem,3.2.3,Win32,60
,,,,,,,,,,,,,,,,,,,,5,2.604999781,5,0.634000063,1,0,1200,685,1,1199,makeup,11120 ,2019-10-21_18h48.27.269,SurveyExpMetaMem,3.2.3,Win32,60
,,,,,,,,,,,,,,,,,,,,6,4.029999971,4,0.622999907,1,0,1200,1127,1,1199,spank,11120 ,2019-10-21_18h48.27.269,SurveyExpMetaMem,3.2.3,Win32,60
,,,,,,,,,,,,,,,,,,,,5,1.508999825,5,0.198999882,1,0,1200,667,1,1199,dew,11120 ,2019-10-21_18h48.27.269,SurveyExpMetaMem,3.2.3,Win32,60
,,,,,,,,,,,,,,,,,,,,5,2.455999851,5,0.209000111,1,0,1200,588,1,1199,bandage,11120 ,2019-10-21_18h48.27.269,SurveyExpMetaMem,3.2.3,Win32,60
,,,,,,,,,,,,,,,,,,,,6,5.997999907,8,2.141000032,1,0,1200,120,1,1199,imaginative,11120 ,2019-10-21_18h48.27.269,SurveyExpMetaMem,3.2.3,Win32,60
,,,,,,,,,,,,,,,,,,,,9,3.246999979,1,1.155999899,1,0,1200,1116,1,1199,emergency,11120 ,2019-10-21_18h48.27.269,SurveyExpMetaMem,3.2.3,Win32,60
,,,,,,,,,,,,,,,,,,,,1,3.40500021,1,0.644000053,1,0,1200,314,1,1199,hopeless,11120 ,2019-10-21_18h48.27.269,SurveyExpMetaMem,3.2.3,Win32,60
,,,,,,,,,,,,,,,,,,,,5,1.246999979,5,0.28000021,1,0,1200,601,1,1199,roof,11120 ,2019-10-21_18h48.27.269,SurveyExpMetaMem,3.2.3,Win32,60
,,,,,,,,,,,,,,,,,,,,9,1.556999922,2,2.236000061,1,0,1200,922,1,1199,nightmare,11120 ,2019-10-21_18h48.27.269,SurveyExpMetaMem,3.2.3,Win32,60
,,,,,,,,,,,,,,,,,,,,5,2.292000055,3,1.428999901,1,0,1200,412,1,1199,mucus,11120 ,2019-10-21_18h48.27.269,SurveyExpMetaMem,3.2.3,Win32,60
,,,,,,,,,,,,,,,,,,,,5,3.496999979,4,1.334000111,1,0,1200,597,1,1199,drool,11120 ,2019-10-21_18h48.27.269,SurveyExpMetaMem,3.2.3,Win32,60
,,,,,,,,,,,,,,,,,,,,7,2.90899992,3,1.459000111,1,0,1200,1199,1,1199,expensive,11120 ,2019-10-21_18h48.27.269,SurveyExpMetaMem,3.2.3,Win32,60
,,,,,,,,,,,,,,,,,,,,5,1.404999971,7,1.221999884,1,0,1200,38,1,1199,cheeseburger,11120 ,2019-10-21_18h48.27.269,SurveyExpMetaMem,3.2.3,Win32,60
,,,,,,,,,,,,,,,,,,,,5,1.634000063,5,0.207000017,1,0,1200,152,1,1199,hire,11120 ,2019-10-21_18h48.27.269,SurveyExpMetaMem,3.2.3,Win32,60
,,,,,,,,,,,,,,,,,,,,9,2.625999928,9,0.594000101,1,0,1200,195,1,1199,laughing,11120 ,2019-10-21_18h48.27.269,SurveyExpMetaMem,3.2.3,Win32,60
,,,,,,,,,,,,,,,,,,,,3,3.326999903,1,0.958999872,1,0,1200,418,1,1199,cheapskate,11120 ,2019-10-21_18h48.27.269,SurveyExpMetaMem,3.2.3,Win32,60
,,,,,,,,,,,,,,,,,,,,7,1.755000114,9,2.253999949,1,0,1200,271,1,1199,applaud,11120 ,2019-10-21_18h48.27.269,SurveyExpMetaMem,3.2.3,Win32,60
,,,,,,,,,,,,,,,,,,,,5,2.539000034,1,5.092999935,1,0,1200,930,1,1199,poison,11120 ,2019-10-21_18h48.27.269,SurveyExpMetaMem,3.2.3,Win32,60
,,,,,,,,,,,,,,,,,,,,5,7.203999996,5,0.227999926,1,0,1200,674,1,1199,fitting,11120 ,2019-10-21_18h48.27.269,SurveyExpMetaMem,3.2.3,Win32,60
,,,,,,,,,,,,,,,,,,,,9,1.895000219,5,1.601999998,1,0,1200,204,1,1199,crazy,11120 ,2019-10-21_18h48.27.269,SurveyExpMetaMem,3.2.3,Win32,60
,,,,,,,,,,,,,,,,,,,,1,2.825000048,2,1.223999977,1,0,1200,975,1,1199,insecure,11120 ,2019-10-21_18h48.27.269,SurveyExpMetaMem,3.2.3,Win32,60
,,,,,,,,,,,,,,,,,,,,8,3.193000078,2,1.044000149,1,0,1200,1065,1,1199,slap,11120 ,2019-10-21_18h48.27.269,SurveyExpMetaMem,3.2.3,Win32,60
,,,,,,,,,,,,,,,,,,,,4,2.461000204,2,0.532999992,1,0,1200,970,1,1199,worry,11120 ,2019-10-21_18h48.27.269,SurveyExpMetaMem,3.2.3,Win32,60
,,,,,,,,,,,,,,,,,,,,5,1.5,5,0.268000126,1,0,1200,44,1,1199,diploma,11120 ,2019-10-21_18h48.27.269,SurveyExpMetaMem,3.2.3,Win32,60
,,,,,,,,,,,,,,,,,,,,5,18.14700007,8,1.335000038,1,0,1200,147,1,1199,cure,11120 ,2019-10-21_18h48.27.269,SurveyExpMetaMem,3.2.3,Win32,60
,,,,,,,,,,,,,,,,,,,,9,1.812999964,6,1.026000023,1,0,1200,19,1,1199,firefighter,11120 ,2019-10-21_18h48.27.269,SurveyExpMetaMem,3.2.3,Win32,60
,,,,,,,,,,,,,,,,,,,,3,1.915999889,3,0.703000069,1,0,1200,339,1,1199,chore,11120 ,2019-10-21_18h48.27.269,SurveyExpMetaMem,3.2.3,Win32,60
,,,,,,,,,,,,,,,,,,,,3,2.18900013,2,0.48300004,1,0,1200,340,1,1199,coward,11120 ,2019-10-21_18h48.27.269,SurveyExpMetaMem,3.2.3,Win32,60
,,,,,,,,,,,,,,,,,,,,5,1.151000023,5,0.223999977,1,0,1200,840,1,1199,cuisine,11120 ,2019-10-21_18h48.27.269,SurveyExpMetaMem,3.2.3,Win32,60
,,,,,,,,,,,,,,,,,,,,5,3.088999987,5,0.227999926,1,0,1200,935,1,1199,despise,11120 ,2019-10-21_18h48.27.269,SurveyExpMetaMem,3.2.3,Win32,60
,,,,,,,,,,,,,,,,,,,,8,1.993000031,9,0.852999926,1,0,1200,248,1,1199,win,11120 ,2019-10-21_18h48.27.269,SurveyExpMetaMem,3.2.3,Win32,60
,,,,,,,,,,,,,,,,,,,,6,1.930000067,2,2.048000097,1,0,1200,978,1,1199,starving,11120 ,2019-10-21_18h48.27.269,SurveyExpMetaMem,3.2.3,Win32,60
,,,,,,,,,,,,,,,,,,,,9,2.381000042,1,1.762000084,1,0,1200,1062,1,1199,shoplifter,11120 ,2019-10-21_18h48.27.269,SurveyExpMetaMem,3.2.3,Win32,60
,,,,,,,,,,,,,,,,,,,,5,2.944000006,6,0.70299983,1,0,1200,227,1,1199,musician,11120 ,2019-10-21_18h48.27.269,SurveyExpMetaMem,3.2.3,Win32,60
,,,,,,,,,,,,,,,,,,,,7,2.506999969,3,0.775000095,1,0,1200,1061,1,1199,difficult,11120 ,2019-10-21_18h48.27.269,SurveyExpMetaMem,3.2.3,Win32,60
,,,,,,,,,,,,,,,,,,,,5,2.950000048,5,0.430999994,1,0,1200,512,1,1199,insect,11120 ,2019-10-21_18h48.27.269,SurveyExpMetaMem,3.2.3,Win32,60
,,,,,,,,,,,,,,,,,,,,3,3.308000088,2,2.694000006,1,0,1200,490,1,1199,detached,11120 ,2019-10-21_18h48.27.269,SurveyExpMetaMem,3.2.3,Win32,60
,,,,,,,,,,,,,,,,,,,,9,12.10000014,5,1.035000086,1,0,1200,20,1,1199,climax,11120 ,2019-10-21_18h48.27.269,SurveyExpMetaMem,3.2.3,Win32,60
,,,,,,,,,,,,,,,,,,,,9,1.28000021,2,1.643999815,1,0,1200,1007,1,1199,tornado,11120 ,2019-10-21_18h48.27.269,SurveyExpMetaMem,3.2.3,Win32,60
,,,,,,,,,,,,,,,,,,,,5,1.757000208,6,1.562999964,1,0,1200,551,1,1199,coal,11120 ,2019-10-21_18h48.27.269,SurveyExpMetaMem,3.2.3,Win32,60
,,,,,,,,,,,,,,,,,,,,6,1.940999985,6,1.906000137,1,0,1200,114,1,1199,raise,11120 ,2019-10-21_18h48.27.269,SurveyExpMetaMem,3.2.3,Win32,60
,,,,,,,,,,,,,,,,,,,,2,3.096999884,8,1.463999987,1,0,1200,635,1,1199,sensitive,11120 ,2019-10-21_18h48.27.269,SurveyExpMetaMem,3.2.3,Win32,60
,,,,,,,,,,,,,,,,,,,,4,3.008000135,2,0.722000122,1,0,1200,1074,1,1199,detain,11120 ,2019-10-21_18h48.27.269,SurveyExpMetaMem,3.2.3,Win32,60
,,,,,,,,,,,,,,,,,,,,5,1.357999802,5,0.231999874,1,0,1200,159,1,1199,teenager,11120 ,2019-10-21_18h48.27.269,SurveyExpMetaMem,3.2.3,Win32,60
,,,,,,,,,,,,,,,,,,,,5,5.877000093,1,1.042999983,1,0,1200,68,1,1199,perfect,11120 ,2019-10-21_18h48.27.269,SurveyExpMetaMem,3.2.3,Win32,60
,,,,,,,,,,,,,,,,,,,,5,2.003000021,7,0.48300004,1,0,1200,748,1,1199,town,11120 ,2019-10-21_18h48.27.269,SurveyExpMetaMem,3.2.3,Win32,60
,,,,,,,,,,,,,,,,,,,,5,3.20600009,7,0.210000038,1,0,1200,169,1,1199,aid,11120 ,2019-10-21_18h48.27.269,SurveyExpMetaMem,3.2.3,Win32,60
,,,,,,,,,,,,,,,,,,,,7,2.705999851,8,0.752000093,1,0,1200,42,1,1199,accomplish,11120 ,2019-10-21_18h48.27.269,SurveyExpMetaMem,3.2.3,Win32,60
,,,,,,,,,,,,,,,,,,,,8,13.76200008,7,1.868999958,1,0,1200,39,1,1199,birth,11120 ,2019-10-21_18h48.27.269,SurveyExpMetaMem,3.2.3,Win32,60
,,,,,,,,,,,,,,,,,,,,6,2.347000122,6,0.855000019,1,0,1200,127,1,1199,glamorous,11120 ,2019-10-21_18h48.27.269,SurveyExpMetaMem,3.2.3,Win32,60
,,,,,,,,,,,,,,,,,,,,1,2.945999861,3,0.97300005,1,0,1200,670,1,1199,urinate,11120 ,2019-10-21_18h48.27.269,SurveyExpMetaMem,3.2.3,Win32,60
,,,,,,,,,,,,,,,,,,,,9,1.317000151,3,1.556999922,1,0,1200,1099,1,1199,fire,11120 ,2019-10-21_18h48.27.269,SurveyExpMetaMem,3.2.3,Win32,60
,,,,,,,,,,,,,,,,,,,,5,2.371000051,1,1.167999983,1,0,1200,188,1,1199,profit,11120 ,2019-10-21_18h48.27.269,SurveyExpMetaMem,3.2.3,Win32,60
,,,,,,,,,,,,,,,,,,,,6,2.494999886,1,0.394999981,1,0,1200,989,1,1199,banish,11120 ,2019-10-21_18h48.27.269,SurveyExpMetaMem,3.2.3,Win32,60
,,,,,,,,,,,,,,,,,,,,9,1.867000103,3,0.523000002,1,0,1200,945,1,1199,demon,11120 ,2019-10-21_18h48.27.269,SurveyExpMetaMem,3.2.3,Win32,60
,,,,,,,,,,,,,,,,,,,,9,1.43200016,2,1.193000078,1,0,1200,1128,1,1199,fighting,11120 ,2019-10-21_18h48.27.269,SurveyExpMetaMem,3.2.3,Win32,60
,,,,,,,,,,,,,,,,,,,,5,2.224999905,2,0.383000135,1,0,1200,54,1,1199,alcohol,11120 ,2019-10-21_18h48.27.269,SurveyExpMetaMem,3.2.3,Win32,60
,,,,,,,,,,,,,,,,,,,,5,1.661000013,5,0.673000097,1,0,1200,669,1,1199,plaza,11120 ,2019-10-21_18h48.27.269,SurveyExpMetaMem,3.2.3,Win32,60
,,,,,,,,,,,,,,,,,,,,2,3.371999979,1,0.667999983,1,0,1200,300,1,1199,unhappy,11120 ,2019-10-21_18h48.27.269,SurveyExpMetaMem,3.2.3,Win32,60
,,,,,,,,,,,,,,,,,,,,1,3.539000034,3,1.009000063,1,0,1200,492,1,1199,naive,11120 ,2019-10-21_18h48.27.269,SurveyExpMetaMem,3.2.3,Win32,60
,,,,,,,,,,,,,,,,,,,,5,2.372999907,3,0.753999949,1,0,1200,1080,1,1199,broken,11120 ,2019-10-21_18h48.27.269,SurveyExpMetaMem,3.2.3,Win32,60
,,,,,,,,,,,,,,,,,,,,9,3.615999937,2,1.48300004,1,0,1200,533,1,1199,busy,11120 ,2019-10-21_18h48.27.269,SurveyExpMetaMem,3.2.3,Win32,60
,,,,,,,,,,,,,,,,,,,,4,2.2099998,2,0.552999973,1,0,1200,422,1,1199,doubtful,11120 ,2019-10-21_18h48.27.269,SurveyExpMetaMem,3.2.3,Win32,60
,,,,,,,,,,,,,,,,,,,,5,8.062000036,6,1.259000063,1,0,1200,814,1,1199,dress,11120 ,2019-10-21_18h48.27.269,SurveyExpMetaMem,3.2.3,Win32,60
,,,,,,,,,,,,,,,,,,,,5,2.395000219,3,1.196000099,1,0,1200,467,1,1199,FALSE,11120 ,2019-10-21_18h48.27.269,SurveyExpMetaMem,3.2.3,Win32,60
,,,,,,,,,,,,,,,,,,,,5,1.51699996,6,0.884000063,1,0,1200,521,1,1199,laundry,11120 ,2019-10-21_18h48.27.269,SurveyExpMetaMem,3.2.3,Win32,60
,,,,,,,,,,,,,,,,,,,,5,18.91299987,8,0.355999947,1,0,1200,804,1,1199,peach,11120 ,2019-10-21_18h48.27.269,SurveyExpMetaMem,3.2.3,Win32,60
,,,,,,,,,,,,,,,,,,,,5,1.452000141,6,1.059000015,1,0,1200,742,1,1199,window,11120 ,2019-10-21_18h48.27.269,SurveyExpMetaMem,3.2.3,Win32,60
,,,,,,,,,,,,,,,,,,,,7,3.526000023,2,0.607000113,1,0,1200,960,1,1199,irritated,11120 ,2019-10-21_18h48.27.269,SurveyExpMetaMem,3.2.3,Win32,60
,,,,,,,,,,,,,,,,,,,,9,1.61500001,2,0.665999889,1,0,1200,1004,1,1199,burglar,11120 ,2019-10-21_18h48.27.269,SurveyExpMetaMem,3.2.3,Win32,60
,,,,,,,,,,,,,,,,,,,,9,0.983999968,2,0.351000071,1,0,1200,950,1,1199,murder,11120 ,2019-10-21_18h48.27.269,SurveyExpMetaMem,3.2.3,Win32,60
,,,,,,,,,,,,,,,,,,,,9,1.397000074,7,0.065000057,1,0,1200,911,1,1199,rejection,11120 ,2019-10-21_18h48.27.269,SurveyExpMetaMem,3.2.3,Win32,60
,,,,,,,,,,,,,,,,,,,,6,7.298000097,3,0.400000095,1,0,1200,1089,1,1199,ridicule,11120 ,2019-10-21_18h48.27.269,SurveyExpMetaMem,3.2.3,Win32,60
,,,,,,,,,,,,,,,,,,,,6,3.174000025,8,1.019000053,1,0,1200,180,1,1199,embrace,11120 ,2019-10-21_18h48.27.269,SurveyExpMetaMem,3.2.3,Win32,60
,,,,,,,,,,,,,,,,,,,,6,4.182999849,2,1.194000006,1,0,1200,1038,1,1199,pervert,11120 ,2019-10-21_18h48.27.269,SurveyExpMetaMem,3.2.3,Win32,60
,,,,,,,,,,,,,,,,,,,,5,1.371999979,5,0.35800004,1,0,1200,165,1,1199,sizzle,11120 ,2019-10-21_18h48.27.269,SurveyExpMetaMem,3.2.3,Win32,60
,,,,,,,,,,,,,,,,,,,,5,1.563000202,5,0.249000072,1,0,1200,228,1,1199,suite,11120 ,2019-10-21_18h48.27.269,SurveyExpMetaMem,3.2.3,Win32,60
,,,,,,,,,,,,,,,,,,,,6,2.636000156,1,0.747999907,1,0,1200,985,1,1199,pollution,11120 ,2019-10-21_18h48.27.269,SurveyExpMetaMem,3.2.3,Win32,60
,,,,,,,,,,,,,,,,,,,,1,1.709000111,1,0.562999964,1,0,1200,481,1,1199,melancholy,11120 ,2019-10-21_18h48.27.269,SurveyExpMetaMem,3.2.3,Win32,60
,,,,,,,,,,,,,,,,,,,,1,4.096999884,5,1.726999998,1,0,1200,233,1,1199,exhilaration,11120 ,2019-10-21_18h48.27.269,SurveyExpMetaMem,3.2.3,Win32,60
,,,,,,,,,,,,,,,,,,,,5,3.583000183,6,1.651000023,1,0,1200,636,1,1199,refine,11120 ,2019-10-21_18h48.27.269,SurveyExpMetaMem,3.2.3,Win32,60
,,,,,,,,,,,,,,,,,,,,7,1.972000122,8,2.531000137,1,0,1200,140,1,1199,riches,11120 ,2019-10-21_18h48.27.269,SurveyExpMetaMem,3.2.3,Win32,60
,,,,,,,,,,,,,,,,,,,,8,2.529999971,3,1.398999929,1,0,1200,1166,1,1199,compulsive,11120 ,2019-10-21_18h48.27.269,SurveyExpMetaMem,3.2.3,Win32,60
,,,,,,,,,,,,,,,,,,,,9,2.078000069,3,0.819999933,1,0,1200,253,1,1199,soldier,11120 ,2019-10-21_18h48.27.269,SurveyExpMetaMem,3.2.3,Win32,60
,,,,,,,,,,,,,,,,,,,,7,9.842000008,3,0.350000143,1,0,1200,14,1,1199,attain,11120 ,2019-10-21_18h48.27.269,SurveyExpMetaMem,3.2.3,Win32,60
,,,,,,,,,,,,,,,,,,,,7,2.06799984,8,2.026000023,1,0,1200,247,1,1199,graduate,11120 ,2019-10-21_18h48.27.269,SurveyExpMetaMem,3.2.3,Win32,60
,,,,,,,,,,,,,,,,,,,,5,1.351999998,5,0.236999989,1,0,1200,751,1,1199,listen,11120 ,2019-10-21_18h48.27.269,SurveyExpMetaMem,3.2.3,Win32,60
,,,,,,,,,,,,,,,,,,,,9,2.508000135,3,0.923999786,1,0,1200,971,1,1199,crash,11120 ,2019-10-21_18h48.27.269,SurveyExpMetaMem,3.2.3,Win32,60
,,,,,,,,,,,,,,,,,,,,5,1.394000053,5,0.243000031,1,0,1200,655,1,1199,name,11120 ,2019-10-21_18h48.27.269,SurveyExpMetaMem,3.2.3,Win32,60
,,,,,,,,,,,,,,,,,,,,5,14.41700006,8,1.277000189,1,0,1200,873,1,1199,useful,11120 ,2019-10-21_18h48.27.269,SurveyExpMetaMem,3.2.3,Win32,60
,,,,,,,,,,,,,,,,,,,,7,2.878000021,9,1.40899992,1,0,1200,282,1,1199,luck,11120 ,2019-10-21_18h48.27.269,SurveyExpMetaMem,3.2.3,Win32,60
,,,,,,,,,,,,,,,,,,,,5,1.040999889,8,0.828999996,1,0,1200,714,1,1199,courtyard,11120 ,2019-10-21_18h48.27.269,SurveyExpMetaMem,3.2.3,Win32,60
,,,,,,,,,,,,,,,,,,,,8,2.036999941,3,0.588999987,1,0,1200,1025,1,1199,deadly,11120 ,2019-10-21_18h48.27.269,SurveyExpMetaMem,3.2.3,Win32,60
,,,,,,,,,,,,,,,,,,,,5,1.861000061,5,0.948999882,1,0,1200,813,1,1199,walking,11120 ,2019-10-21_18h48.27.269,SurveyExpMetaMem,3.2.3,Win32,60
,,,,,,,,,,,,,,,,,,,,6,1.687999964,7,1.903999805,1,0,1200,621,1,1199,chew,11120 ,2019-10-21_18h48.27.269,SurveyExpMetaMem,3.2.3,Win32,60
,,,,,,,,,,,,,,,,,,,,8,1.75999999,3,0.512000084,1,0,1200,100,1,1199,intense,11120 ,2019-10-21_18h48.27.269,SurveyExpMetaMem,3.2.3,Win32,60
,,,,,,,,,,,,,,,,,,,,2,4.330000162,4,1.823999882,1,0,1200,1173,1,1199,lurk,11120 ,2019-10-21_18h48.27.269,SurveyExpMetaMem,3.2.3,Win32,60
,,,,,,,,,,,,,,,,,,,,7,2.427000046,1,1.480999947,1,0,1200,924,1,1199,terrible,11120 ,2019-10-21_18h48.27.269,SurveyExpMetaMem,3.2.3,Win32,60
,,,,,,,,,,,,,,,,,,,,5,1.912999868,8,2.559000015,1,0,1200,826,1,1199,poem,11120 ,2019-10-21_18h48.27.269,SurveyExpMetaMem,3.2.3,Win32,60
,,,,,,,,,,,,,,,,,,,,8,1.820999861,3,1.273000002,1,0,1200,216,1,1199,vigorous,11120 ,2019-10-21_18h48.27.269,SurveyExpMetaMem,3.2.3,Win32,60
,,,,,,,,,,,,,,,,,,,,5,5.914000034,5,1.58100009,1,0,1200,485,1,1199,pinch,11120 ,2019-10-21_18h48.27.269,SurveyExpMetaMem,3.2.3,Win32,60
,,,,,,,,,,,,,,,,,,,,3,2.444000006,7,0.957999945,1,0,1200,437,1,1199,blubber,11120 ,2019-10-21_18h48.27.269,SurveyExpMetaMem,3.2.3,Win32,60
,,,,,,,,,,,,,,,,,,,,5,1.50999999,5,0.221999884,1,0,1200,831,1,1199,sofa,11120 ,2019-10-21_18h48.27.269,SurveyExpMetaMem,3.2.3,Win32,60
,,,,,,,,,,,,,,,,,,,,3,5.414000034,3,0.866999865,1,0,1200,1039,1,1199,stalk,11120 ,2019-10-21_18h48.27.269,SurveyExpMetaMem,3.2.3,Win32,60
,,,,,,,,,,,,,,,,,,,,8,3.180000067,8,1.646000147,1,0,1200,74,1,1199,explore,11120 ,2019-10-21_18h48.27.269,SurveyExpMetaMem,3.2.3,Win32,60
,,,,,,,,,,,,,,,,,,,,8,2.953999996,1,0.516000032,1,0,1200,312,1,1199,stench,11120 ,2019-10-21_18h48.27.269,SurveyExpMetaMem,3.2.3,Win32,60
,,,,,,,,,,,,,,,,,,,,7,2.444999933,3,0.86500001,1,0,1200,459,1,1199,heavy,11120 ,2019-10-21_18h48.27.269,SurveyExpMetaMem,3.2.3,Win32,60
,,,,,,,,,,,,,,,,,,,,5,1.720000029,8,0.898999929,1,0,1200,633,1,1199,cattle,11120 ,2019-10-21_18h48.27.269,SurveyExpMetaMem,3.2.3,Win32,60
,,,,,,,,,,,,,,,,,,,,5,1.271999836,5,0.750999928,1,0,1200,349,1,1199,mope,11120 ,2019-10-21_18h48.27.269,SurveyExpMetaMem,3.2.3,Win32,60
,,,,,,,,,,,,,,,,,,,,5,1.056999922,8,0.197000027,1,0,1200,671,1,1199,windmill,11120 ,2019-10-21_18h48.27.269,SurveyExpMetaMem,3.2.3,Win32,60
,,,,,,,,,,,,,,,,,,,,5,1.303999901,8,0.205000162,1,0,1200,63,1,1199,clothes,11120 ,2019-10-21_18h48.27.269,SurveyExpMetaMem,3.2.3,Win32,60
,,,,,,,,,,,,,,,,,,,,6,2.905999899,2,0.710000038,1,0,1200,1087,1,1199,affair,11120 ,2019-10-21_18h48.27.269,SurveyExpMetaMem,3.2.3,Win32,60
,,,,,,,,,,,,,,,,,,,,5,1.50999999,6,0.651000023,1,0,1200,647,1,1199,accord,11120 ,2019-10-21_18h48.27.269,SurveyExpMetaMem,3.2.3,Win32,60
,,,,,,,,,,,,,,,,,,,,6,2.537000179,3,0.431999922,1,0,1200,928,1,1199,cruel,11120 ,2019-10-21_18h48.27.269,SurveyExpMetaMem,3.2.3,Win32,60
,,,,,,,,,,,,,,,,,,,,4,1.868000031,1,0.524999857,1,0,1200,947,1,1199,shame,11120 ,2019-10-21_18h48.27.269,SurveyExpMetaMem,3.2.3,Win32,60
,,,,,,,,,,,,,,,,,,,,6,4.25,6,0.628999949,1,0,1200,192,1,1199,pleased,11120 ,2019-10-21_18h48.27.269,SurveyExpMetaMem,3.2.3,Win32,60
,,,,,,,,,,,,,,,,,,,,7,4.316999912,7,0.705000162,1,0,1200,164,1,1199,marry,11120 ,2019-10-21_18h48.27.269,SurveyExpMetaMem,3.2.3,Win32,60
,,,,,,,,,,,,,,,,,,,,8,2.72300005,7,0.636999846,1,0,1200,105,1,1199,curious,11120 ,2019-10-21_18h48.27.269,SurveyExpMetaMem,3.2.3,Win32,60
,,,,,,,,,,,,,,,,,,,,9,6.621999979,1,0.69900012,1,0,1200,1012,1,1199,gunshot,11120 ,2019-10-21_18h48.27.269,SurveyExpMetaMem,3.2.3,Win32,60
,,,,,,,,,,,,,,,,,,,,6,1.986000061,1,0.524999857,1,0,1200,383,1,1199,messy,11120 ,2019-10-21_18h48.27.269,SurveyExpMetaMem,3.2.3,Win32,60
,,,,,,,,,,,,,,,,,,,,7,7.758000135,7,0.626999855,1,0,1200,106,1,1199,voyage,11120 ,2019-10-21_18h48.27.269,SurveyExpMetaMem,3.2.3,Win32,60
,,,,,,,,,,,,,,,,,,,,8,1.819999933,1,0.546999931,1,0,1200,1161,1,1199,shock,11120 ,2019-10-21_18h48.27.269,SurveyExpMetaMem,3.2.3,Win32,60
,,,,,,,,,,,,,,,,,,,,7,2.006999969,1,0.42200017,1,0,1200,933,1,1199,afraid,11120 ,2019-10-21_18h48.27.269,SurveyExpMetaMem,3.2.3,Win32,60
,,,,,,,,,,,,,,,,,,,,5,2.214999914,7,2.148000002,1,0,1200,829,1,1199,innocent,11120 ,2019-10-21_18h48.27.269,SurveyExpMetaMem,3.2.3,Win32,60
,,,,,,,,,,,,,,,,,,,,8,76.26799989,9,0.281999826,1,0,1200,275,1,1199,brilliant,11120 ,2019-10-21_18h48.27.269,SurveyExpMetaMem,3.2.3,Win32,60
,,,,,,,,,,,,,,,,,,,,5,1.644999981,7,0.448000193,1,0,1200,280,1,1199,cookout,11120 ,2019-10-21_18h48.27.269,SurveyExpMetaMem,3.2.3,Win32,60
,,,,,,,,,,,,,,,,,,,,5,1.858999968,7,0.392999887,1,0,1200,958,1,1199,traitor,11120 ,2019-10-21_18h48.27.269,SurveyExpMetaMem,3.2.3,Win32,60
,,,,,,,,,,,,,,,,,,,,5,1.759000063,3,1.39199996,1,0,1200,409,1,1199,old,11120 ,2019-10-21_18h48.27.269,SurveyExpMetaMem,3.2.3,Win32,60
,,,,,,,,,,,,,,,,,,,,4,5.360000134,8,0.77699995,1,0,1200,276,1,1199,pastry,11120 ,2019-10-21_18h48.27.269,SurveyExpMetaMem,3.2.3,Win32,60
,,,,,,,,,,,,,,,,,,,,5,1.565999985,8,0.325000048,1,0,1200,91,1,1199,pretty,11120 ,2019-10-21_18h48.27.269,SurveyExpMetaMem,3.2.3,Win32,60
,,,,,,,,,,,,,,,,,,,,5,1.595999956,8,1.174999952,1,0,1200,867,1,1199,relaxed,11120 ,2019-10-21_18h48.27.269,SurveyExpMetaMem,3.2.3,Win32,60
,,,,,,,,,,,,,,,,,,,,9,2.042999983,1,0.476999998,1,0,1200,1108,1,1199,spider,11120 ,2019-10-21_18h48.27.269,SurveyExpMetaMem,3.2.3,Win32,60
,,,,,,,,,,,,,,,,,,,,5,1.845000029,5,0.289000034,1,0,1200,679,1,1199,yellow,11120 ,2019-10-21_18h48.27.269,SurveyExpMetaMem,3.2.3,Win32,60
,,,,,,,,,,,,,,,,,,,,1,2.338999987,7,1.529999971,1,0,1200,614,1,1199,crossword,11120 ,2019-10-21_18h48.27.269,SurveyExpMetaMem,3.2.3,Win32,60
,,,,,,,,,,,,,,,,,,,,9,1.664999962,9,0.931999922,1,0,1200,217,1,1199,bravery,11120 ,2019-10-21_18h48.27.269,SurveyExpMetaMem,3.2.3,Win32,60
,,,,,,,,,,,,,,,,,,,,8,0.033000231,1,2.662999868,1,0,1200,865,1,1199,bliss,11120 ,2019-10-21_18h48.27.269,SurveyExpMetaMem,3.2.3,Win32,60
,,,,,,,,,,,,,,,,,,,,8,1.365999937,5,1.60800004,1,0,1200,825,1,1199,swan,11120 ,2019-10-21_18h48.27.269,SurveyExpMetaMem,3.2.3,Win32,60
,,,,,,,,,,,,,,,,,,,,8,9.167000055,8,0.930999994,1,0,1200,158,1,1199,engage,11120 ,2019-10-21_18h48.27.269,SurveyExpMetaMem,3.2.3,Win32,60
,,,,,,,,,,,,,,,,,,,,5,1.700999975,8,0.777000189,1,0,1200,661,1,1199,cow,11120 ,2019-10-21_18h48.27.269,SurveyExpMetaMem,3.2.3,Win32,60
,,,,,,,,,,,,,,,,,,,,3,1.875999928,7,0.680000067,1,0,1200,500,1,1199,nosey,11120 ,2019-10-21_18h48.27.269,SurveyExpMetaMem,3.2.3,Win32,60
,,,,,,,,,,,,,,,,,,,,6,3.009000063,8,1.011000156,1,0,1200,124,1,1199,honeymoon,11120 ,2019-10-21_18h48.27.269,SurveyExpMetaMem,3.2.3,Win32,60
,,,,,,,,,,,,,,,,,,,,5,1.672999859,7,0.636000156,1,0,1200,773,1,1199,rational,11120 ,2019-10-21_18h48.27.269,SurveyExpMetaMem,3.2.3,Win32,60
,,,,,,,,,,,,,,,,,,,,6,21.78299999,6,0.180999994,1,0,1200,529,1,1199,small,11120 ,2019-10-21_18h48.27.269,SurveyExpMetaMem,3.2.3,Win32,60
,,,,,,,,,,,,,,,,,,,,7,1.858999968,7,0.562000036,1,0,1200,134,1,1199,dollar,11120 ,2019-10-21_18h48.27.269,SurveyExpMetaMem,3.2.3,Win32,60
,,,,,,,,,,,,,,,,,,,,9,1.951999903,7,0.736000061,1,0,1200,194,1,1199,celebration,11120 ,2019-10-21_18h48.27.269,SurveyExpMetaMem,3.2.3,Win32,60
,,,,,,,,,,,,,,,,,,,,9,1.665999889,1,0.585000038,1,0,1200,909,1,1199,terrified,11120 ,2019-10-21_18h48.27.269,SurveyExpMetaMem,3.2.3,Win32,60
,,,,,,,,,,,,,,,,,,,,5,1.785000086,5,0.267999887,1,0,1200,24,1,1199,model,11120 ,2019-10-21_18h48.27.269,SurveyExpMetaMem,3.2.3,Win32,60
,,,,,,,,,,,,,,,,,,,,2,3.13499999,3,0.981000185,1,0,1200,468,1,1199,noose,11120 ,2019-10-21_18h48.27.269,SurveyExpMetaMem,3.2.3,Win32,60
,,,,,,,,,,,,,,,,,,,,7,7.073000193,7,0.508000135,1,0,1200,170,1,1199,entertainment,11120 ,2019-10-21_18h48.27.269,SurveyExpMetaMem,3.2.3,Win32,60
,,,,,,,,,,,,,,,,,,,,8,5.105000019,8,0.738000154,1,0,1200,179,1,1199,star,11120 ,2019-10-21_18h48.27.269,SurveyExpMetaMem,3.2.3,Win32,60
,,,,,,,,,,,,,,,,,,,,2,2.702000141,3,7.230999947,1,0,1200,454,1,1199,damp,11120 ,2019-10-21_18h48.27.269,SurveyExpMetaMem,3.2.3,Win32,60
,,,,,,,,,,,,,,,,,,,,3,1.496999979,2,0.674999952,1,0,1200,472,1,1199,bald,11120 ,2019-10-21_18h48.27.269,SurveyExpMetaMem,3.2.3,Win32,60
,,,,,,,,,,,,,,,,,,,,1,3.042999983,7,1.772000074,1,0,1200,856,1,1199,leisurely,11120 ,2019-10-21_18h48.27.269,SurveyExpMetaMem,3.2.3,Win32,60
,,,,,,,,,,,,,,,,,,,,7,2.210000038,8,1.151000023,1,0,1200,146,1,1199,congratulations,11120 ,2019-10-21_18h48.27.269,SurveyExpMetaMem,3.2.3,Win32,60
,,,,,,,,,,,,,,,,,,,,2,3.654999971,2,11.05100012,1,0,1200,398,1,1199,handicapped,11120 ,2019-10-21_18h48.27.269,SurveyExpMetaMem,3.2.3,Win32,60
,,,,,,,,,,,,,,,,,,,,8,2.147000074,2,0.641000032,1,0,1200,999,1,1199,burdened,11120 ,2019-10-21_18h48.27.269,SurveyExpMetaMem,3.2.3,Win32,60
,,,,,,,,,,,,,,,,,,,,5,8.682999849,6,0.768000126,1,0,1200,725,1,1199,checkerboard,11120 ,2019-10-21_18h48.27.269,SurveyExpMetaMem,3.2.3,Win32,60
,,,,,,,,,,,,,,,,,,,,8,26.00399995,5,0.804999828,1,0,1200,289,1,1199,concert,11120 ,2019-10-21_18h48.27.269,SurveyExpMetaMem,3.2.3,Win32,60
,,,,,,,,,,,,,,,,,,,,3,1.625,2,0.753000021,1,0,1200,308,1,1199,worthless,11120 ,2019-10-21_18h48.27.269,SurveyExpMetaMem,3.2.3,Win32,60
,,,,,,,,,,,,,,,,,,,,7,1.401000023,3,0.50999999,1,0,1200,1175,1,1199,prostitute,11120 ,2019-10-21_18h48.27.269,SurveyExpMetaMem,3.2.3,Win32,60
,,,,,,,,,,,,,,,,,,,,9,1.149999857,9,0.512000084,1,0,1200,99,1,1199,funny,11120 ,2019-10-21_18h48.27.269,SurveyExpMetaMem,3.2.3,Win32,60
,,,,,,,,,,,,,,,,,,,,3,1.71600008,1,0.414999962,1,0,1200,442,1,1199,foolish,11120 ,2019-10-21_18h48.27.269,SurveyExpMetaMem,3.2.3,Win32,60
,,,,,,,,,,,,,,,,,,,,5,1.677000046,5,0.320000172,1,0,1200,518,1,1199,report,11120 ,2019-10-21_18h48.27.269,SurveyExpMetaMem,3.2.3,Win32,60
,,,,,,,,,,,,,,,,,,,,7,1.197000027,7,1.325999975,1,0,1200,108,1,1199,naked,11120 ,2019-10-21_18h48.27.269,SurveyExpMetaMem,3.2.3,Win32,60
,,,,,,,,,,,,,,,,,,,,5,1.434000015,5,0.309999943,1,0,1200,657,1,1199,peanut,11120 ,2019-10-21_18h48.27.269,SurveyExpMetaMem,3.2.3,Win32,60
,,,,,,,,,,,,,,,,,,,,7,2.664999962,4,0.175000191,1,0,1200,426,1,1199,con,11120 ,2019-10-21_18h48.27.269,SurveyExpMetaMem,3.2.3,Win32,60
,,,,,,,,,,,,,,,,,,,,2,2.438999891,3,0.85800004,1,0,1200,1060,1,1199,dent,11120 ,2019-10-21_18h48.27.269,SurveyExpMetaMem,3.2.3,Win32,60
,,,,,,,,,,,,,,,,,,,,7,2.437000036,7,1.154000044,1,0,1200,34,1,1199,personality,11120 ,2019-10-21_18h48.27.269,SurveyExpMetaMem,3.2.3,Win32,60
,,,,,,,,,,,,,,,,,,,,3,1.625,8,1.00999999,1,0,1200,142,1,1199,christmas,11120 ,2019-10-21_18h48.27.269,SurveyExpMetaMem,3.2.3,Win32,60
,,,,,,,,,,,,,,,,,,,,8,1.990999937,4,0.885000229,1,0,1200,1174,1,1199,beast,11120 ,2019-10-21_18h48.27.269,SurveyExpMetaMem,3.2.3,Win32,60
,,,,,,,,,,,,,,,,,,,,9,1.458000183,2,0.839999914,1,0,1200,1141,1,1199,shark,11120 ,2019-10-21_18h48.27.269,SurveyExpMetaMem,3.2.3,Win32,60
,,,,,,,,,,,,,,,,,,,,3,2.128999949,3,0.54399991,1,0,1200,311,1,1199,discomfort,11120 ,2019-10-21_18h48.27.269,SurveyExpMetaMem,3.2.3,Win32,60
,,,,,,,,,,,,,,,,,,,,5,1.302000046,5,0.22300005,1,0,1200,756,1,1199,plant,11120 ,2019-10-21_18h48.27.269,SurveyExpMetaMem,3.2.3,Win32,60
,,,,,,,,,,,,,,,,,,,,2,1.645999908,7,50.49000001,1,0,1200,568,1,1199,therapy,11120 ,2019-10-21_18h48.27.269,SurveyExpMetaMem,3.2.3,Win32,60
,,,,,,,,,,,,,,,,,,,,9,1.870999813,5,1.403000116,1,0,1200,28,1,1199,energy,11120 ,2019-10-21_18h48.27.269,SurveyExpMetaMem,3.2.3,Win32,60
,,,,,,,,,,,,,,,,,,,,3,2.698999882,3,0.285000086,1,0,1200,348,1,1199,impotent,11120 ,2019-10-21_18h48.27.269,SurveyExpMetaMem,3.2.3,Win32,60
,,,,,,,,,,,,,,,,,,,,2,1.8349998,2,0.526000023,1,0,1200,366,1,1199,fatigue,11120 ,2019-10-21_18h48.27.269,SurveyExpMetaMem,3.2.3,Win32,60
,,,,,,,,,,,,,,,,,,,,8,1.628000021,2,0.395000219,1,0,1200,1047,1,1199,psycho,11120 ,2019-10-21_18h48.27.269,SurveyExpMetaMem,3.2.3,Win32,60
,,,,,,,,,,,,,,,,,,,,5,2.889000177,2,0.688000202,1,0,1200,516,1,1199,smug,11120 ,2019-10-21_18h48.27.269,SurveyExpMetaMem,3.2.3,Win32,60
,,,,,,,,,,,,,,,,,,,,4,2.925000191,2,0.327000141,1,0,1200,400,1,1199,urine,11120 ,2019-10-21_18h48.27.269,SurveyExpMetaMem,3.2.3,Win32,60
,,,,,,,,,,,,,,,,,,,,6,1.450999975,2,0.319999933,1,0,1200,439,1,1199,spit,11120 ,2019-10-21_18h48.27.269,SurveyExpMetaMem,3.2.3,Win32,60
,,,,,,,,,,,,,,,,,,,,5,1.18599987,6,0.661000013,1,0,1200,649,1,1199,donkey,11120 ,2019-10-21_18h48.27.269,SurveyExpMetaMem,3.2.3,Win32,60
,,,,,,,,,,,,,,,,,,,,4,2.336000204,2,0.343999863,1,0,1200,583,1,1199,obey,11120 ,2019-10-21_18h48.27.269,SurveyExpMetaMem,3.2.3,Win32,60
,,,,,,,,,,,,,,,,,,,,5,32.06099987,6,0.930000067,1,0,1200,697,1,1199,clarinet,11120 ,2019-10-21_18h48.27.269,SurveyExpMetaMem,3.2.3,Win32,60
,,,,,,,,,,,,,,,,,,,,7,1.779000044,2,0.417000055,1,0,1200,317,1,1199,cry,11120 ,2019-10-21_18h48.27.269,SurveyExpMetaMem,3.2.3,Win32,60
,,,,,,,,,,,,,,,,,,,,5,1.440000057,5,0.219000101,1,0,1200,223,1,1199,fashion,11120 ,2019-10-21_18h48.27.269,SurveyExpMetaMem,3.2.3,Win32,60
,,,,,,,,,,,,,,,,,,,,5,4.649999857,7,0.310000181,1,0,1200,783,1,1199,sprinkle,11120 ,2019-10-21_18h48.27.269,SurveyExpMetaMem,3.2.3,Win32,60
,,,,,,,,,,,,,,,,,,,,3,1.277000189,3,0.851999998,1,0,1200,318,1,1199,disappointment,11120 ,2019-10-21_18h48.27.269,SurveyExpMetaMem,3.2.3,Win32,60
,,,,,,,,,,,,,,,,,,,,5,2.019000053,6,0.426999807,1,0,1200,690,1,1199,similar,11120 ,2019-10-21_18h48.27.269,SurveyExpMetaMem,3.2.3,Win32,60
,,,,,,,,,,,,,,,,,,,,3,1.948999882,2,0.361999989,1,0,1200,419,1,1199,immature,11120 ,2019-10-21_18h48.27.269,SurveyExpMetaMem,3.2.3,Win32,60
,,,,,,,,,,,,,,,,,,,,7,1.610999823,3,0.457000017,1,0,1200,221,1,1199,sparkle,11120 ,2019-10-21_18h48.27.269,SurveyExpMetaMem,3.2.3,Win32,60
,,,,,,,,,,,,,,,,,,,,6,2.107000113,3,0.667999983,1,0,1200,1001,1,1199,rude,11120 ,2019-10-21_18h48.27.269,SurveyExpMetaMem,3.2.3,Win32,60
,,,,,,,,,,,,,,,,,,,,6,1.897000074,6,0.378999949,1,0,1200,576,1,1199,policy,11120 ,2019-10-21_18h48.27.269,SurveyExpMetaMem,3.2.3,Win32,60
,,,,,,,,,,,,,,,,,,,,5,1.789999962,8,1.069999933,1,0,1200,817,1,1199,countryside,11120 ,2019-10-21_18h48.27.269,SurveyExpMetaMem,3.2.3,Win32,60
,,,,,,,,,,,,,,,,,,,,5,1.549000025,5,0.203000069,1,0,1200,1182,1,1199,pierce,11120 ,2019-10-21_18h48.27.269,SurveyExpMetaMem,3.2.3,Win32,60
,,,,,,,,,,,,,,,,,,,,5,1.684000015,7,1.366999865,1,0,1200,526,1,1199,dry,11120 ,2019-10-21_18h48.27.269,SurveyExpMetaMem,3.2.3,Win32,60
,,,,,,,,,,,,,,,,,,,,8,1.640999794,3,0.496999979,1,0,1200,1018,1,1199,distress,11120 ,2019-10-21_18h48.27.269,SurveyExpMetaMem,3.2.3,Win32,60
,,,,,,,,,,,,,,,,,,,,7,2.509000063,8,0.486999989,1,0,1200,43,1,1199,diamond,11120 ,2019-10-21_18h48.27.269,SurveyExpMetaMem,3.2.3,Win32,60
,,,,,,,,,,,,,,,,,,,,7,2.361999989,4,0.372999907,1,0,1200,1079,1,1199,critic,11120 ,2019-10-21_18h48.27.269,SurveyExpMetaMem,3.2.3,Win32,60
,,,,,,,,,,,,,,,,,,,,6,2.514000177,5,0.342999935,1,0,1200,153,1,1199,teach,11120 ,2019-10-21_18h48.27.269,SurveyExpMetaMem,3.2.3,Win32,60
,,,,,,,,,,,,,,,,,,,,6,2.492000103,8,0.735999823,1,0,1200,80,1,1199,wonderful,11120 ,2019-10-21_18h48.27.269,SurveyExpMetaMem,3.2.3,Win32,60
,,,,,,,,,,,,,,,,,,,,2,2.334000111,2,0.470000029,1,0,1200,574,1,1199,distracted,11120 ,2019-10-21_18h48.27.269,SurveyExpMetaMem,3.2.3,Win32,60
,,,,,,,,,,,,,,,,,,,,9,1.676999807,2,0.467000008,1,0,1200,1058,1,1199,bloody,11120 ,2019-10-21_18h48.27.269,SurveyExpMetaMem,3.2.3,Win32,60
,,,,,,,,,,,,,,,,,,,,5,3.167999983,7,0.617000103,1,0,1200,606,1,1199,easel,11120 ,2019-10-21_18h48.27.269,SurveyExpMetaMem,3.2.3,Win32,60
,,,,,,,,,,,,,,,,,,,,7,1.395999908,8,0.034999847,1,0,1200,150,1,1199,vodka,11120 ,2019-10-21_18h48.27.269,SurveyExpMetaMem,3.2.3,Win32,60
,,,,,,,,,,,,,,,,,,,,2,0.81099987,8,3.100999832,1,0,1200,226,1,1199,prize,11120 ,2019-10-21_18h48.27.269,SurveyExpMetaMem,3.2.3,Win32,60
,,,,,,,,,,,,,,,,,,,,3,0.460000038,5,11.00099993,1,0,1200,119,1,1199,stereo,11120 ,2019-10-21_18h48.27.269,SurveyExpMetaMem,3.2.3,Win32,60
,,,,,,,,,,,,,,,,,,,,6,0.532999992,7,2.984999895,1,0,1200,16,1,1199,sing,11120 ,2019-10-21_18h48.27.269,SurveyExpMetaMem,3.2.3,Win32,60
,,,,,,,,,,,,,,,,,,,,3,2.144000053,3,0.576000214,1,0,1200,1179,1,1199,nerves,11120 ,2019-10-21_18h48.27.269,SurveyExpMetaMem,3.2.3,Win32,60
,,,,,,,,,,,,,,,,,,,,1,2.04399991,4,1.055999994,1,0,1200,408,1,1199,bore,11120 ,2019-10-21_18h48.27.269,SurveyExpMetaMem,3.2.3,Win32,60
,,,,,,,,,,,,,,,,,,,,5,1.616000175,8,0.819999933,1,0,1200,617,1,1199,tomato,11120 ,2019-10-21_18h48.27.269,SurveyExpMetaMem,3.2.3,Win32,60
,,,,,,,,,,,,,,,,,,,,6,3.381999969,6,0.409000158,1,0,1200,1057,1,1199,deceit,11120 ,2019-10-21_18h48.27.269,SurveyExpMetaMem,3.2.3,Win32,60
,,,,,,,,,,,,,,,,,,,,5,2.417000055,5,0.321000099,1,0,1200,849,1,1199,blue,11120 ,2019-10-21_18h48.27.269,SurveyExpMetaMem,3.2.3,Win32,60
,,,,,,,,,,,,,,,,,,,,2,2.467000008,2,0.467000008,1,0,1200,361,1,1199,glum,11120 ,2019-10-21_18h48.27.269,SurveyExpMetaMem,3.2.3,Win32,60
,,,,,,,,,,,,,,,,,,,,5,2.195000172,5,0.343000174,1,0,1200,864,1,1199,blanket,11120 ,2019-10-21_18h48.27.269,SurveyExpMetaMem,3.2.3,Win32,60
,,,,,,,,,,,,,,,,,,,,1,2.034000158,3,0.568000078,1,0,1200,405,1,1199,fatigued,11120 ,2019-10-21_18h48.27.269,SurveyExpMetaMem,3.2.3,Win32,60
,,,,,,,,,,,,,,,,,,,,1,2.086999893,3,0.325000048,1,0,1200,306,1,1199,gloom,11120 ,2019-10-21_18h48.27.269,SurveyExpMetaMem,3.2.3,Win32,60
,,,,,,,,,,,,,,,,,,,,7,2.883999825,3,0.726000071,1,0,1200,1066,1,1199,annoy,11120 ,2019-10-21_18h48.27.269,SurveyExpMetaMem,3.2.3,Win32,60
,,,,,,,,,,,,,,,,,,,,5,1.842000008,5,0.306999922,1,0,1200,623,1,1199,suburban,11120 ,2019-10-21_18h48.27.269,SurveyExpMetaMem,3.2.3,Win32,60
,,,,,,,,,,,,,,,,,,,,3,7.020999908,7,0.376999855,1,0,1200,792,1,1199,moral,11120 ,2019-10-21_18h48.27.269,SurveyExpMetaMem,3.2.3,Win32,60
,,,,,,,,,,,,,,,,,,,,5,3.02699995,7,0.32799983,1,0,1200,53,1,1199,lotion,11120 ,2019-10-21_18h48.27.269,SurveyExpMetaMem,3.2.3,Win32,60
,,,,,,,,,,,,,,,,,,,,8,1.472000122,7,1.231000185,1,0,1200,8,1,1199,extreme,11120 ,2019-10-21_18h48.27.269,SurveyExpMetaMem,3.2.3,Win32,60
,,,,,,,,,,,,,,,,,,,,7,1.911000013,8,0.853000164,1,0,1200,713,1,1199,mobile,11120 ,2019-10-21_18h48.27.269,SurveyExpMetaMem,3.2.3,Win32,60
,,,,,,,,,,,,,,,,,,,,1,1.440999985,2,0.957000017,1,0,1200,438,1,1199,dull,11120 ,2019-10-21_18h48.27.269,SurveyExpMetaMem,3.2.3,Win32,60
,,,,,,,,,,,,,,,,,,,,9,2.160000086,3,0.734999895,1,0,1200,1107,1,1199,snake,11120 ,2019-10-21_18h48.27.269,SurveyExpMetaMem,3.2.3,Win32,60
,,,,,,,,,,,,,,,,,,,,7,24.39299989,6,0.757999897,1,0,1200,56,1,1199,spice,11120 ,2019-10-21_18h48.27.269,SurveyExpMetaMem,3.2.3,Win32,60
,,,,,,,,,,,,,,,,,,,,9,1.521000147,6,0.67599988,1,0,1200,250,1,1199,erupt,11120 ,2019-10-21_18h48.27.269,SurveyExpMetaMem,3.2.3,Win32,60
,,,,,,,,,,,,,,,,,,,,5,1.979000092,5,0.279999971,1,0,1200,653,1,1199,detail,11120 ,2019-10-21_18h48.27.269,SurveyExpMetaMem,3.2.3,Win32,60
,,,,,,,,,,,,,,,,,,,,8,2.667999983,2,0.403999805,1,0,1200,307,1,1199,sick,11120 ,2019-10-21_18h48.27.269,SurveyExpMetaMem,3.2.3,Win32,60
,,,,,,,,,,,,,,,,,,,,8,1.95299983,6,0.536999941,1,0,1200,205,1,1199,outspoken,11120 ,2019-10-21_18h48.27.269,SurveyExpMetaMem,3.2.3,Win32,60
,,,,,,,,,,,,,,,,,,,,1,1.483999968,5,0.832999945,1,0,1200,416,1,1199,boring,11120 ,2019-10-21_18h48.27.269,SurveyExpMetaMem,3.2.3,Win32,60
,,,,,,,,,,,,,,,,,,,,7,2.099999905,1,0.565000057,1,0,1200,934,1,1199,sob,11120 ,2019-10-21_18h48.27.269,SurveyExpMetaMem,3.2.3,Win32,60
,,,,,,,,,,,,,,,,,,,,9,2.264000177,3,0.525000095,1,0,1200,951,1,1199,castrate,11120 ,2019-10-21_18h48.27.269,SurveyExpMetaMem,3.2.3,Win32,60
,,,,,,,,,,,,,,,,,,,,5,2.671000004,9,0.622000217,1,0,1200,213,1,1199,fair,11120 ,2019-10-21_18h48.27.269,SurveyExpMetaMem,3.2.3,Win32,60
,,,,,,,,,,,,,,,,,,,,5,4.247999907,2,1.581999779,1,0,1200,371,1,1199,weakness,11120 ,2019-10-21_18h48.27.269,SurveyExpMetaMem,3.2.3,Win32,60
,,,,,,,,,,,,,,,,,,,,9,1.923000097,8,1.754999876,1,0,1200,10,1,1199,cheerleader,11120 ,2019-10-21_18h48.27.269,SurveyExpMetaMem,3.2.3,Win32,60
,,,,,,,,,,,,,,,,,,,,7,2.710000038,8,0.960999966,1,0,1200,555,1,1199,school,11120 ,2019-10-21_18h48.27.269,SurveyExpMetaMem,3.2.3,Win32,60
,,,,,,,,,,,,,,,,,,,,4,3.802999973,2,1.730999947,1,0,1200,927,1,1199,jail,11120 ,2019-10-21_18h48.27.269,SurveyExpMetaMem,3.2.3,Win32,60
,,,,,,,,,,,,,,,,,,,,4,3.467999935,4,0.952000141,1,0,1200,353,1,1199,blister,11120 ,2019-10-21_18h48.27.269,SurveyExpMetaMem,3.2.3,Win32,60
,,,,,,,,,,,,,,,,,,,,3,2.941999912,2,0.445000172,1,0,1200,413,1,1199,deficient,11120 ,2019-10-21_18h48.27.269,SurveyExpMetaMem,3.2.3,Win32,60
,,,,,,,,,,,,,,,,,,,,9,1.70600009,8,1.157000065,1,0,1200,97,1,1199,enthusiastic,11120 ,2019-10-21_18h48.27.269,SurveyExpMetaMem,3.2.3,Win32,60
,,,,,,,,,,,,,,,,,,,,8,1.456999779,8,0.870000124,1,0,1200,0,1,1199,dragon,11120 ,2019-10-21_18h48.27.269,SurveyExpMetaMem,3.2.3,Win32,60
,,,,,,,,,,,,,,,,,,,,8,2.369999886,8,0.470000029,1,0,1200,154,1,1199,race,11120 ,2019-10-21_18h48.27.269,SurveyExpMetaMem,3.2.3,Win32,60
,,,,,,,,,,,,,,,,,,,,6,1.899999857,7,0.95299983,1,0,1200,770,1,1199,buffalo,11120 ,2019-10-21_18h48.27.269,SurveyExpMetaMem,3.2.3,Win32,60
,,,,,,,,,,,,,,,,,,,,2,6.779999971,2,0.406999826,1,0,1200,587,1,1199,dissolve,11120 ,2019-10-21_18h48.27.269,SurveyExpMetaMem,3.2.3,Win32,60
,,,,,,,,,,,,,,,,,,,,7,2.107000113,8,1.039000034,1,0,1200,129,1,1199,fly,11120 ,2019-10-21_18h48.27.269,SurveyExpMetaMem,3.2.3,Win32,60
,,,,,,,,,,,,,,,,,,,,5,1.315999985,6,0.523999929,1,0,1200,780,1,1199,grass,11120 ,2019-10-21_18h48.27.269,SurveyExpMetaMem,3.2.3,Win32,60
,,,,,,,,,,,,,,,,,,,,8,1.763999939,3,0.483999968,1,0,1200,1051,1,1199,insane,11120 ,2019-10-21_18h48.27.269,SurveyExpMetaMem,3.2.3,Win32,60
,,,,,,,,,,,,,,,,,,,,5,2.131999969,8,0.463000059,1,0,1200,1000,1,1199,threat,11120 ,2019-10-21_18h48.27.269,SurveyExpMetaMem,3.2.3,Win32,60
,,,,,,,,,,,,,,,,,,,,5,3.434000015,9,1.172999859,1,0,1200,835,1,1199,helpful,11120 ,2019-10-21_18h48.27.269,SurveyExpMetaMem,3.2.3,Win32,60
,,,,,,,,,,,,,,,,,,,,1,1.989000082,1,0.205999851,1,0,1200,302,1,1199,loneliness,11120 ,2019-10-21_18h48.27.269,SurveyExpMetaMem,3.2.3,Win32,60
,,,,,,,,,,,,,,,,,,,,1,0.100999832,7,2.763000011,1,0,1200,334,1,1199,trash,11120 ,2019-10-21_18h48.27.269,SurveyExpMetaMem,3.2.3,Win32,60
,,,,,,,,,,,,,,,,,,,,4,1.430999994,5,3.127999783,1,0,1200,654,1,1199,brief,11120 ,2019-10-21_18h48.27.269,SurveyExpMetaMem,3.2.3,Win32,60
,,,,,,,,,,,,,,,,,,,,5,4.743999958,5,0.414000034,1,0,1200,841,1,1199,bathtub,11120 ,2019-10-21_18h48.27.269,SurveyExpMetaMem,3.2.3,Win32,60
,,,,,,,,,,,,,,,,,,,,5,0.280999899,9,2.938000202,1,0,1200,292,1,1199,birthday,11120 ,2019-10-21_18h48.27.269,SurveyExpMetaMem,3.2.3,Win32,60
,,,,,,,,,,,,,,,,,,,,8,2.986000061,8,2.070999861,1,0,1200,1183,1,1199,emotional,11120 ,2019-10-21_18h48.27.269,SurveyExpMetaMem,3.2.3,Win32,60
,,,,,,,,,,,,,,,,,,,,5,2.648000002,5,0.239000082,1,0,1200,210,1,1199,elephant,11120 ,2019-10-21_18h48.27.269,SurveyExpMetaMem,3.2.3,Win32,60
,,,,,,,,,,,,,,,,,,,,7,2.373000145,7,0.900000095,1,0,1200,190,1,1199,rescue,11120 ,2019-10-21_18h48.27.269,SurveyExpMetaMem,3.2.3,Win32,60
,,,,,,,,,,,,,,,,,,,,7,1.904999971,9,0.327000141,1,0,1200,231,1,1199,cherish,11120 ,2019-10-21_18h48.27.269,SurveyExpMetaMem,3.2.3,Win32,60
,,,,,,,,,,,,,,,,,,,,7,3.421000004,3,0.471999884,1,0,1200,449,1,1199,egotistical,11120 ,2019-10-21_18h48.27.269,SurveyExpMetaMem,3.2.3,Win32,60
,,,,,,,,,,,,,,,,,,,,8,1.531000137,3,0.36500001,1,0,1200,1086,1,1199,irritate,11120 ,2019-10-21_18h48.27.269,SurveyExpMetaMem,3.2.3,Win32,60
,,,,,,,,,,,,,,,,,,,,3,1.957000017,2,0.389000177,1,0,1200,396,1,1199,unpopular,11120 ,2019-10-21_18h48.27.269,SurveyExpMetaMem,3.2.3,Win32,60
,,,,,,,,,,,,,,,,,,,,6,3.063999891,4,0.898000002,1,0,1200,1134,1,1199,obsessed,11120 ,2019-10-21_18h48.27.269,SurveyExpMetaMem,3.2.3,Win32,60
,,,,,,,,,,,,,,,,,,,,8,1.625,3,0.539000034,1,0,1200,378,1,1199,dislike,11120 ,2019-10-21_18h48.27.269,SurveyExpMetaMem,3.2.3,Win32,60
,,,,,,,,,,,,,,,,,,,,9,1.766000032,2,0.894000053,1,0,1200,1139,1,1199,scare,11120 ,2019-10-21_18h48.27.269,SurveyExpMetaMem,3.2.3,Win32,60
,,,,,,,,,,,,,,,,,,,,5,3.967000008,7,0.459000111,1,0,1200,860,1,1199,silk,11120 ,2019-10-21_18h48.27.269,SurveyExpMetaMem,3.2.3,Win32,60
,,,,,,,,,,,,,,,,,,,,7,1.947000027,4,0.717000008,1,0,1200,118,1,1199,conquer,11120 ,2019-10-21_18h48.27.269,SurveyExpMetaMem,3.2.3,Win32,60
,,,,,,,,,,,,,,,,,,,,5,2.183000088,4,0.683000088,1,0,1200,473,1,1199,senseless,11120 ,2019-10-21_18h48.27.269,SurveyExpMetaMem,3.2.3,Win32,60
,,,,,,,,,,,,,,,,,,,,6,1.852999926,3,0.40899992,1,0,1200,157,1,1199,reveal,11120 ,2019-10-21_18h48.27.269,SurveyExpMetaMem,3.2.3,Win32,60
,,,,,,,,,,,,,,,,,,,,5,2.716999769,6,0.639000177,1,0,1200,3,1,1199,nudist,11120 ,2019-10-21_18h48.27.269,SurveyExpMetaMem,3.2.3,Win32,60
,,,,,,,,,,,,,,,,,,,,5,1.295000076,5,0.202000141,1,0,1200,554,1,1199,label,11120 ,2019-10-21_18h48.27.269,SurveyExpMetaMem,3.2.3,Win32,60
,,,,,,,,,,,,,,,,,,,,9,1.666000128,3,0.537999868,1,0,1200,1052,1,1199,angry,11120 ,2019-10-21_18h48.27.269,SurveyExpMetaMem,3.2.3,Win32,60
,,,,,,,,,,,,,,,,,,,,8,6.134000063,1,0.417000055,1,0,1200,1111,1,1199,bruise,11120 ,2019-10-21_18h48.27.269,SurveyExpMetaMem,3.2.3,Win32,60
,,,,,,,,,,,,,,,,,,,,7,1.993000031,2,2.119999886,1,0,1200,1113,1,1199,dagger,11120 ,2019-10-21_18h48.27.269,SurveyExpMetaMem,3.2.3,Win32,60
,,,,,,,,,,,,,,,,,,,,5,6.082999945,6,0.61500001,1,0,1200,1045,1,1199,scalding,11120 ,2019-10-21_18h48.27.269,SurveyExpMetaMem,3.2.3,Win32,60
,,,,,,,,,,,,,,,,,,,,1,2.572999954,1,0.391000032,1,0,1200,352,1,1199,negligent,11120 ,2019-10-21_18h48.27.269,SurveyExpMetaMem,3.2.3,Win32,60
,,,,,,,,,,,,,,,,,,,,7,1.902999878,7,1.28399992,1,0,1200,782,1,1199,open,11120 ,2019-10-21_18h48.27.269,SurveyExpMetaMem,3.2.3,Win32,60
,,,,,,,,,,,,,,,,,,,,5,3.654000044,5,0.185000181,1,0,1200,774,1,1199,leaves,11120 ,2019-10-21_18h48.27.269,SurveyExpMetaMem,3.2.3,Win32,60
,,,,,,,,,,,,,,,,,,,,8,4.395999908,5,0.640000105,1,0,1200,264,1,1199,thong,11120 ,2019-10-21_18h48.27.269,SurveyExpMetaMem,3.2.3,Win32,60
,,,,,,,,,,,,,,,,,,,,8,2.799000025,7,0.587999821,1,0,1200,256,1,1199,galaxy,11120 ,2019-10-21_18h48.27.269,SurveyExpMetaMem,3.2.3,Win32,60
,,,,,,,,,,,,,,,,,,,,6,2.605000019,8,1.200000048,1,0,1200,769,1,1199,relate,11120 ,2019-10-21_18h48.27.269,SurveyExpMetaMem,3.2.3,Win32,60
,,,,,,,,,,,,,,,,,,,,5,1.67200017,5,0.550000191,1,0,1200,270,1,1199,toddler,11120 ,2019-10-21_18h48.27.269,SurveyExpMetaMem,3.2.3,Win32,60
,,,,,,,,,,,,,,,,,,,,8,2.371000051,8,0.252000093,1,0,1200,238,1,1199,sunshine,11120 ,2019-10-21_18h48.27.269,SurveyExpMetaMem,3.2.3,Win32,60
,,,,,,,,,,,,,,,,,,,,5,3.008000135,5,0.752000093,1,0,1200,724,1,1199,owl,11120 ,2019-10-21_18h48.27.269,SurveyExpMetaMem,3.2.3,Win32,60
,,,,,,,,,,,,,,,,,,,,9,2.261999846,2,0.749000072,1,0,1200,1024,1,1199,burn,11120 ,2019-10-21_18h48.27.269,SurveyExpMetaMem,3.2.3,Win32,60
,,,,,,,,,,,,,,,,,,,,8,2.041000128,7,2.628999949,1,0,1200,60,1,1199,bikini,11120 ,2019-10-21_18h48.27.269,SurveyExpMetaMem,3.2.3,Win32,60
,,,,,,,,,,,,,,,,,,,,5,1.729000092,5,0.33100009,1,0,1200,700,1,1199,frog,11120 ,2019-10-21_18h48.27.269,SurveyExpMetaMem,3.2.3,Win32,60
,,,,,,,,,,,,,,,,,,,,7,1.912000179,1,0.651000023,1,0,1200,992,1,1199,addict,11120 ,2019-10-21_18h48.27.269,SurveyExpMetaMem,3.2.3,Win32,60
,,,,,,,,,,,,,,,,,,,,5,2.963000059,4,1.080999851,1,0,1200,517,1,1199,habit,11120 ,2019-10-21_18h48.27.269,SurveyExpMetaMem,3.2.3,Win32,60
,,,,,,,,,,,,,,,,,,,,4,6.273000002,7,1.454999924,1,0,1200,837,1,1199,responsible,11120 ,2019-10-21_18h48.27.269,SurveyExpMetaMem,3.2.3,Win32,60
,,,,,,,,,,,,,,,,,,,,5,4.078999996,9,1.931999922,1,0,1200,197,1,1199,happy,11120 ,2019-10-21_18h48.27.269,SurveyExpMetaMem,3.2.3,Win32,60
,,,,,,,,,,,,,,,,,,,,7,2.264999866,4,1.815000057,1,0,1200,380,1,1199,expire,11120 ,2019-10-21_18h48.27.269,SurveyExpMetaMem,3.2.3,Win32,60
,,,,,,,,,,,,,,,,,,,,1,13.88599992,3,0.909000158,1,0,1200,565,1,1199,frozen,11120 ,2019-10-21_18h48.27.269,SurveyExpMetaMem,3.2.3,Win32,60
,,,,,,,,,,,,,,,,,,,,6,1.874000072,6,1.585000038,1,0,1200,27,1,1199,gourmet,11120 ,2019-10-21_18h48.27.269,SurveyExpMetaMem,3.2.3,Win32,60
,,,,,,,,,,,,,,,,,,,,6,1.717000008,3,0.779999971,1,0,1200,429,1,1199,cough,11120 ,2019-10-21_18h48.27.269,SurveyExpMetaMem,3.2.3,Win32,60
,,,,,,,,,,,,,,,,,,,,9,1.865999937,1,1.080999851,1,0,1200,936,1,1199,assault,11120 ,2019-10-21_18h48.27.269,SurveyExpMetaMem,3.2.3,Win32,60
,,,,,,,,,,,,,,,,,,,,6,2.605000019,7,0.752000093,1,0,1200,846,1,1199,able,11120 ,2019-10-21_18h48.27.269,SurveyExpMetaMem,3.2.3,Win32,60
,,,,,,,,,,,,,,,,,,,,8,2.782999992,2,0.808000088,1,0,1200,991,1,1199,harass,11120 ,2019-10-21_18h48.27.269,SurveyExpMetaMem,3.2.3,Win32,60
,,,,,,,,,,,,,,,,,,,,5,2.374000072,4,2.110000134,1,0,1200,1040,1,1199,communism,11120 ,2019-10-21_18h48.27.269,SurveyExpMetaMem,3.2.3,Win32,60
,,,,,,,,,,,,,,,,,,,,4,7.65199995,2,1.04700017,1,0,1200,399,1,1199,withdrawn,11120 ,2019-10-21_18h48.27.269,SurveyExpMetaMem,3.2.3,Win32,60
,,,,,,,,,,,,,,,,,,,,7,2.157000065,7,1.041000128,1,0,1200,178,1,1199,alive,11120 ,2019-10-21_18h48.27.269,SurveyExpMetaMem,3.2.3,Win32,60
,,,,,,,,,,,,,,,,,,,,7,2.213999987,8,1.667999983,1,0,1200,84,1,1199,eat,11120 ,2019-10-21_18h48.27.269,SurveyExpMetaMem,3.2.3,Win32,60
,,,,,,,,,,,,,,,,,,,,5,2.726999998,6,1.099999905,1,0,1200,650,1,1199,native,11120 ,2019-10-21_18h48.27.269,SurveyExpMetaMem,3.2.3,Win32,60
,,,,,,,,,,,,,,,,,,,,7,3.75999999,2,2.601999998,1,0,1200,910,1,1199,abusive,11120 ,2019-10-21_18h48.27.269,SurveyExpMetaMem,3.2.3,Win32,60
,,,,,,,,,,,,,,,,,,,,5,1.95299983,6,1.100999832,1,0,1200,241,1,1199,car,11120 ,2019-10-21_18h48.27.269,SurveyExpMetaMem,3.2.3,Win32,60
,,,,,,,,,,,,,,,,,,,,9,3.496999979,5,1.345999956,1,0,1200,52,1,1199,dare,11120 ,2019-10-21_18h48.27.269,SurveyExpMetaMem,3.2.3,Win32,60
,,,,,,,,,,,,,,,,,,,,3,3.253000021,9,1.313999891,1,0,1200,113,1,1199,bridesmaid,11120 ,2019-10-21_18h48.27.269,SurveyExpMetaMem,3.2.3,Win32,60
,,,,,,,,,,,,,,,,,,,,6,2.082000017,1,1.453999996,1,0,1200,343,1,1199,fever,11120 ,2019-10-21_18h48.27.269,SurveyExpMetaMem,3.2.3,Win32,60
,,,,,,,,,,,,,,,,,,,,5,2.19900012,6,0.404000044,1,0,1200,744,1,1199,village,11120 ,2019-10-21_18h48.27.269,SurveyExpMetaMem,3.2.3,Win32,60
,,,,,,,,,,,,,,,,,,,,7,2.680000067,6,1.845999956,1,0,1200,558,1,1199,punk,11120 ,2019-10-21_18h48.27.269,SurveyExpMetaMem,3.2.3,Win32,60
,,,,,,,,,,,,,,,,,,,,7,2.976999998,8,0.851000071,1,0,1200,135,1,1199,applause,11120 ,2019-10-21_18h48.27.269,SurveyExpMetaMem,3.2.3,Win32,60
,,,,,,,,,,,,,,,,,,,,7,1.855000019,4,1.305999994,1,0,1200,397,1,1199,complaint,11120 ,2019-10-21_18h48.27.269,SurveyExpMetaMem,3.2.3,Win32,60
,,,,,,,,,,,,,,,,,,,,3,776.592,3,0.677000046,1,0,1200,432,1,1199,resign,11120 ,2019-10-21_18h48.27.269,SurveyExpMetaMem,3.2.3,Win32,60
,,,,,,,,,,,,,,,,,,,,3,1.995000124,2,0.6650002,1,0,1200,1044,1,1199,lost,11120 ,2019-10-21_18h48.27.269,SurveyExpMetaMem,3.2.3,Win32,60
,,,,,,,,,,,,,,,,,,,,7,1.717999935,3,0.609000206,1,0,1200,941,1,1199,leprosy,11120 ,2019-10-21_18h48.27.269,SurveyExpMetaMem,3.2.3,Win32,60
,,,,,,,,,,,,,,,,,,,,5,36.79699993,5,0.281000137,1,0,1200,495,1,1199,dust,11120 ,2019-10-21_18h48.27.269,SurveyExpMetaMem,3.2.3,Win32,60
,,,,,,,,,,,,,,,,,,,,6,2.144999981,6,0.258000135,1,0,1200,122,1,1199,prince,11120 ,2019-10-21_18h48.27.269,SurveyExpMetaMem,3.2.3,Win32,60
,,,,,,,,,,,,,,,,,,,,2,1.710999966,2,0.182999849,1,0,1200,310,1,1199,lonely,11120 ,2019-10-21_18h48.27.269,SurveyExpMetaMem,3.2.3,Win32,60
,,,,,,,,,,,,,,,,,,,,7,1.688999891,2,0.078999996,1,0,1200,984,1,1199,despairing,11120 ,2019-10-21_18h48.27.269,SurveyExpMetaMem,3.2.3,Win32,60
,,,,,,,,,,,,,,,,,,,,8,1.461999893,3,0.151000023,1,0,1200,1159,1,1199,rifle,11120 ,2019-10-21_18h48.27.269,SurveyExpMetaMem,3.2.3,Win32,60
,,,,,,,,,,,,,,,,,,,,5,2.475000143,3,0.24000001,1,0,1200,347,1,1199,unpleasant,11120 ,2019-10-21_18h48.27.269,SurveyExpMetaMem,3.2.3,Win32,60
,,,,,,,,,,,,,,,,,,,,9,1.89199996,1,0.190999985,1,0,1200,1068,1,1199,riot,11120 ,2019-10-21_18h48.27.269,SurveyExpMetaMem,3.2.3,Win32,60
,,,,,,,,,,,,,,,,,,,,8,1.605999947,3,0.165999889,1,0,1200,968,1,1199,insult,11120 ,2019-10-21_18h48.27.269,SurveyExpMetaMem,3.2.3,Win32,60
,,,,,,,,,,,,,,,,,,,,7,2.437999964,8,0.305000067,1,0,1200,863,1,1199,fireplace,11120 ,2019-10-21_18h48.27.269,SurveyExpMetaMem,3.2.3,Win32,60
,,,,,,,,,,,,,,,,,,,,5,5.409999847,5,0.128999949,1,0,1200,582,1,1199,cling,11120 ,2019-10-21_18h48.27.269,SurveyExpMetaMem,3.2.3,Win32,60
,,,,,,,,,,,,,,,,,,,,5,3.504999876,9,0.688000202,1,0,1200,858,1,1199,donate,11120 ,2019-10-21_18h48.27.269,SurveyExpMetaMem,3.2.3,Win32,60
,,,,,,,,,,,,,,,,,,,,7,1.388999939,2,0.378999949,1,0,1200,1046,1,1199,unsafe,11120 ,2019-10-21_18h48.27.269,SurveyExpMetaMem,3.2.3,Win32,60
,,,,,,,,,,,,,,,,,,,,3,0.008000135,8,3.786000013,1,0,1200,148,1,1199,victory,11120 ,2019-10-21_18h48.27.269,SurveyExpMetaMem,3.2.3,Win32,60
,,,,,,,,,,,,,,,,,,,,5,1.504999876,2,0.794000149,1,0,1200,491,1,1199,meek,11120 ,2019-10-21_18h48.27.269,SurveyExpMetaMem,3.2.3,Win32,60
,,,,,,,,,,,,,,,,,,,,7,2.161999941,3,0.417999983,1,0,1200,1019,1,1199,fraud,11120 ,2019-10-21_18h48.27.269,SurveyExpMetaMem,3.2.3,Win32,60
,,,,,,,,,,,,,,,,,,,,5,1.525000095,7,0.467999935,1,0,1200,740,1,1199,groceries,11120 ,2019-10-21_18h48.27.269,SurveyExpMetaMem,3.2.3,Win32,60
,,,,,,,,,,,,,,,,,,,,2,2.517999887,7,0.648999929,1,0,1200,200,1,1199,preach,11120 ,2019-10-21_18h48.27.269,SurveyExpMetaMem,3.2.3,Win32,60
,,,,,,,,,,,,,,,,,,,,6,3.448999882,8,0.856000185,1,0,1200,288,1,1199,tasty,11120 ,2019-10-21_18h48.27.269,SurveyExpMetaMem,3.2.3,Win32,60
,,,,,,,,,,,,,,,,,,,,8,2.0849998,3,0.629000187,1,0,1200,952,1,1199,troubled,11120 ,2019-10-21_18h48.27.269,SurveyExpMetaMem,3.2.3,Win32,60
,,,,,,,,,,,,,,,,,,,,5,3.28399992,9,0.652999878,1,0,1200,885,1,1199,cozy,11120 ,2019-10-21_18h48.27.269,SurveyExpMetaMem,3.2.3,Win32,60
,,,,,,,,,,,,,,,,,,,,6,1.674999952,5,0.905999899,1,0,1200,698,1,1199,oven,11120 ,2019-10-21_18h48.27.269,SurveyExpMetaMem,3.2.3,Win32,60
,,,,,,,,,,,,,,,,,,,,5,2.071000099,5,0.35800004,1,0,1200,246,1,1199,complete,11120 ,2019-10-21_18h48.27.269,SurveyExpMetaMem,3.2.3,Win32,60
,,,,,,,,,,,,,,,,,,,,4,2.372999907,6,3.151000023,1,0,1200,610,1,1199,miniature,11120 ,2019-10-21_18h48.27.269,SurveyExpMetaMem,3.2.3,Win32,60
,,,,,,,,,,,,,,,,,,,,5,1.855000019,5,0.315999985,1,0,1200,656,1,1199,number,11120 ,2019-10-21_18h48.27.269,SurveyExpMetaMem,3.2.3,Win32,60
,,,,,,,,,,,,,,,,,,,,5,1.805000067,6,0.594000101,1,0,1200,600,1,1199,parlor,11120 ,2019-10-21_18h48.27.269,SurveyExpMetaMem,3.2.3,Win32,60
,,,,,,,,,,,,,,,,,,,,5,1.436000109,5,0.279000044,1,0,1200,749,1,1199,glasses,11120 ,2019-10-21_18h48.27.269,SurveyExpMetaMem,3.2.3,Win32,60
,,,,,,,,,,,,,,,,,,,,4,2.24000001,6,0.529999971,1,0,1200,722,1,1199,consoled,11120 ,2019-10-21_18h48.27.269,SurveyExpMetaMem,3.2.3,Win32,60
,,,,,,,,,,,,,,,,,,,,3,1.347000122,6,0.339999914,1,0,1200,388,1,1199,mildew,11120 ,2019-10-21_18h48.27.269,SurveyExpMetaMem,3.2.3,Win32,60
,,,,,,,,,,,,,,,,,,,,6,1.669000149,6,0.186000109,1,0,1200,123,1,1199,favorite,11120 ,2019-10-21_18h48.27.269,SurveyExpMetaMem,3.2.3,Win32,60
,,,,,,,,,,,,,,,,,,,,5,2.133000135,7,0.654999971,1,0,1200,838,1,1199,nestle,11120 ,2019-10-21_18h48.27.269,SurveyExpMetaMem,3.2.3,Win32,60
,,,,,,,,,,,,,,,,,,,,8,1.722000122,9,1.231000185,1,0,1200,196,1,1199,smile,11120 ,2019-10-21_18h48.27.269,SurveyExpMetaMem,3.2.3,Win32,60
,,,,,,,,,,,,,,,,,,,,5,2.913000107,5,0.513999939,1,0,1200,591,1,1199,bereavement,11120 ,2019-10-21_18h48.27.269,SurveyExpMetaMem,3.2.3,Win32,60
,,,,,,,,,,,,,,,,,,,,7,1.463999987,4,1.378999949,1,0,1200,523,1,1199,witch,11120 ,2019-10-21_18h48.27.269,SurveyExpMetaMem,3.2.3,Win32,60
,,,,,,,,,,,,,,,,,,,,7,2.687000036,3,0.833999872,1,0,1200,925,1,1199,disloyal,11120 ,2019-10-21_18h48.27.269,SurveyExpMetaMem,3.2.3,Win32,60
,,,,,,,,,,,,,,,,,,,,5,1.503999949,8,0.621999979,1,0,1200,786,1,1199,afternoon,11120 ,2019-10-21_18h48.27.269,SurveyExpMetaMem,3.2.3,Win32,60
,,,,,,,,,,,,,,,,,,,,9,1.731999874,5,1.587000132,1,0,1200,267,1,1199,bold,11120 ,2019-10-21_18h48.27.269,SurveyExpMetaMem,3.2.3,Win32,60
,,,,,,,,,,,,,,,,,,,,5,2.486999989,7,0.825999975,1,0,1200,880,1,1199,security,11120 ,2019-10-21_18h48.27.269,SurveyExpMetaMem,3.2.3,Win32,60
,,,,,,,,,,,,,,,,,,,,5,2.085000038,7,0.503999949,1,0,1200,819,1,1199,sheep,11120 ,2019-10-21_18h48.27.269,SurveyExpMetaMem,3.2.3,Win32,60
,,,,,,,,,,,,,,,,,,,,8,2.604000092,2,1.35800004,1,0,1200,458,1,1199,refuse,11120 ,2019-10-21_18h48.27.269,SurveyExpMetaMem,3.2.3,Win32,60
,,,,,,,,,,,,,,,,,,,,7,1.254000187,3,0.751000166,1,0,1200,446,1,1199,greedy,11120 ,2019-10-21_18h48.27.269,SurveyExpMetaMem,3.2.3,Win32,60
,,,,,,,,,,,,,,,,,,,,5,1.535000086,6,0.844000101,1,0,1200,1145,1,1199,officer,11120 ,2019-10-21_18h48.27.269,SurveyExpMetaMem,3.2.3,Win32,60
,,,,,,,,,,,,,,,,,,,,3,23.57200003,5,0.710000038,1,0,1200,547,1,1199,cellar,11120 ,2019-10-21_18h48.27.269,SurveyExpMetaMem,3.2.3,Win32,60
,,,,,,,,,,,,,,,,,,,,7,3.24000001,7,0.518999815,1,0,1200,265,1,1199,invent,11120 ,2019-10-21_18h48.27.269,SurveyExpMetaMem,3.2.3,Win32,60
,,,,,,,,,,,,,,,,,,,,3,1.802999973,7,0.452000141,1,0,1200,793,1,1199,virtue,11120 ,2019-10-21_18h48.27.269,SurveyExpMetaMem,3.2.3,Win32,60
,,,,,,,,,,,,,,,,,,,,9,1.629999876,4,0.75999999,1,0,1200,1015,1,1199,frighten,11120 ,2019-10-21_18h48.27.269,SurveyExpMetaMem,3.2.3,Win32,60
,,,,,,,,,,,,,,,,,,,,6,1.267999887,7,0.703999996,1,0,1200,166,1,1199,unite,11120 ,2019-10-21_18h48.27.269,SurveyExpMetaMem,3.2.3,Win32,60
,,,,,,,,,,,,,,,,,,,,8,1.891000032,8,0.402999878,1,0,1200,172,1,1199,potential,11120 ,2019-10-21_18h48.27.269,SurveyExpMetaMem,3.2.3,Win32,60
,,,,,,,,,,,,,,,,,,,,3,1.503000021,3,0.611000061,1,0,1200,474,1,1199,weary,11120 ,2019-10-21_18h48.27.269,SurveyExpMetaMem,3.2.3,Win32,60
,,,,,,,,,,,,,,,,,,,,7,1.333000183,5,0.889999866,1,0,1200,845,1,1199,honey,11120 ,2019-10-21_18h48.27.269,SurveyExpMetaMem,3.2.3,Win32,60
,,,,,,,,,,,,,,,,,,,,7,2.190999985,7,0.883000135,1,0,1200,76,1,1199,midnight,11120 ,2019-10-21_18h48.27.269,SurveyExpMetaMem,3.2.3,Win32,60
,,,,,,,,,,,,,,,,,,,,9,1.617000103,1,0.65199995,1,0,1200,983,1,1199,demonic,11120 ,2019-10-21_18h48.27.269,SurveyExpMetaMem,3.2.3,Win32,60
,,,,,,,,,,,,,,,,,,,,8,1.973999977,2,0.66899991,1,0,1200,916,1,1199,starvation,11120 ,2019-10-21_18h48.27.269,SurveyExpMetaMem,3.2.3,Win32,60
,,,,,,,,,,,,,,,,,,,,5,2.654999971,8,0.889000177,1,0,1200,887,1,1199,elegant,11120 ,2019-10-21_18h48.27.269,SurveyExpMetaMem,3.2.3,Win32,60
,,,,,,,,,,,,,,,,,,,,5,1.540999889,7,0.680999994,1,0,1200,702,1,1199,den,11120 ,2019-10-21_18h48.27.269,SurveyExpMetaMem,3.2.3,Win32,60
,,,,,,,,,,,,,,,,,,,,8,1.386000156,5,1.772000074,1,0,1200,137,1,1199,money,11120 ,2019-10-21_18h48.27.269,SurveyExpMetaMem,3.2.3,Win32,60
,,,,,,,,,,,,,,,,,,,,9,2.128000021,7,1.259000063,1,0,1200,230,1,1199,eager,11120 ,2019-10-21_18h48.27.269,SurveyExpMetaMem,3.2.3,Win32,60
,,,,,,,,,,,,,,,,,,,,9,1.5,3,0.879999876,1,0,1200,959,1,1199,divorce,11120 ,2019-10-21_18h48.27.269,SurveyExpMetaMem,3.2.3,Win32,60
,,,,,,,,,,,,,,,,,,,,5,2.72300005,4,3.60800004,1,0,1200,357,1,1199,whine,11120 ,2019-10-21_18h48.27.269,SurveyExpMetaMem,3.2.3,Win32,60
,,,,,,,,,,,,,,,,,,,,7,3.334000111,6,0.759000063,1,0,1200,262,1,1199,athletics,11120 ,2019-10-21_18h48.27.269,SurveyExpMetaMem,3.2.3,Win32,60
,,,,,,,,,,,,,,,,,,,,6,2.576999903,8,0.691999912,1,0,1200,98,1,1199,affection,11120 ,2019-10-21_18h48.27.269,SurveyExpMetaMem,3.2.3,Win32,60
,,,,,,,,,,,,,,,,,,,,8,1.746000051,3,0.811000109,1,0,1200,988,1,1199,deserter,11120 ,2019-10-21_18h48.27.269,SurveyExpMetaMem,3.2.3,Win32,60
,,,,,,,,,,,,,,,,,,,,6,3.217999935,5,0.599999905,1,0,1200,1133,1,1199,slip,11120 ,2019-10-21_18h48.27.269,SurveyExpMetaMem,3.2.3,Win32,60
,,,,,,,,,,,,,,,,,,,,3,2.430000067,6,0.771000147,1,0,1200,138,1,1199,blessings,11120 ,2019-10-21_18h48.27.269,SurveyExpMetaMem,3.2.3,Win32,60
,,,,,,,,,,,,,,,,,,,,8,1.773999929,5,0.913999796,1,0,1200,1150,1,1199,forceful,11120 ,2019-10-21_18h48.27.269,SurveyExpMetaMem,3.2.3,Win32,60
,,,,,,,,,,,,,,,,,,,,9,1.736999989,1,0.710000038,1,0,1200,1120,1,1199,gun,11120 ,2019-10-21_18h48.27.269,SurveyExpMetaMem,3.2.3,Win32,60
,,,,,,,,,,,,,,,,,,,,5,6.799999952,5,0.88499999,1,0,1200,1147,1,1199,demand,11120 ,2019-10-21_18h48.27.269,SurveyExpMetaMem,3.2.3,Win32,60
,,,,,,,,,,,,,,,,,,,,7,2.419999838,2,0.517999887,1,0,1200,920,1,1199,hurt,11120 ,2019-10-21_18h48.27.269,SurveyExpMetaMem,3.2.3,Win32,60
,,,,,,,,,,,,,,,,,,,,2,2.601999998,7,0.621999979,1,0,1200,859,1,1199,serene,11120 ,2019-10-21_18h48.27.269,SurveyExpMetaMem,3.2.3,Win32,60
,,,,,,,,,,,,,,,,,,,,7,4.996000051,7,0.585000038,1,0,1200,94,1,1199,engaged,11120 ,2019-10-21_18h48.27.269,SurveyExpMetaMem,3.2.3,Win32,60
,,,,,,,,,,,,,,,,,,,,9,1.524999857,3,0.660000086,1,0,1200,508,1,1199,haphazard,11120 ,2019-10-21_18h48.27.269,SurveyExpMetaMem,3.2.3,Win32,60
,,,,,,,,,,,,,,,,,,,,8,1.470000029,3,1.016000032,1,0,1200,329,1,1199,worse,11120 ,2019-10-21_18h48.27.269,SurveyExpMetaMem,3.2.3,Win32,60
,,,,,,,,,,,,,,,,,,,,4,2.454999924,7,0.647000074,1,0,1200,811,1,1199,tenderness,11120 ,2019-10-21_18h48.27.269,SurveyExpMetaMem,3.2.3,Win32,60
,,,,,,,,,,,,,,,,,,,,6,4.056999922,5,0.267999887,1,0,1200,171,1,1199,imagination,11120 ,2019-10-21_18h48.27.269,SurveyExpMetaMem,3.2.3,Win32,60
,,,,,,,,,,,,,,,,,,,,9,2.401000023,2,1.110000134,1,0,1200,497,1,1199,pungent,11120 ,2019-10-21_18h48.27.269,SurveyExpMetaMem,3.2.3,Win32,60
,,,,,,,,,,,,,,,,,,,,5,1.417000055,5,1.230999947,1,0,1200,691,1,1199,circle,11120 ,2019-10-21_18h48.27.269,SurveyExpMetaMem,3.2.3,Win32,60
,,,,,,,,,,,,,,,,,,,,7,1.967000008,4,0.982000113,1,0,1200,364,1,1199,stink,11120 ,2019-10-21_18h48.27.269,SurveyExpMetaMem,3.2.3,Win32,60
,,,,,,,,,,,,,,,,,,,,5,2.710000038,8,0.83100009,1,0,1200,833,1,1199,nice,11120 ,2019-10-21_18h48.27.269,SurveyExpMetaMem,3.2.3,Win32,60
,,,,,,,,,,,,,,,,,,,,5,1.579999924,6,0.56799984,1,0,1200,818,1,1199,priest,11120 ,2019-10-21_18h48.27.269,SurveyExpMetaMem,3.2.3,Win32,60
,,,,,,,,,,,,,,,,,,,,2,2.58100009,2,1.208000183,1,0,1200,421,1,1199,stale,11120 ,2019-10-21_18h48.27.269,SurveyExpMetaMem,3.2.3,Win32,60
,,,,,,,,,,,,,,,,,,,,5,3.406999826,5,0.306999922,1,0,1200,479,1,1199,period,11120 ,2019-10-21_18h48.27.269,SurveyExpMetaMem,3.2.3,Win32,60
,,,,,,,,,,,,,,,,,,,,9,9.740999937,6,1.019999981,1,0,1200,1055,1,1199,alarm,11120 ,2019-10-21_18h48.27.269,SurveyExpMetaMem,3.2.3,Win32,60
,,,,,,,,,,,,,,,,,,,,5,1.569000006,5,0.279999971,1,0,1200,553,1,1199,corner,11120 ,2019-10-21_18h48.27.269,SurveyExpMetaMem,3.2.3,Win32,60
,,,,,,,,,,,,,,,,,,,,7,1.622999907,8,0.549999952,1,0,1200,32,1,1199,festival,11120 ,2019-10-21_18h48.27.269,SurveyExpMetaMem,3.2.3,Win32,60
,,,,,,,,,,,,,,,,,,,,9,1.684999943,3,0.404000044,1,0,1200,997,1,1199,injury,11120 ,2019-10-21_18h48.27.269,SurveyExpMetaMem,3.2.3,Win32,60
,,,,,,,,,,,,,,,,,,,,3,2.266000032,8,0.520999908,1,0,1200,851,1,1199,cool,11120 ,2019-10-21_18h48.27.269,SurveyExpMetaMem,3.2.3,Win32,60
,,,,,,,,,,,,,,,,,,,,8,1.528000116,5,0.524999857,1,0,1200,1151,1,1199,drama,11120 ,2019-10-21_18h48.27.269,SurveyExpMetaMem,3.2.3,Win32,60
,,,,,,,,,,,,,,,,,,,,2,2.298000097,1,0.570000172,1,0,1200,333,1,1199,weak,11120 ,2019-10-21_18h48.27.269,SurveyExpMetaMem,3.2.3,Win32,60
,,,,,,,,,,,,,,,,,,,,4,2.072999954,4,0.379999876,1,0,1200,1023,1,1199,disorder,11120 ,2019-10-21_18h48.27.269,SurveyExpMetaMem,3.2.3,Win32,60
,,,,,,,,,,,,,,,,,,,,5,1.717999935,3,0.471000195,1,0,1200,611,1,1199,herring,11120 ,2019-10-21_18h48.27.269,SurveyExpMetaMem,3.2.3,Win32,60
,,,,,,,,,,,,,,,,,,,,5,1.549999952,8,0.483999968,1,0,1200,796,1,1199,rose,11120 ,2019-10-21_18h48.27.269,SurveyExpMetaMem,3.2.3,Win32,60
,,,,,,,,,,,,,,,,,,,,9,1.737999916,5,0.868000031,1,0,1200,207,1,1199,erect,11120 ,2019-10-21_18h48.27.269,SurveyExpMetaMem,3.2.3,Win32,60
,,,,,,,,,,,,,,,,,,,,5,1.346999884,5,0.898000002,1,0,1200,18,1,1199,mail,11120 ,2019-10-21_18h48.27.269,SurveyExpMetaMem,3.2.3,Win32,60
,,,,,,,,,,,,,,,,,,,,5,14.93200016,5,0.38499999,1,0,1200,699,1,1199,leg,11120 ,2019-10-21_18h48.27.269,SurveyExpMetaMem,3.2.3,Win32,60
,,,,,,,,,,,,,,,,,,,,9,2.728000164,8,0.938000202,1,0,1200,11,1,1199,astonished,11120 ,2019-10-21_18h48.27.269,SurveyExpMetaMem,3.2.3,Win32,60
,,,,,,,,,,,,,,,,,,,,9,1.625,4,1.073999882,1,0,1200,1102,1,1199,nuclear,11120 ,2019-10-21_18h48.27.269,SurveyExpMetaMem,3.2.3,Win32,60
,,,,,,,,,,,,,,,,,,,,9,1.671000004,1,0.707999945,1,0,1200,976,1,1199,tumor,11120 ,2019-10-21_18h48.27.269,SurveyExpMetaMem,3.2.3,Win32,60
,,,,,,,,,,,,,,,,,,,,5,1.318000078,4,0.019000053,1,0,1200,575,1,1199,paragraph,11120 ,2019-10-21_18h48.27.269,SurveyExpMetaMem,3.2.3,Win32,60
,,,,,,,,,,,,,,,,,,,,7,0.507999897,6,0.003999949,1,0,1200,181,1,1199,fascinate,11120 ,2019-10-21_18h48.27.269,SurveyExpMetaMem,3.2.3,Win32,60
,,,,,,,,,,,,,,,,,,,,5,1.923000097,5,1.575999975,1,0,1200,705,1,1199,tolerant,11120 ,2019-10-21_18h48.27.269,SurveyExpMetaMem,3.2.3,Win32,60
,,,,,,,,,,,,,,,,,,,,5,1.930000067,6,1.695999861,1,0,1200,672,1,1199,ketchup,11120 ,2019-10-21_18h48.27.269,SurveyExpMetaMem,3.2.3,Win32,60
,,,,,,,,,,,,,,,,,,,,5,2.019000053,5,0.484000206,1,0,1200,743,1,1199,herbal,11120 ,2019-10-21_18h48.27.269,SurveyExpMetaMem,3.2.3,Win32,60
,,,,,,,,,,,,,,,,,,,,1,1.50999999,2,1.161000013,1,0,1200,503,1,1199,sludge,11120 ,2019-10-21_18h48.27.269,SurveyExpMetaMem,3.2.3,Win32,60
,,,,,,,,,,,,,,,,,,,,7,1.963000059,7,0.779999971,1,0,1200,874,1,1199,butterfly,11120 ,2019-10-21_18h48.27.269,SurveyExpMetaMem,3.2.3,Win32,60
,,,,,,,,,,,,,,,,,,,,5,2.582000017,5,1.04399991,1,0,1200,604,1,1199,lamp,11120 ,2019-10-21_18h48.27.269,SurveyExpMetaMem,3.2.3,Win32,60
,,,,,,,,,,,,,,,,,,,,8,2.153000116,2,1.605000019,1,0,1200,954,1,1199,hostage,11120 ,2019-10-21_18h48.27.269,SurveyExpMetaMem,3.2.3,Win32,60
,,,,,,,,,,,,,,,,,,,,6,2.294999838,2,0.511000156,1,0,1200,356,1,1199,mucous,11120 ,2019-10-21_18h48.27.269,SurveyExpMetaMem,3.2.3,Win32,60
,,,,,,,,,,,,,,,,,,,,5,1.546999931,4,0.697000027,1,0,1200,594,1,1199,moss,11120 ,2019-10-21_18h48.27.269,SurveyExpMetaMem,3.2.3,Win32,60
,,,,,,,,,,,,,,,,,,,,5,1.197000027,4,0.427999973,1,0,1200,544,1,1199,snail,11120 ,2019-10-21_18h48.27.269,SurveyExpMetaMem,3.2.3,Win32,60
,,,,,,,,,,,,,,,,,,,,8,3.219000101,7,1.069000006,1,0,1200,243,1,1199,fame,11120 ,2019-10-21_18h48.27.269,SurveyExpMetaMem,3.2.3,Win32,60
,,,,,,,,,,,,,,,,,,,,1,1.654000044,2,1.070999861,1,0,1200,359,1,1199,bored,11120 ,2019-10-21_18h48.27.269,SurveyExpMetaMem,3.2.3,Win32,60
,,,,,,,,,,,,,,,,,,,,3,0.012000084,8,1.930000067,1,0,1200,410,1,1199,tarnish,11120 ,2019-10-21_18h48.27.269,SurveyExpMetaMem,3.2.3,Win32,60
,,,,,,,,,,,,,,,,,,,,2,0.601000071,5,4.11500001,1,0,1200,462,1,1199,shallow,11120 ,2019-10-21_18h48.27.269,SurveyExpMetaMem,3.2.3,Win32,60
,,,,,,,,,,,,,,,,,,,,9,1.421000004,9,0.197000027,1,0,1200,1,1,1199,fuck,11120 ,2019-10-21_18h48.27.269,SurveyExpMetaMem,3.2.3,Win32,60
,,,,,,,,,,,,,,,,,,,,5,3.584000111,4,2.285000086,1,0,1200,596,1,1199,factory,11120 ,2019-10-21_18h48.27.269,SurveyExpMetaMem,3.2.3,Win32,60
,,,,,,,,,,,,,,,,,,,,6,3.763000011,3,0.877000093,1,0,1200,1109,1,1199,germ,11120 ,2019-10-21_18h48.27.269,SurveyExpMetaMem,3.2.3,Win32,60
,,,,,,,,,,,,,,,,,,,,3,2.81400013,4,0.674999952,1,0,1200,548,1,1199,vague,11120 ,2019-10-21_18h48.27.269,SurveyExpMetaMem,3.2.3,Win32,60
,,,,,,,,,,,,,,,,,,,,5,1.266000032,5,0.273999929,1,0,1200,766,1,1199,flag,11120 ,2019-10-21_18h48.27.269,SurveyExpMetaMem,3.2.3,Win32,60
,,,,,,,,,,,,,,,,,,,,3,2.80700016,2,0.359000206,1,0,1200,350,1,1199,inadequate,11120 ,2019-10-21_18h48.27.269,SurveyExpMetaMem,3.2.3,Win32,60
,,,,,,,,,,,,,,,,,,,,8,1.904999971,3,0.539999962,1,0,1200,956,1,1199,crushed,11120 ,2019-10-21_18h48.27.269,SurveyExpMetaMem,3.2.3,Win32,60
,,,,,,,,,,,,,,,,,,,,6,2.873999834,7,1.904999971,1,0,1200,139,1,1199,generosity,11120 ,2019-10-21_18h48.27.269,SurveyExpMetaMem,3.2.3,Win32,60
,,,,,,,,,,,,,,,,,,,,6,0.013999939,5,3.629999876,1,0,1200,847,1,1199,moon,11120 ,2019-10-21_18h48.27.269,SurveyExpMetaMem,3.2.3,Win32,60
,,,,,,,,,,,,,,,,,,,,8,0.930000067,3,2.325000048,1,0,1200,103,1,1199,conquest,11120 ,2019-10-21_18h48.27.269,SurveyExpMetaMem,3.2.3,Win32,60
,,,,,,,,,,,,,,,,,,,,6,3.85800004,8,2.30099988,1,0,1200,781,1,1199,emerald,11120 ,2019-10-21_18h48.27.269,SurveyExpMetaMem,3.2.3,Win32,60
,,,,,,,,,,,,,,,,,,,,5,4.828999996,5,0.462000132,1,0,1200,579,1,1199,bus,11120 ,2019-10-21_18h48.27.269,SurveyExpMetaMem,3.2.3,Win32,60
,,,,,,,,,,,,,,,,,,,,7,1.611000061,3,0.703999996,1,0,1200,545,1,1199,tar,11120 ,2019-10-21_18h48.27.269,SurveyExpMetaMem,3.2.3,Win32,60
,,,,,,,,,,,,,,,,,,,,5,1.741000175,7,0.346999884,1,0,1200,763,1,1199,vegetables,11120 ,2019-10-21_18h48.27.269,SurveyExpMetaMem,3.2.3,Win32,60
,,,,,,,,,,,,,,,,,,,,9,1.506000042,6,2.801000118,1,0,1200,45,1,1199,sex,11120 ,2019-10-21_18h48.27.269,SurveyExpMetaMem,3.2.3,Win32,60
,,,,,,,,,,,,,,,,,,,,7,3.143999815,8,0.694000006,1,0,1200,130,1,1199,great,11120 ,2019-10-21_18h48.27.269,SurveyExpMetaMem,3.2.3,Win32,60
,,,,,,,,,,,,,,,,,,,,5,1.747999907,6,0.58100009,1,0,1200,830,1,1199,pear,11120 ,2019-10-21_18h48.27.269,SurveyExpMetaMem,3.2.3,Win32,60
,,,,,,,,,,,,,,,,,,,,5,2.805999994,7,0.304000139,1,0,1200,279,1,1199,bargain,11120 ,2019-10-21_18h48.27.269,SurveyExpMetaMem,3.2.3,Win32,60
,,,,,,,,,,,,,,,,,,,,7,3.523000002,5,0.635000229,1,0,1200,996,1,1199,sting,11120 ,2019-10-21_18h48.27.269,SurveyExpMetaMem,3.2.3,Win32,60
,,,,,,,,,,,,,,,,,,,,6,2.654999971,3,0.517999887,1,0,1200,638,1,1199,quench,11120 ,2019-10-21_18h48.27.269,SurveyExpMetaMem,3.2.3,Win32,60
,,,,,,,,,,,,,,,,,,,,5,2.677000046,7,0.521999836,1,0,1200,110,1,1199,animal,11120 ,2019-10-21_18h48.27.269,SurveyExpMetaMem,3.2.3,Win32,60
,,,,,,,,,,,,,,,,,,,,3,3.982999802,1,1.987999916,1,0,1200,344,1,1199,pessimistic,11120 ,2019-10-21_18h48.27.269,SurveyExpMetaMem,3.2.3,Win32,60
,,,,,,,,,,,,,,,,,,,,8,1.836999893,1,0.536999941,1,0,1200,1054,1,1199,jealous,11120 ,2019-10-21_18h48.27.269,SurveyExpMetaMem,3.2.3,Win32,60
,,,,,,,,,,,,,,,,,,,,7,2.348999977,2,0.440999985,1,0,1200,963,1,1199,dreadful,11120 ,2019-10-21_18h48.27.269,SurveyExpMetaMem,3.2.3,Win32,60
,,,,,,,,,,,,,,,,,,,,8,1.809000015,4,0.926999807,1,0,1200,309,1,1199,homeless,11120 ,2019-10-21_18h48.27.269,SurveyExpMetaMem,3.2.3,Win32,60
,,,,,,,,,,,,,,,,,,,,6,2.493000031,3,0.629999876,1,0,1200,868,1,1199,grace,11120 ,2019-10-21_18h48.27.269,SurveyExpMetaMem,3.2.3,Win32,60
,,,,,,,,,,,,,,,,,,,,3,0.493000031,3,0.02699995,1,0,1200,1169,1,1199,enforcement,11120 ,2019-10-21_18h48.27.269,SurveyExpMetaMem,3.2.3,Win32,60
,,,,,,,,,,,,,,,,,,,,3,0.02699995,3,0.02699995,1,0,1200,117,1,1199,powerful,11120 ,2019-10-21_18h48.27.269,SurveyExpMetaMem,3.2.3,Win32,60
,,,,,,,,,,,,,,,,,,,,3,0.024999857,3,0.026000023,1,0,1200,330,1,1199,sunburn,11120 ,2019-10-21_18h48.27.269,SurveyExpMetaMem,3.2.3,Win32,60
,,,,,,,,,,,,,,,,,,,,3,0.026000023,3,0.027000189,1,0,1200,315,1,1199,zit,11120 ,2019-10-21_18h48.27.269,SurveyExpMetaMem,3.2.3,Win32,60
,,,,,,,,,,,,,,,,,,,,3,0.024999857,3,0.026000023,1,0,1200,607,1,1199,greyhound,11120 ,2019-10-21_18h48.27.269,SurveyExpMetaMem,3.2.3,Win32,60
,,,,,,,,,,,,,,,,,,,,3,0.023000002,3,0.023999929,1,0,1200,494,1,1199,butcher,11120 ,2019-10-21_18h48.27.269,SurveyExpMetaMem,3.2.3,Win32,60
,,,,,,,,,,,,,,,,,,,,3,0.023000002,3,0.023000002,1,0,1200,625,1,1199,hat,11120 ,2019-10-21_18h48.27.269,SurveyExpMetaMem,3.2.3,Win32,60
,,,,,,,,,,,,,,,,,,,,3,0.023000002,5,18.99599981,1,0,1200,615,1,1199,lad,11120 ,2019-10-21_18h48.27.269,SurveyExpMetaMem,3.2.3,Win32,60
,,,,,,,,,,,,,,,,,,,,3,1.717000008,7,0.630000114,1,0,1200,13,1,1199,mingle,11120 ,2019-10-21_18h48.27.269,SurveyExpMetaMem,3.2.3,Win32,60
,,,,,,,,,,,,,,,,,,,,5,23.80299997,8,1.070999861,1,0,1200,869,1,1199,assure,11120 ,2019-10-21_18h48.27.269,SurveyExpMetaMem,3.2.3,Win32,60
,,,,,,,,,,,,,,,,,,,,3,4.011000156,8,0.694000006,1,0,1200,202,1,1199,mercy,11120 ,2019-10-21_18h48.27.269,SurveyExpMetaMem,3.2.3,Win32,60
,,,,,,,,,,,,,,,,,,,,8,1.875999928,3,0.5849998,1,0,1200,953,1,1199,victim,11120 ,2019-10-21_18h48.27.269,SurveyExpMetaMem,3.2.3,Win32,60
,,,,,,,,,,,,,,,,,,,,9,1.536000013,6,1.059000015,1,0,1200,112,1,1199,jaguar,11120 ,2019-10-21_18h48.27.269,SurveyExpMetaMem,3.2.3,Win32,60
,,,,,,,,,,,,,,,,,,,,2,1.26699996,8,0.873000145,1,0,1200,189,1,1199,thoughtful,11120 ,2019-10-21_18h48.27.269,SurveyExpMetaMem,3.2.3,Win32,60
,,,,,,,,,,,,,,,,,,,,8,1.861000061,3,0.43599987,1,0,1200,1118,1,1199,frantic,11120 ,2019-10-21_18h48.27.269,SurveyExpMetaMem,3.2.3,Win32,60
,,,,,,,,,,,,,,,,,,,,4,1.621999979,3,0.411000013,1,0,1200,321,1,1199,wart,11120 ,2019-10-21_18h48.27.269,SurveyExpMetaMem,3.2.3,Win32,60
,,,,,,,,,,,,,,,,,,,,5,2.037999868,5,0.333000183,1,0,1200,1138,1,1199,wail,11120 ,2019-10-21_18h48.27.269,SurveyExpMetaMem,3.2.3,Win32,60
,,,,,,,,,,,,,,,,,,,,8,1.210000038,2,0.296000004,1,0,1200,128,1,1199,supper,11120 ,2019-10-21_18h48.27.269,SurveyExpMetaMem,3.2.3,Win32,60
,,,,,,,,,,,,,,,,,,,,9,1.433000088,2,0.684000015,1,0,1200,1032,1,1199,exam,11120 ,2019-10-21_18h48.27.269,SurveyExpMetaMem,3.2.3,Win32,60
,,,,,,,,,,,,,,,,,,,,5,1.769999981,6,0.405999899,1,0,1200,732,1,1199,humble,11120 ,2019-10-21_18h48.27.269,SurveyExpMetaMem,3.2.3,Win32,60
,,,,,,,,,,,,,,,,,,,,3,2.032000065,3,0.504999876,1,0,1200,373,1,1199,ignorance,11120 ,2019-10-21_18h48.27.269,SurveyExpMetaMem,3.2.3,Win32,60
,,,,,,,,,,,,,,,,,,,,8,2.934999943,3,0.25999999,1,0,1200,946,1,1199,amputate,11120 ,2019-10-21_18h48.27.269,SurveyExpMetaMem,3.2.3,Win32,60
,,,,,,,,,,,,,,,,,,,,8,1.138000011,4,0.338999987,1,0,1200,918,1,1199,gunpoint,11120 ,2019-10-21_18h48.27.269,SurveyExpMetaMem,3.2.3,Win32,60
,,,,,,,,,,,,,,,,,,,,5,1.51699996,7,0.332000017,1,0,1200,1117,1,1199,court,11120 ,2019-10-21_18h48.27.269,SurveyExpMetaMem,3.2.3,Win32,60
,,,,,,,,,,,,,,,,,,,,5,1.304999828,5,0.17599988,1,0,1200,461,1,1199,ail,11120 ,2019-10-21_18h48.27.269,SurveyExpMetaMem,3.2.3,Win32,60
,,,,,,,,,,,,,,,,,,,,7,2.04399991,3,0.394000053,1,0,1200,255,1,1199,ass,11120 ,2019-10-21_18h48.27.269,SurveyExpMetaMem,3.2.3,Win32,60
,,,,,,,,,,,,,,,,,,,,5,2.365999937,7,0.350999832,1,0,1200,608,1,1199,carrot,11120 ,2019-10-21_18h48.27.269,SurveyExpMetaMem,3.2.3,Win32,60
,,,,,,,,,,,,,,,,,,,,7,1.686000109,2,1.654999971,1,0,1200,948,1,1199,pain,11120 ,2019-10-21_18h48.27.269,SurveyExpMetaMem,3.2.3,Win32,60
,,,,,,,,,,,,,,,,,,,,5,2.77699995,7,0.402000189,1,0,1200,888,1,1199,refreshment,11120 ,2019-10-21_18h48.27.269,SurveyExpMetaMem,3.2.3,Win32,60
,,,,,,,,,,,,,,,,,,,,8,1.878000021,8,0.36500001,1,0,1200,206,1,1199,comet,11120 ,2019-10-21_18h48.27.269,SurveyExpMetaMem,3.2.3,Win32,60
,,,,,,,,,,,,,,,,,,,,7,2.50999999,3,0.369999886,1,0,1200,573,1,1199,cease,11120 ,2019-10-21_18h48.27.269,SurveyExpMetaMem,3.2.3,Win32,60
,,,,,,,,,,,,,,,,,,,,6,2.657999992,6,0.242000103,1,0,1200,752,1,1199,milk,11120 ,2019-10-21_18h48.27.269,SurveyExpMetaMem,3.2.3,Win32,60
,,,,,,,,,,,,,,,,,,,,3,1.694999933,2,1.387000084,1,0,1200,445,1,1199,bleak,11120 ,2019-10-21_18h48.27.269,SurveyExpMetaMem,3.2.3,Win32,60
,,,,,,,,,,,,,,,,,,,,9,1.805000067,3,0.644000053,1,0,1200,1042,1,1199,brutal,11120 ,2019-10-21_18h48.27.269,SurveyExpMetaMem,3.2.3,Win32,60
,,,,,,,,,,,,,,,,,,,,8,0.990999937,2,0.402999878,1,0,1200,1067,1,1199,wicked,11120 ,2019-10-21_18h48.27.269,SurveyExpMetaMem,3.2.3,Win32,60
,,,,,,,,,,,,,,,,,,,,6,1.289999962,6,0.455999851,1,0,1200,765,1,1199,candid,11120 ,2019-10-21_18h48.27.269,SurveyExpMetaMem,3.2.3,Win32,60
,,,,,,,,,,,,,,,,,,,,7,1.796000004,7,1.375999928,1,0,1200,852,1,1199,caring,11120 ,2019-10-21_18h48.27.269,SurveyExpMetaMem,3.2.3,Win32,60
,,,,,,,,,,,,,,,,,,,,5,2.226000071,5,0.427000046,1,0,1200,682,1,1199,camel,11120 ,2019-10-21_18h48.27.269,SurveyExpMetaMem,3.2.3,Win32,60
,,,,,,,,,,,,,,,,,,,,6,1.757999897,8,0.499000072,1,0,1200,236,1,1199,amaze,11120 ,2019-10-21_18h48.27.269,SurveyExpMetaMem,3.2.3,Win32,60
,,,,,,,,,,,,,,,,,,,,8,3.052999973,4,1.773999929,1,0,1200,5,1,1199,drunk,11120 ,2019-10-21_18h48.27.269,SurveyExpMetaMem,3.2.3,Win32,60
,,,,,,,,,,,,,,,,,,,,5,6.562999964,5,0.824999809,1,0,1200,578,1,1199,govern,11120 ,2019-10-21_18h48.27.269,SurveyExpMetaMem,3.2.3,Win32,60
,,,,,,,,,,,,,,,,,,,,8,2.311000109,1,1.046999931,1,0,1200,1005,1,1199,pissed,11120 ,2019-10-21_18h48.27.269,SurveyExpMetaMem,3.2.3,Win32,60
,,,,,,,,,,,,,,,,,,,,2,1.986000061,2,0.397000074,1,0,1200,367,1,1199,pathetic,11120 ,2019-10-21_18h48.27.269,SurveyExpMetaMem,3.2.3,Win32,60
,,,,,,,,,,,,,,,,,,,,5,1.251999855,5,0.450000048,1,0,1200,629,1,1199,barn,11120 ,2019-10-21_18h48.27.269,SurveyExpMetaMem,3.2.3,Win32,60
,,,,,,,,,,,,,,,,,,,,5,1.63499999,5,0.353000164,1,0,1200,689,1,1199,land,11120 ,2019-10-21_18h48.27.269,SurveyExpMetaMem,3.2.3,Win32,60
,,,,,,,,,,,,,,,,,,,,5,4.523999929,6,0.43599987,1,0,1200,538,1,1199,crumbs,11120 ,2019-10-21_18h48.27.269,SurveyExpMetaMem,3.2.3,Win32,60
,,,,,,,,,,,,,,,,,,,,7,2.730000019,4,0.523999929,1,0,1200,1132,1,1199,anarchy,11120 ,2019-10-21_18h48.27.269,SurveyExpMetaMem,3.2.3,Win32,60
,,,,,,,,,,,,,,,,,,,,8,1.490999937,5,0.997999907,1,0,1200,1189,1,1199,lava,11120 ,2019-10-21_18h48.27.269,SurveyExpMetaMem,3.2.3,Win32,60
,,,,,,,,,,,,,,,,,,,,9,1.825999975,1,1.022000074,1,0,1200,346,1,1199,alcoholism,11120 ,2019-10-21_18h48.27.269,SurveyExpMetaMem,3.2.3,Win32,60
,,,,,,,,,,,,,,,,,,,,2,2.927000046,6,1.257999897,1,0,1200,539,1,1199,novice,11120 ,2019-10-21_18h48.27.269,SurveyExpMetaMem,3.2.3,Win32,60
,,,,,,,,,,,,,,,,,,,,3,1.88499999,3,0.638999939,1,0,1200,363,1,1199,dumb,11120 ,2019-10-21_18h48.27.269,SurveyExpMetaMem,3.2.3,Win32,60
,,,,,,,,,,,,,,,,,,,,5,1.607000113,5,0.421000004,1,0,1200,562,1,1199,average,11120 ,2019-10-21_18h48.27.269,SurveyExpMetaMem,3.2.3,Win32,60
,,,,,,,,,,,,,,,,,,,,8,1.946000099,2,0.661999941,1,0,1200,969,1,1199,whore,11120 ,2019-10-21_18h48.27.269,SurveyExpMetaMem,3.2.3,Win32,60
,,,,,,,,,,,,,,,,,,,,6,1.578000069,3,0.68599987,1,0,1200,564,1,1199,wane,11120 ,2019-10-21_18h48.27.269,SurveyExpMetaMem,3.2.3,Win32,60
,,,,,,,,,,,,,,,,,,,,5,2.625,3,0.880999804,1,0,1200,451,1,1199,lame,11120 ,2019-10-21_18h48.27.269,SurveyExpMetaMem,3.2.3,Win32,60
,,,,,,,,,,,,,,,,,,,,5,1.486999989,3,0.375999928,1,0,1200,436,1,1199,mediocre,11120 ,2019-10-21_18h48.27.269,SurveyExpMetaMem,3.2.3,Win32,60
,,,,,,,,,,,,,,,,,,,,5,2.654000044,5,0.289000034,1,0,1200,585,1,1199,tatter,11120 ,2019-10-21_18h48.27.269,SurveyExpMetaMem,3.2.3,Win32,60
,,,,,,,,,,,,,,,,,,,,3,29.83400011,3,0.244999886,1,0,1200,402,1,1199,dismissive,11120 ,2019-10-21_18h48.27.269,SurveyExpMetaMem,3.2.3,Win32,60
,,,,,,,,,,,,,,,,,,,,5,1.460999966,3,0.203999996,1,0,1200,460,1,1199,rag,11120 ,2019-10-21_18h48.27.269,SurveyExpMetaMem,3.2.3,Win32,60
,,,,,,,,,,,,,,,,,,,,3,1.34800005,3,0.195000172,1,0,1200,528,1,1199,dirt,11120 ,2019-10-21_18h48.27.269,SurveyExpMetaMem,3.2.3,Win32,60
,,,,,,,,,,,,,,,,,,,,5,3.944999933,7,0.362999916,1,0,1200,273,1,1199,worthwhile,11120 ,2019-10-21_18h48.27.269,SurveyExpMetaMem,3.2.3,Win32,60
,,,,,,,,,,,,,,,,,,,,8,1.05700016,4,0.315999985,1,0,1200,296,1,1199,awesome,11120 ,2019-10-21_18h48.27.269,SurveyExpMetaMem,3.2.3,Win32,60
,,,,,,,,,,,,,,,,,,,,7,1.89199996,7,0.272000074,1,0,1200,77,1,1199,adore,11120 ,2019-10-21_18h48.27.269,SurveyExpMetaMem,3.2.3,Win32,60
,,,,,,,,,,,,,,,,,,,,3,1.488999844,7,0.261999846,1,0,1200,715,1,1199,sheltered,11120 ,2019-10-21_18h48.27.269,SurveyExpMetaMem,3.2.3,Win32,60
,,,,,,,,,,,,,,,,,,,,7,3.071000099,3,0.3349998,1,0,1200,542,1,1199,loose,11120 ,2019-10-21_18h48.27.269,SurveyExpMetaMem,3.2.3,Win32,60
,,,,,,,,,,,,,,,,,,,,4,1.301000118,4,0.287999868,1,0,1200,696,1,1199,rink,11120 ,2019-10-21_18h48.27.269,SurveyExpMetaMem,3.2.3,Win32,60
,,,,,,,,,,,,,,,,,,,,6,2.062999964,4,0.312000036,1,0,1200,403,1,1199,wither,11120 ,2019-10-21_18h48.27.269,SurveyExpMetaMem,3.2.3,Win32,60
,,,,,,,,,,,,,,,,,,,,8,1.909000158,8,0.402999878,1,0,1200,88,1,1199,ambitious,11120 ,2019-10-21_18h48.27.269,SurveyExpMetaMem,3.2.3,Win32,60
,,,,,,,,,,,,,,,,,,,,5,1.792999983,6,0.520999908,1,0,1200,720,1,1199,stable,11120 ,2019-10-21_18h48.27.269,SurveyExpMetaMem,3.2.3,Win32,60
,,,,,,,,,,,,,,,,,,,,9,1.868999958,4,1.125,1,0,1200,1026,1,1199,crisis,11120 ,2019-10-21_18h48.27.269,SurveyExpMetaMem,3.2.3,Win32,60
,,,,,,,,,,,,,,,,,,,,6,2.371999979,6,1.39199996,1,0,1200,263,1,1199,answer,11120 ,2019-10-21_18h48.27.269,SurveyExpMetaMem,3.2.3,Win32,60
,,,,,,,,,,,,,,,,,,,,7,1.60800004,2,1.05099988,1,0,1200,320,1,1199,deformed,11120 ,2019-10-21_18h48.27.269,SurveyExpMetaMem,3.2.3,Win32,60
,,,,,,,,,,,,,,,,,,,,1,2.302999973,1,0.974999905,1,0,1200,301,1,1199,sad,11120 ,2019-10-21_18h48.27.269,SurveyExpMetaMem,3.2.3,Win32,60
,,,,,,,,,,,,,,,,,,,,6,1.519999981,7,0.013000011,1,0,1200,71,1,1199,spirit,11120 ,2019-10-21_18h48.27.269,SurveyExpMetaMem,3.2.3,Win32,60
,,,,,,,,,,,,,,,,,,,,6,4.066999912,6,3.11500001,1,0,1200,391,1,1199,detach,11120 ,2019-10-21_18h48.27.269,SurveyExpMetaMem,3.2.3,Win32,60
,,,,,,,,,,,,,,,,,,,,5,4.59800005,5,0.20600009,1,0,1200,721,1,1199,contemporary,11120 ,2019-10-21_18h48.27.269,SurveyExpMetaMem,3.2.3,Win32,60
,,,,,,,,,,,,,,,,,,,,6,1.517999887,2,0.48300004,1,0,1200,584,1,1199,anus,11120 ,2019-10-21_18h48.27.269,SurveyExpMetaMem,3.2.3,Win32,60
,,,,,,,,,,,,,,,,,,,,3,0.012000084,8,1.231999874,1,0,1200,923,1,1199,punish,11120 ,2019-10-21_18h48.27.269,SurveyExpMetaMem,3.2.3,Win32,60
,,,,,,,,,,,,,,,,,,,,7,0.010999918,3,0.311000109,1,0,1200,609,1,1199,candlestick,11120 ,2019-10-21_18h48.27.269,SurveyExpMetaMem,3.2.3,Win32,60
,,,,,,,,,,,,,,,,,,,,5,5.013000011,5,0.312000036,1,0,1200,283,1,1199,elated,11120 ,2019-10-21_18h48.27.269,SurveyExpMetaMem,3.2.3,Win32,60
,,,,,,,,,,,,,,,,,,,,6,4.147000074,6,1.187000036,1,0,1200,736,1,1199,hawk,11120 ,2019-10-21_18h48.27.269,SurveyExpMetaMem,3.2.3,Win32,60
,,,,,,,,,,,,,,,,,,,,3,1.708999872,1,0.329999924,1,0,1200,351,1,1199,germs,11120 ,2019-10-21_18h48.27.269,SurveyExpMetaMem,3.2.3,Win32,60
,,,,,,,,,,,,,,,,,,,,5,4.131000042,3,0.57799983,1,0,1200,892,1,1199,untroubled,11120 ,2019-10-21_18h48.27.269,SurveyExpMetaMem,3.2.3,Win32,60
,,,,,,,,,,,,,,,,,,,,5,4.554000139,6,0.536000013,1,0,1200,107,1,1199,sandwich,11120 ,2019-10-21_18h48.27.269,SurveyExpMetaMem,3.2.3,Win32,60
,,,,,,,,,,,,,,,,,,,,8,1.85800004,4,8.261000156,1,0,1200,476,1,1199,warden,11120 ,2019-10-21_18h48.27.269,SurveyExpMetaMem,3.2.3,Win32,60
,,,,,,,,,,,,,,,,,,,,9,3.819000006,8,1.217000008,1,0,1200,290,1,1199,enthusiasm,11120 ,2019-10-21_18h48.27.269,SurveyExpMetaMem,3.2.3,Win32,60
,,,,,,,,,,,,,,,,,,,,9,1.279000044,1,0.805000067,1,0,1200,979,1,1199,harassment,11120 ,2019-10-21_18h48.27.269,SurveyExpMetaMem,3.2.3,Win32,60
,,,,,,,,,,,,,,,,,,,,2,2.496000051,7,1.177000046,1,0,1200,889,1,1199,wise,11120 ,2019-10-21_18h48.27.269,SurveyExpMetaMem,3.2.3,Win32,60
,,,,,,,,,,,,,,,,,,,,7,4.671999931,7,0.335000038,1,0,1200,163,1,1199,gem,11120 ,2019-10-21_18h48.27.269,SurveyExpMetaMem,3.2.3,Win32,60
,,,,,,,,,,,,,,,,,,,,7,1.68599987,3,0.549000025,1,0,1200,455,1,1199,chubby,11120 ,2019-10-21_18h48.27.269,SurveyExpMetaMem,3.2.3,Win32,60
,,,,,,,,,,,,,,,,,,,,8,1.921000004,8,0.697000027,1,0,1200,237,1,1199,beautiful,11120 ,2019-10-21_18h48.27.269,SurveyExpMetaMem,3.2.3,Win32,60
,,,,,,,,,,,,,,,,,,,,8,1.473999977,3,0.658000231,1,0,1200,932,1,1199,bankrupt,11120 ,2019-10-21_18h48.27.269,SurveyExpMetaMem,3.2.3,Win32,60
,,,,,,,,,,,,,,,,,,,,9,1.414999962,2,0.494999886,1,0,1200,297,1,1199,pleasure,11120 ,2019-10-21_18h48.27.269,SurveyExpMetaMem,3.2.3,Win32,60
,,,,,,,,,,,,,,,,,,,,9,1.236000061,3,0.750999928,1,0,1200,1137,1,1199,knife,11120 ,2019-10-21_18h48.27.269,SurveyExpMetaMem,3.2.3,Win32,60
,,,,,,,,,,,,,,,,,,,,9,1.460999966,8,0.393999815,1,0,1200,40,1,1199,kissing,11120 ,2019-10-21_18h48.27.269,SurveyExpMetaMem,3.2.3,Win32,60
,,,,,,,,,,,,,,,,,,,,7,0.01699996,5,1.294000149,1,0,1200,514,1,1199,defer,11120 ,2019-10-21_18h48.27.269,SurveyExpMetaMem,3.2.3,Win32,60
,,,,,,,,,,,,,,,,,,,,7,1.991000175,7,1.248000145,1,0,1200,9,1,1199,try,11120 ,2019-10-21_18h48.27.269,SurveyExpMetaMem,3.2.3,Win32,60
,,,,,,,,,,,,,,,,,,,,8,2.079999924,3,0.504999876,1,0,1200,1041,1,1199,sin,11120 ,2019-10-21_18h48.27.269,SurveyExpMetaMem,3.2.3,Win32,60
,,,,,,,,,,,,,,,,,,,,5,1.776000023,7,0.284000158,1,0,1200,121,1,1199,self,11120 ,2019-10-21_18h48.27.269,SurveyExpMetaMem,3.2.3,Win32,60
,,,,,,,,,,,,,,,,,,,,5,1.460999966,6,1.953000069,1,0,1200,527,1,1199,passive,11120 ,2019-10-21_18h48.27.269,SurveyExpMetaMem,3.2.3,Win32,60
,,,,,,,,,,,,,,,,,,,,5,1.398999929,5,0.22300005,1,0,1200,762,1,1199,orchestra,11120 ,2019-10-21_18h48.27.269,SurveyExpMetaMem,3.2.3,Win32,60
,,,,,,,,,,,,,,,,,,,,9,2.00999999,9,0.316999912,1,0,1200,242,1,1199,triumph,11120 ,2019-10-21_18h48.27.269,SurveyExpMetaMem,3.2.3,Win32,60
,,,,,,,,,,,,,,,,,,,,9,1.502999783,1,0.589999914,1,0,1200,384,1,1199,idiot,11120 ,2019-10-21_18h48.27.269,SurveyExpMetaMem,3.2.3,Win32,60
,,,,,,,,,,,,,,,,,,,,9,1.232999802,1,0.419999838,1,0,1200,530,1,1199,erase,11120 ,2019-10-21_18h48.27.269,SurveyExpMetaMem,3.2.3,Win32,60
,,,,,,,,,,,,,,,,,,,,5,2.787000179,8,0.230999947,1,0,1200,810,1,1199,polite,11120 ,2019-10-21_18h48.27.269,SurveyExpMetaMem,3.2.3,Win32,60
,,,,,,,,,,,,,,,,,,,,9,1.38499999,1,0.376000166,1,0,1200,900,1,1199,suicide,11120 ,2019-10-21_18h48.27.269,SurveyExpMetaMem,3.2.3,Win32,60
,,,,,,,,,,,,,,,,,,,,7,1.88499999,1,0.535000086,1,0,1200,1088,1,1199,forbid,11120 ,2019-10-21_18h48.27.269,SurveyExpMetaMem,3.2.3,Win32,60
,,,,,,,,,,,,,,,,,,,,5,5.268000126,7,0.310000181,1,0,1200,730,1,1199,slogan,11120 ,2019-10-21_18h48.27.269,SurveyExpMetaMem,3.2.3,Win32,60
,,,,,,,,,,,,,,,,,,,,5,1.244999886,7,0.21600008,1,0,1200,737,1,1199,lamb,11120 ,2019-10-21_18h48.27.269,SurveyExpMetaMem,3.2.3,Win32,60
,,,,,,,,,,,,,,,,,,,,6,2.243999958,3,0.746999979,1,0,1200,440,1,1199,forgot,11120 ,2019-10-21_18h48.27.269,SurveyExpMetaMem,3.2.3,Win32,60
,,,,,,,,,,,,,,,,,,,,5,2.943000078,5,0.394000053,1,0,1200,816,1,1199,hippotamus,11120 ,2019-10-21_18h48.27.269,SurveyExpMetaMem,3.2.3,Win32,60
,,,,,,,,,,,,,,,,,,,,1,2.536999941,9,0.877000093,1,0,1200,895,1,1199,peace,11120 ,2019-10-21_18h48.27.269,SurveyExpMetaMem,3.2.3,Win32,60
,,,,,,,,,,,,,,,,,,,,5,3.700000048,9,0.375,1,0,1200,87,1,1199,cookie,11120 ,2019-10-21_18h48.27.269,SurveyExpMetaMem,3.2.3,Win32,60
,,,,,,,,,,,,,,,,,,,,5,1.936000109,5,0.184000015,1,0,1200,549,1,1199,beet,11120 ,2019-10-21_18h48.27.269,SurveyExpMetaMem,3.2.3,Win32,60
,,,,,,,,,,,,,,,,,,,,6,4.605999947,8,0.348999977,1,0,1200,48,1,1199,excellence,11120 ,2019-10-21_18h48.27.269,SurveyExpMetaMem,3.2.3,Win32,60
,,,,,,,,,,,,,,,,,,,,9,1.569999933,2,0.494000196,1,0,1200,966,1,1199,regretful,11120 ,2019-10-21_18h48.27.269,SurveyExpMetaMem,3.2.3,Win32,60
,,,,,,,,,,,,,,,,,,,,7,1.342000008,6,0.016000032,1,0,1200,729,1,1199,velvet,11120 ,2019-10-21_18h48.27.269,SurveyExpMetaMem,3.2.3,Win32,60
,,,,,,,,,,,,,,,,,,,,5,3.57400012,5,0.493000031,1,0,1200,640,1,1199,cabin,11120 ,2019-10-21_18h48.27.269,SurveyExpMetaMem,3.2.3,Win32,60
,,,,,,,,,,,,,,,,,,,,5,0.021999836,5,0.023999929,1,0,1200,652,1,1199,tend,11120 ,2019-10-21_18h48.27.269,SurveyExpMetaMem,3.2.3,Win32,60
,,,,,,,,,,,,,,,,,,,,5,0.021999836,5,0.023000002,1,0,1200,808,1,1199,violinist,11120 ,2019-10-21_18h48.27.269,SurveyExpMetaMem,3.2.3,Win32,60
,,,,,,,,,,,,,,,,,,,,5,0.021000147,5,0.023000002,1,0,1200,168,1,1199,mate,11120 ,2019-10-21_18h48.27.269,SurveyExpMetaMem,3.2.3,Win32,60
,,,,,,,,,,,,,,,,,,,,5,0.022000074,5,5.586999893,1,0,1200,726,1,1199,crackers,11120 ,2019-10-21_18h48.27.269,SurveyExpMetaMem,3.2.3,Win32,60
,,,,,,,,,,,,,,,,,,,,7,1.730000019,7,0.207000017,1,0,1200,131,1,1199,treat,11120 ,2019-10-21_18h48.27.269,SurveyExpMetaMem,3.2.3,Win32,60
,,,,,,,,,,,,,,,,,,,,5,1.316999912,8,0.535000086,1,0,1200,6,1,1199,chest,11120 ,2019-10-21_18h48.27.269,SurveyExpMetaMem,3.2.3,Win32,60
,,,,,,,,,,,,,,,,,,,,1,2.190999985,3,0.347999811,1,0,1200,541,1,1199,apathy,11120 ,2019-10-21_18h48.27.269,SurveyExpMetaMem,3.2.3,Win32,60
,,,,,,,,,,,,,,,,,,,,5,9.291000128,5,0.413000107,1,0,1200,590,1,1199,stool,11120 ,2019-10-21_18h48.27.269,SurveyExpMetaMem,3.2.3,Win32,60
,,,,,,,,,,,,,,,,,,,,8,1.440000057,2,0.72300005,1,0,1200,1033,1,1199,horror,11120 ,2019-10-21_18h48.27.269,SurveyExpMetaMem,3.2.3,Win32,60
,,,,,,,,,,,,,,,,,,,,7,1.561000109,3,0.310000181,1,0,1200,949,1,1199,thief,11120 ,2019-10-21_18h48.27.269,SurveyExpMetaMem,3.2.3,Win32,60
,,,,,,,,,,,,,,,,,,,,9,25.74000001,1,0.838999987,1,0,1200,972,1,1199,homicide,11120 ,2019-10-21_18h48.27.269,SurveyExpMetaMem,3.2.3,Win32,60
,,,,,,,,,,,,,,,,,,,,7,1.200000048,3,0.772000074,1,0,1200,1192,1,1199,startled,11120 ,2019-10-21_18h48.27.269,SurveyExpMetaMem,3.2.3,Win32,60
,,,,,,,,,,,,,,,,,,,,8,1.370000124,3,0.621000051,1,0,1200,906,1,1199,syphilis,11120 ,2019-10-21_18h48.27.269,SurveyExpMetaMem,3.2.3,Win32,60
,,,,,,,,,,,,,,,,,,,,4,0.002999783,5,2.500999928,1,0,1200,926,1,1199,dead,11120 ,2019-10-21_18h48.27.269,SurveyExpMetaMem,3.2.3,Win32,60
,,,,,,,,,,,,,,,,,,,,8,0.49000001,8,2.128000021,1,0,1200,183,1,1199,congratulate,11120 ,2019-10-21_18h48.27.269,SurveyExpMetaMem,3.2.3,Win32,60
,,,,,,,,,,,,,,,,,,,,5,1.596999884,7,0.377000093,1,0,1200,415,1,1199,grime,11120 ,2019-10-21_18h48.27.269,SurveyExpMetaMem,3.2.3,Win32,60
,,,,,,,,,,,,,,,,,,,,6,39.84799981,3,1.432999849,1,0,1200,323,1,1199,ungrateful,11120 ,2019-10-21_18h48.27.269,SurveyExpMetaMem,3.2.3,Win32,60
,,,,,,,,,,,,,,,,,,,,5,13.04500008,7,0.568000078,1,0,1200,815,1,1199,apple,11120 ,2019-10-21_18h48.27.269,SurveyExpMetaMem,3.2.3,Win32,60
,,,,,,,,,,,,,,,,,,,,9,10.28699994,2,0.367999792,1,0,1200,1021,1,1199,attack,11120 ,2019-10-21_18h48.27.269,SurveyExpMetaMem,3.2.3,Win32,60
,,,,,,,,,,,,,,,,,,,,5,5.96999979,4,0.430999994,1,0,1200,420,1,1199,smoke,11120 ,2019-10-21_18h48.27.269,SurveyExpMetaMem,3.2.3,Win32,60
,,,,,,,,,,,,,,,,,,,,5,52.50999999,6,0.373999834,1,0,1200,1180,1,1199,heat,11120 ,2019-10-21_18h48.27.269,SurveyExpMetaMem,3.2.3,Win32,60
,,,,,,,,,,,,,,,,,,,,3,1.967999935,3,0.759000063,1,0,1200,534,1,1199,rules,11120 ,2019-10-21_18h48.27.269,SurveyExpMetaMem,3.2.3,Win32,60
