mouse_4.x,mouse_4.y,mouse_4.leftButton,mouse_4.midButton,mouse_4.rightButton,mouse.x,mouse.y,mouse.leftButton,mouse.midButton,mouse.rightButton,mouse_2.x,mouse_2.y,mouse_2.leftButton,mouse_2.midButton,mouse_2.rightButton,mouse_3.x,mouse_3.y,mouse_3.leftButton,mouse_3.midButton,mouse_3.rightButton,A_key_resp.keys,A_key_resp.rt,key_resp.keys,key_resp.rt,trials.thisRepN,trials.thisTrialN,trials.thisN,trials.thisIndex,trials.ran,trials.order,word,ParticipantID,date,expName,psychopyVersion,OS,frameRate
0.123148163,-0.158333343,1,0,0,0.074074088,-0.023148156,1,0,0,0.097222237,-0.042592601,1,0,0,0.124074089,0.028703697,1,0,0,1,21.64099979,5,12.52199984,1,0,1200,548,1,1199,vague,11122,2019-10-21_16h48.19.752,SurveyExpMetaMem,3.2.3,Win32,60
,,,,,,,,,,,,,,,,,,,,4,8.089999914,3,6.832000017,1,0,1200,1045,1,1199,scalding,11122,2019-10-21_16h48.19.752,SurveyExpMetaMem,3.2.3,Win32,60
,,,,,,,,,,,,,,,,,,,,1,3.383999825,8,12.04499984,1,0,1200,867,1,1199,relaxed,11122,2019-10-21_16h48.19.752,SurveyExpMetaMem,3.2.3,Win32,60
,,,,,,,,,,,,,,,,,,,,8,2.864000082,9,3.626999855,1,0,1200,36,1,1199,puppy,11122,2019-10-21_16h48.19.752,SurveyExpMetaMem,3.2.3,Win32,60
,,,,,,,,,,,,,,,,,,,,2,5.41899991,8,2.137000084,1,0,1200,894,1,1199,sunset,11122,2019-10-21_16h48.19.752,SurveyExpMetaMem,3.2.3,Win32,60
,,,,,,,,,,,,,,,,,,,,9,6.427999735,9,2.111999989,1,0,1200,194,1,1199,celebration,11122,2019-10-21_16h48.19.752,SurveyExpMetaMem,3.2.3,Win32,60
,,,,,,,,,,,,,,,,,,,,2,3.682999849,2,1.663000107,1,0,1200,518,1,1199,report,11122,2019-10-21_16h48.19.752,SurveyExpMetaMem,3.2.3,Win32,60
,,,,,,,,,,,,,,,,,,,,8,2.401000023,8,3.624999762,1,0,1200,70,1,1199,cartoon,11122,2019-10-21_16h48.19.752,SurveyExpMetaMem,3.2.3,Win32,60
,,,,,,,,,,,,,,,,,,,,3,4.325000048,2,4.805999756,1,0,1200,573,1,1199,cease,11122,2019-10-21_16h48.19.752,SurveyExpMetaMem,3.2.3,Win32,60
,,,,,,,,,,,,,,,,,,,,8,2.552999735,8,1.790999889,1,0,1200,177,1,1199,frosting,11122,2019-10-21_16h48.19.752,SurveyExpMetaMem,3.2.3,Win32,60
,,,,,,,,,,,,,,,,,,,,4,3.684999943,4,2.194000006,1,0,1200,1054,1,1199,jealous,11122,2019-10-21_16h48.19.752,SurveyExpMetaMem,3.2.3,Win32,60
,,,,,,,,,,,,,,,,,,,,7,2.882999897,7,1.402999878,1,0,1200,254,1,1199,crush,11122,2019-10-21_16h48.19.752,SurveyExpMetaMem,3.2.3,Win32,60
,,,,,,,,,,,,,,,,,,,,1,2.463999987,6,2.588000059,1,0,1200,643,1,1199,library,11122,2019-10-21_16h48.19.752,SurveyExpMetaMem,3.2.3,Win32,60
,,,,,,,,,,,,,,,,,,,,4,4.534999847,1,1.157000065,1,0,1200,921,1,1199,humiliation,11122,2019-10-21_16h48.19.752,SurveyExpMetaMem,3.2.3,Win32,60
,,,,,,,,,,,,,,,,,,,,8,1.871999979,9,1.720999718,1,0,1200,297,1,1199,pleasure,11122,2019-10-21_16h48.19.752,SurveyExpMetaMem,3.2.3,Win32,60
,,,,,,,,,,,,,,,,,,,,9,5.815999746,9,1.937999964,1,0,1200,141,1,1199,surprise,11122,2019-10-21_16h48.19.752,SurveyExpMetaMem,3.2.3,Win32,60
,,,,,,,,,,,,,,,,,,,,4,3.631999731,2,2.137000084,1,0,1200,1070,1,1199,bleed,11122,2019-10-21_16h48.19.752,SurveyExpMetaMem,3.2.3,Win32,60
,,,,,,,,,,,,,,,,,,,,6,3.917000055,2,2.226000071,1,0,1200,997,1,1199,injury,11122,2019-10-21_16h48.19.752,SurveyExpMetaMem,3.2.3,Win32,60
,,,,,,,,,,,,,,,,,,,,2,10.73000002,8,1.951999903,1,0,1200,680,1,1199,candle,11122,2019-10-21_16h48.19.752,SurveyExpMetaMem,3.2.3,Win32,60
,,,,,,,,,,,,,,,,,,,,5,5.546000004,5,1.126999855,1,0,1200,564,1,1199,wane,11122,2019-10-21_16h48.19.752,SurveyExpMetaMem,3.2.3,Win32,60
,,,,,,,,,,,,,,,,,,,,5,3.450000048,1,3.592999935,1,0,1200,1096,1,1199,flood,11122,2019-10-21_16h48.19.752,SurveyExpMetaMem,3.2.3,Win32,60
,,,,,,,,,,,,,,,,,,,,4,3.565999746,3,8.754999876,1,0,1200,480,1,1199,hinder,11122,2019-10-21_16h48.19.752,SurveyExpMetaMem,3.2.3,Win32,60
,,,,,,,,,,,,,,,,,,,,7,7.194999933,4,5.003000021,1,0,1200,330,1,1199,sunburn,11122,2019-10-21_16h48.19.752,SurveyExpMetaMem,3.2.3,Win32,60
,,,,,,,,,,,,,,,,,,,,2,2.521999836,8,2.013000011,1,0,1200,780,1,1199,grass,11122,2019-10-21_16h48.19.752,SurveyExpMetaMem,3.2.3,Win32,60
,,,,,,,,,,,,,,,,,,,,9,1.627000093,9,0.841999769,1,0,1200,106,1,1199,voyage,11122,2019-10-21_16h48.19.752,SurveyExpMetaMem,3.2.3,Win32,60
,,,,,,,,,,,,,,,,,,,,7,2.542999744,6,1.553999901,1,0,1200,1195,1,1199,speech,11122,2019-10-21_16h48.19.752,SurveyExpMetaMem,3.2.3,Win32,60
,,,,,,,,,,,,,,,,,,,,3,3.282000065,7,6.752999783,1,0,1200,608,1,1199,carrot,11122,2019-10-21_16h48.19.752,SurveyExpMetaMem,3.2.3,Win32,60
,,,,,,,,,,,,,,,,,,,,2,11.96499991,5,3.401999712,1,0,1200,66,1,1199,zest,11122,2019-10-21_16h48.19.752,SurveyExpMetaMem,3.2.3,Win32,60
,,,,,,,,,,,,,,,,,,,,5,4.631000042,1,2.590999842,1,0,1200,431,1,1199,itch,11122,2019-10-21_16h48.19.752,SurveyExpMetaMem,3.2.3,Win32,60
,,,,,,,,,,,,,,,,,,,,5,3.580999851,7,1.081999779,1,0,1200,591,1,1199,bereavement,11122,2019-10-21_16h48.19.752,SurveyExpMetaMem,3.2.3,Win32,60
,,,,,,,,,,,,,,,,,,,,8,2.399999857,1,0.777999878,1,0,1200,1009,1,1199,frightened,11122,2019-10-21_16h48.19.752,SurveyExpMetaMem,3.2.3,Win32,60
,,,,,,,,,,,,,,,,,,,,9,1.661000013,9,0.920000076,1,0,1200,94,1,1199,engaged,11122,2019-10-21_16h48.19.752,SurveyExpMetaMem,3.2.3,Win32,60
,,,,,,,,,,,,,,,,,,,,2,4.27699995,1,1.746000051,1,0,1200,1163,1,1199,python,11122,2019-10-21_16h48.19.752,SurveyExpMetaMem,3.2.3,Win32,60
,,,,,,,,,,,,,,,,,,,,8,6.220000029,8,1.638000011,1,0,1200,153,1,1199,teach,11122,2019-10-21_16h48.19.752,SurveyExpMetaMem,3.2.3,Win32,60
,,,,,,,,,,,,,,,,,,,,2,1.674000025,2,2.071999788,1,0,1200,949,1,1199,thief,11122,2019-10-21_16h48.19.752,SurveyExpMetaMem,3.2.3,Win32,60
,,,,,,,,,,,,,,,,,,,,4,2.32400012,1,2.854999781,1,0,1200,913,1,1199,ulcer,11122,2019-10-21_16h48.19.752,SurveyExpMetaMem,3.2.3,Win32,60
,,,,,,,,,,,,,,,,,,,,8,1.90199995,8,1.072999954,1,0,1200,601,1,1199,roof,11122,2019-10-21_16h48.19.752,SurveyExpMetaMem,3.2.3,Win32,60
,,,,,,,,,,,,,,,,,,,,9,1.13499999,9,0.921000004,1,0,1200,193,1,1199,party,11122,2019-10-21_16h48.19.752,SurveyExpMetaMem,3.2.3,Win32,60
,,,,,,,,,,,,,,,,,,,,9,1.819000006,7,1.085999966,1,0,1200,58,1,1199,boost,11122,2019-10-21_16h48.19.752,SurveyExpMetaMem,3.2.3,Win32,60
,,,,,,,,,,,,,,,,,,,,4,2.053999901,2,1.223999977,1,0,1200,373,1,1199,ignorance,11122,2019-10-21_16h48.19.752,SurveyExpMetaMem,3.2.3,Win32,60
,,,,,,,,,,,,,,,,,,,,6,3.31099987,1,0.953000069,1,0,1200,901,1,1199,rape,11122,2019-10-21_16h48.19.752,SurveyExpMetaMem,3.2.3,Win32,60
,,,,,,,,,,,,,,,,,,,,8,2.524999857,7,0.937999725,1,0,1200,368,1,1199,dreary,11122,2019-10-21_16h48.19.752,SurveyExpMetaMem,3.2.3,Win32,60
,,,,,,,,,,,,,,,,,,,,7,2.020999908,2,1.125,1,0,1200,1089,1,1199,ridicule,11122,2019-10-21_16h48.19.752,SurveyExpMetaMem,3.2.3,Win32,60
,,,,,,,,,,,,,,,,,,,,1,2.51699996,8,1.354000092,1,0,1200,899,1,1199,relax,11122,2019-10-21_16h48.19.752,SurveyExpMetaMem,3.2.3,Win32,60
,,,,,,,,,,,,,,,,,,,,2,2.433999777,8,0.836999893,1,0,1200,705,1,1199,tolerant,11122,2019-10-21_16h48.19.752,SurveyExpMetaMem,3.2.3,Win32,60
,,,,,,,,,,,,,,,,,,,,1,1.838000059,7,1.653999805,1,0,1200,12,1,1199,mountain,11122,2019-10-21_16h48.19.752,SurveyExpMetaMem,3.2.3,Win32,60
,,,,,,,,,,,,,,,,,,,,7,2.26699996,4,3.059000015,1,0,1200,959,1,1199,divorce,11122,2019-10-21_16h48.19.752,SurveyExpMetaMem,3.2.3,Win32,60
,,,,,,,,,,,,,,,,,,,,9,4.936000109,7,2.5849998,1,0,1200,533,1,1199,busy,11122,2019-10-21_16h48.19.752,SurveyExpMetaMem,3.2.3,Win32,60
,,,,,,,,,,,,,,,,,,,,1,2.200000048,9,0.71999979,1,0,1200,878,1,1199,sleep,11122,2019-10-21_16h48.19.752,SurveyExpMetaMem,3.2.3,Win32,60
,,,,,,,,,,,,,,,,,,,,2,2.488999844,8,0.931999922,1,0,1200,173,1,1199,hope,11122,2019-10-21_16h48.19.752,SurveyExpMetaMem,3.2.3,Win32,60
,,,,,,,,,,,,,,,,,,,,2,1.950999737,2,1.32400012,1,0,1200,1069,1,1199,defeat,11122,2019-10-21_16h48.19.752,SurveyExpMetaMem,3.2.3,Win32,60
,,,,,,,,,,,,,,,,,,,,2,1.640000105,2,1.289000034,1,0,1200,659,1,1199,hair,11122,2019-10-21_16h48.19.752,SurveyExpMetaMem,3.2.3,Win32,60
,,,,,,,,,,,,,,,,,,,,7,4.299000025,4,0.788999796,1,0,1200,741,1,1199,wheat,11122,2019-10-21_16h48.19.752,SurveyExpMetaMem,3.2.3,Win32,60
,,,,,,,,,,,,,,,,,,,,7,2.138000011,3,1.869999886,1,0,1200,464,1,1199,tick,11122,2019-10-21_16h48.19.752,SurveyExpMetaMem,3.2.3,Win32,60
,,,,,,,,,,,,,,,,,,,,4,4.264999866,8,3.460999727,1,0,1200,278,1,1199,king,11122,2019-10-21_16h48.19.752,SurveyExpMetaMem,3.2.3,Win32,60
,,,,,,,,,,,,,,,,,,,,2,1.657999992,2,1.454999924,1,0,1200,506,1,1199,lower,11122,2019-10-21_16h48.19.752,SurveyExpMetaMem,3.2.3,Win32,60
,,,,,,,,,,,,,,,,,,,,8,1.277999878,9,1.688999891,1,0,1200,211,1,1199,surfer,11122,2019-10-21_16h48.19.752,SurveyExpMetaMem,3.2.3,Win32,60
,,,,,,,,,,,,,,,,,,,,5,3.066999912,2,2.622999907,1,0,1200,550,1,1199,fart,11122,2019-10-21_16h48.19.752,SurveyExpMetaMem,3.2.3,Win32,60
,,,,,,,,,,,,,,,,,,,,8,2.250999928,2,1.169999838,1,0,1200,577,1,1199,retreat,11122,2019-10-21_16h48.19.752,SurveyExpMetaMem,3.2.3,Win32,60
,,,,,,,,,,,,,,,,,,,,2,2.972999811,8,2.813999891,1,0,1200,898,1,1199,kindness,11122,2019-10-21_16h48.19.752,SurveyExpMetaMem,3.2.3,Win32,60
,,,,,,,,,,,,,,,,,,,,5,2.949999809,3,1.144000053,1,0,1200,339,1,1199,chore,11122,2019-10-21_16h48.19.752,SurveyExpMetaMem,3.2.3,Win32,60
,,,,,,,,,,,,,,,,,,,,8,1.651000023,8,0.904999971,1,0,1200,88,1,1199,ambitious,11122,2019-10-21_16h48.19.752,SurveyExpMetaMem,3.2.3,Win32,60
,,,,,,,,,,,,,,,,,,,,8,3.003000021,9,1.821999788,1,0,1200,99,1,1199,funny,11122,2019-10-21_16h48.19.752,SurveyExpMetaMem,3.2.3,Win32,60
,,,,,,,,,,,,,,,,,,,,5,1.822000027,8,1.023999929,1,0,1200,617,1,1199,tomato,11122,2019-10-21_16h48.19.752,SurveyExpMetaMem,3.2.3,Win32,60
,,,,,,,,,,,,,,,,,,,,5,2.139999866,3,0.670000076,1,0,1200,702,1,1199,den,11122,2019-10-21_16h48.19.752,SurveyExpMetaMem,3.2.3,Win32,60
,,,,,,,,,,,,,,,,,,,,5,1.40199995,3,1.013000011,1,0,1200,580,1,1199,fur,11122,2019-10-21_16h48.19.752,SurveyExpMetaMem,3.2.3,Win32,60
,,,,,,,,,,,,,,,,,,,,8,3.09800005,8,0.907999992,1,0,1200,876,1,1199,politeness,11122,2019-10-21_16h48.19.752,SurveyExpMetaMem,3.2.3,Win32,60
,,,,,,,,,,,,,,,,,,,,8,1.28399992,8,1.268999815,1,0,1200,793,1,1199,virtue,11122,2019-10-21_16h48.19.752,SurveyExpMetaMem,3.2.3,Win32,60
,,,,,,,,,,,,,,,,,,,,8,10.10899997,1,1.294999838,1,0,1200,1120,1,1199,gun,11122,2019-10-21_16h48.19.752,SurveyExpMetaMem,3.2.3,Win32,60
,,,,,,,,,,,,,,,,,,,,8,1.601999998,9,0.786999941,1,0,1200,126,1,1199,rich,11122,2019-10-21_16h48.19.752,SurveyExpMetaMem,3.2.3,Win32,60
,,,,,,,,,,,,,,,,,,,,8,1.88499999,8,1.957000017,1,0,1200,672,1,1199,ketchup,11122,2019-10-21_16h48.19.752,SurveyExpMetaMem,3.2.3,Win32,60
,,,,,,,,,,,,,,,,,,,,5,2.653999805,3,3.034999847,1,0,1200,1074,1,1199,detain,11122,2019-10-21_16h48.19.752,SurveyExpMetaMem,3.2.3,Win32,60
,,,,,,,,,,,,,,,,,,,,5,7.529999971,3,0.786999702,1,0,1200,1041,1,1199,sin,11122,2019-10-21_16h48.19.752,SurveyExpMetaMem,3.2.3,Win32,60
,,,,,,,,,,,,,,,,,,,,8,1.921999931,1,0.904999971,1,0,1200,1026,1,1199,crisis,11122,2019-10-21_16h48.19.752,SurveyExpMetaMem,3.2.3,Win32,60
,,,,,,,,,,,,,,,,,,,,8,2.388999939,8,0.921999931,1,0,1200,192,1,1199,pleased,11122,2019-10-21_16h48.19.752,SurveyExpMetaMem,3.2.3,Win32,60
,,,,,,,,,,,,,,,,,,,,8,1.114999771,9,0.690999985,1,0,1200,223,1,1199,fashion,11122,2019-10-21_16h48.19.752,SurveyExpMetaMem,3.2.3,Win32,60
,,,,,,,,,,,,,,,,,,,,7,2.279999971,3,0.575999975,1,0,1200,427,1,1199,doubt,11122,2019-10-21_16h48.19.752,SurveyExpMetaMem,3.2.3,Win32,60
,,,,,,,,,,,,,,,,,,,,4,19.55299997,2,2.635999918,1,0,1200,320,1,1199,deformed,11122,2019-10-21_16h48.19.752,SurveyExpMetaMem,3.2.3,Win32,60
,,,,,,,,,,,,,,,,,,,,7,20.7980001,7,4.203999996,1,0,1200,1130,1,1199,slut,11122,2019-10-21_16h48.19.752,SurveyExpMetaMem,3.2.3,Win32,60
,,,,,,,,,,,,,,,,,,,,3,2.482999802,4,1.572999954,1,0,1200,321,1,1199,wart,11122,2019-10-21_16h48.19.752,SurveyExpMetaMem,3.2.3,Win32,60
,,,,,,,,,,,,,,,,,,,,3,5.258999825,7,1.106999874,1,0,1200,527,1,1199,passive,11122,2019-10-21_16h48.19.752,SurveyExpMetaMem,3.2.3,Win32,60
,,,,,,,,,,,,,,,,,,,,3,1.620999813,8,0.94299984,1,0,1200,843,1,1199,garden,11122,2019-10-21_16h48.19.752,SurveyExpMetaMem,3.2.3,Win32,60
,,,,,,,,,,,,,,,,,,,,1,2.256999731,8,0.921999931,1,0,1200,777,1,1199,casual,11122,2019-10-21_16h48.19.752,SurveyExpMetaMem,3.2.3,Win32,60
,,,,,,,,,,,,,,,,,,,,8,1.602999926,8,0.720999956,1,0,1200,789,1,1199,green,11122,2019-10-21_16h48.19.752,SurveyExpMetaMem,3.2.3,Win32,60
,,,,,,,,,,,,,,,,,,,,7,39.55200005,3,4.517999887,1,0,1200,585,1,1199,tatter,11122,2019-10-21_16h48.19.752,SurveyExpMetaMem,3.2.3,Win32,60
,,,,,,,,,,,,,,,,,,,,8,6.828999996,3,2.203999758,1,0,1200,982,1,1199,robbery,11122,2019-10-21_16h48.19.752,SurveyExpMetaMem,3.2.3,Win32,60
,,,,,,,,,,,,,,,,,,,,8,3.280999899,3,3.007999897,1,0,1200,329,1,1199,worse,11122,2019-10-21_16h48.19.752,SurveyExpMetaMem,3.2.3,Win32,60
,,,,,,,,,,,,,,,,,,,,9,1.897999763,8,1.274999857,1,0,1200,233,1,1199,exhilaration,11122,2019-10-21_16h48.19.752,SurveyExpMetaMem,3.2.3,Win32,60
,,,,,,,,,,,,,,,,,,,,3,1.585999966,3,1.69900012,1,0,1200,333,1,1199,weak,11122,2019-10-21_16h48.19.752,SurveyExpMetaMem,3.2.3,Win32,60
,,,,,,,,,,,,,,,,,,,,3,1.819999933,1,0.919999838,1,0,1200,510,1,1199,excuse,11122,2019-10-21_16h48.19.752,SurveyExpMetaMem,3.2.3,Win32,60
,,,,,,,,,,,,,,,,,,,,3,2.967000008,3,0.636999846,1,0,1200,514,1,1199,defer,11122,2019-10-21_16h48.19.752,SurveyExpMetaMem,3.2.3,Win32,60
,,,,,,,,,,,,,,,,,,,,8,1.076999903,8,0.602999926,1,0,1200,289,1,1199,concert,11122,2019-10-21_16h48.19.752,SurveyExpMetaMem,3.2.3,Win32,60
,,,,,,,,,,,,,,,,,,,,3,1.986999989,9,0.828999996,1,0,1200,703,1,1199,book,11122,2019-10-21_16h48.19.752,SurveyExpMetaMem,3.2.3,Win32,60
,,,,,,,,,,,,,,,,,,,,8,1.345999956,8,2.394999981,1,0,1200,176,1,1199,champ,11122,2019-10-21_16h48.19.752,SurveyExpMetaMem,3.2.3,Win32,60
,,,,,,,,,,,,,,,,,,,,7,2.002000093,9,2.271999836,1,0,1200,56,1,1199,spice,11122,2019-10-21_16h48.19.752,SurveyExpMetaMem,3.2.3,Win32,60
,,,,,,,,,,,,,,,,,,,,8,2.201999903,9,0.532999992,1,0,1200,298,1,1199,success,11122,2019-10-21_16h48.19.752,SurveyExpMetaMem,3.2.3,Win32,60
,,,,,,,,,,,,,,,,,,,,5,2.182999849,5,0.691999912,1,0,1200,468,1,1199,noose,11122,2019-10-21_16h48.19.752,SurveyExpMetaMem,3.2.3,Win32,60
,,,,,,,,,,,,,,,,,,,,3,2.284999847,1,1.055999994,1,0,1200,495,1,1199,dust,11122,2019-10-21_16h48.19.752,SurveyExpMetaMem,3.2.3,Win32,60
,,,,,,,,,,,,,,,,,,,,5,1.76699996,8,1.380999804,1,0,1200,771,1,1199,practical,11122,2019-10-21_16h48.19.752,SurveyExpMetaMem,3.2.3,Win32,60
,,,,,,,,,,,,,,,,,,,,8,1.598999977,8,0.654999971,1,0,1200,415,1,1199,grime,11122,2019-10-21_16h48.19.752,SurveyExpMetaMem,3.2.3,Win32,60
,,,,,,,,,,,,,,,,,,,,9,1.726000071,8,0.737999916,1,0,1200,201,1,1199,gorilla,11122,2019-10-21_16h48.19.752,SurveyExpMetaMem,3.2.3,Win32,60
,,,,,,,,,,,,,,,,,,,,8,2.020999908,3,0.557999849,1,0,1200,956,1,1199,crushed,11122,2019-10-21_16h48.19.752,SurveyExpMetaMem,3.2.3,Win32,60
,,,,,,,,,,,,,,,,,,,,8,2.75999999,3,0.572999954,1,0,1200,1147,1,1199,demand,11122,2019-10-21_16h48.19.752,SurveyExpMetaMem,3.2.3,Win32,60
,,,,,,,,,,,,,,,,,,,,8,1.460999966,3,3.268999815,1,0,1200,483,1,1199,condescension,11122,2019-10-21_16h48.19.752,SurveyExpMetaMem,3.2.3,Win32,60
,,,,,,,,,,,,,,,,,,,,8,9.717999935,8,13.66499996,1,0,1200,685,1,1199,makeup,11122,2019-10-21_16h48.19.752,SurveyExpMetaMem,3.2.3,Win32,60
,,,,,,,,,,,,,,,,,,,,9,2.437999725,8,1.74000001,1,0,1200,692,1,1199,medicine,11122,2019-10-21_16h48.19.752,SurveyExpMetaMem,3.2.3,Win32,60
,,,,,,,,,,,,,,,,,,,,3,35.30900002,8,2.004999876,1,0,1200,848,1,1199,graceful,11122,2019-10-21_16h48.19.752,SurveyExpMetaMem,3.2.3,Win32,60
,,,,,,,,,,,,,,,,,,,,1,2.399999857,8,1.386999846,1,0,1200,755,1,1199,soap,11122,2019-10-21_16h48.19.752,SurveyExpMetaMem,3.2.3,Win32,60
,,,,,,,,,,,,,,,,,,,,8,1.789999962,8,1.282999992,1,0,1200,159,1,1199,teenager,11122,2019-10-21_16h48.19.752,SurveyExpMetaMem,3.2.3,Win32,60
,,,,,,,,,,,,,,,,,,,,3,1.521999836,8,0.705999851,1,0,1200,724,1,1199,owl,11122,2019-10-21_16h48.19.752,SurveyExpMetaMem,3.2.3,Win32,60
,,,,,,,,,,,,,,,,,,,,7,2.402999878,8,0.556999922,1,0,1200,175,1,1199,playground,11122,2019-10-21_16h48.19.752,SurveyExpMetaMem,3.2.3,Win32,60
,,,,,,,,,,,,,,,,,,,,7,2.320999861,8,0.673999786,1,0,1200,105,1,1199,curious,11122,2019-10-21_16h48.19.752,SurveyExpMetaMem,3.2.3,Win32,60
,,,,,,,,,,,,,,,,,,,,9,1.369999886,9,0.555999994,1,0,1200,296,1,1199,awesome,11122,2019-10-21_16h48.19.752,SurveyExpMetaMem,3.2.3,Win32,60
,,,,,,,,,,,,,,,,,,,,7,1.986999989,1,0.781000137,1,0,1200,341,1,1199,stinky,11122,2019-10-21_16h48.19.752,SurveyExpMetaMem,3.2.3,Win32,60
,,,,,,,,,,,,,,,,,,,,4,1.624000072,5,0.824999809,1,0,1200,1138,1,1199,wail,11122,2019-10-21_16h48.19.752,SurveyExpMetaMem,3.2.3,Win32,60
,,,,,,,,,,,,,,,,,,,,8,1.167999983,7,1.244999886,1,0,1200,1042,1,1199,brutal,11122,2019-10-21_16h48.19.752,SurveyExpMetaMem,3.2.3,Win32,60
,,,,,,,,,,,,,,,,,,,,3,2.562000036,8,0.520999908,1,0,1200,882,1,1199,gentle,11122,2019-10-21_16h48.19.752,SurveyExpMetaMem,3.2.3,Win32,60
,,,,,,,,,,,,,,,,,,,,3,1.474999905,8,0.441999912,1,0,1200,767,1,1199,civil,11122,2019-10-21_16h48.19.752,SurveyExpMetaMem,3.2.3,Win32,60
,,,,,,,,,,,,,,,,,,,,7,2.534999847,3,0.522000074,1,0,1200,1167,1,1199,bribe,11122,2019-10-21_16h48.19.752,SurveyExpMetaMem,3.2.3,Win32,60
,,,,,,,,,,,,,,,,,,,,5,2.430999756,5,0.513999939,1,0,1200,694,1,1199,pecan,11122,2019-10-21_16h48.19.752,SurveyExpMetaMem,3.2.3,Win32,60
,,,,,,,,,,,,,,,,,,,,7,2.177000046,3,0.513000011,1,0,1200,670,1,1199,urinate,11122,2019-10-21_16h48.19.752,SurveyExpMetaMem,3.2.3,Win32,60
,,,,,,,,,,,,,,,,,,,,7,4.445999861,3,0.618999958,1,0,1200,430,1,1199,cancel,11122,2019-10-21_16h48.19.752,SurveyExpMetaMem,3.2.3,Win32,60
,,,,,,,,,,,,,,,,,,,,9,18.02199984,1,0.869999886,1,0,1200,944,1,1199,kill,11122,2019-10-21_16h48.19.752,SurveyExpMetaMem,3.2.3,Win32,60
,,,,,,,,,,,,,,,,,,,,8,1.514999866,8,0.80099988,1,0,1200,214,1,1199,revive,11122,2019-10-21_16h48.19.752,SurveyExpMetaMem,3.2.3,Win32,60
,,,,,,,,,,,,,,,,,,,,7,6.642999887,8,0.620999813,1,0,1200,264,1,1199,thong,11122,2019-10-21_16h48.19.752,SurveyExpMetaMem,3.2.3,Win32,60
,,,,,,,,,,,,,,,,,,,,8,1.779999971,5,0.937999964,1,0,1200,370,1,1199,rodent,11122,2019-10-21_16h48.19.752,SurveyExpMetaMem,3.2.3,Win32,60
,,,,,,,,,,,,,,,,,,,,3,3.082999945,3,0.521999836,1,0,1200,363,1,1199,dumb,11122,2019-10-21_16h48.19.752,SurveyExpMetaMem,3.2.3,Win32,60
,,,,,,,,,,,,,,,,,,,,3,1.502999783,1,0.633999825,1,0,1200,1019,1,1199,fraud,11122,2019-10-21_16h48.19.752,SurveyExpMetaMem,3.2.3,Win32,60
,,,,,,,,,,,,,,,,,,,,8,1.035999775,3,0.409999847,1,0,1200,647,1,1199,accord,11122,2019-10-21_16h48.19.752,SurveyExpMetaMem,3.2.3,Win32,60
,,,,,,,,,,,,,,,,,,,,8,0.989000082,4,0.779000044,1,0,1200,437,1,1199,blubber,11122,2019-10-21_16h48.19.752,SurveyExpMetaMem,3.2.3,Win32,60
,,,,,,,,,,,,,,,,,,,,8,2.470000029,3,0.487999916,1,0,1200,576,1,1199,policy,11122,2019-10-21_16h48.19.752,SurveyExpMetaMem,3.2.3,Win32,60
,,,,,,,,,,,,,,,,,,,,2,5.889999866,4,3.536999941,1,0,1200,267,1,1199,bold,11122,2019-10-21_16h48.19.752,SurveyExpMetaMem,3.2.3,Win32,60
,,,,,,,,,,,,,,,,,,,,3,3.822999954,1,3.868999958,1,0,1200,314,1,1199,hopeless,11122,2019-10-21_16h48.19.752,SurveyExpMetaMem,3.2.3,Win32,60
,,,,,,,,,,,,,,,,,,,,8,6.480999947,3,0.345999956,1,0,1200,851,1,1199,cool,11122,2019-10-21_16h48.19.752,SurveyExpMetaMem,3.2.3,Win32,60
,,,,,,,,,,,,,,,,,,,,8,7.009000063,3,0.417999744,1,0,1200,1046,1,1199,unsafe,11122,2019-10-21_16h48.19.752,SurveyExpMetaMem,3.2.3,Win32,60
,,,,,,,,,,,,,,,,,,,,7,2.581999779,8,0.421000004,1,0,1200,7,1,1199,duet,11122,2019-10-21_16h48.19.752,SurveyExpMetaMem,3.2.3,Win32,60
,,,,,,,,,,,,,,,,,,,,4,2.40899992,8,0.324999809,1,0,1200,365,1,1199,discouraged,11122,2019-10-21_16h48.19.752,SurveyExpMetaMem,3.2.3,Win32,60
,,,,,,,,,,,,,,,,,,,,8,1.407000065,8,0.390000105,1,0,1200,632,1,1199,avenue,11122,2019-10-21_16h48.19.752,SurveyExpMetaMem,3.2.3,Win32,60
,,,,,,,,,,,,,,,,,,,,7,2.273999929,9,0.394000053,1,0,1200,299,1,1199,champion,11122,2019-10-21_16h48.19.752,SurveyExpMetaMem,3.2.3,Win32,60
,,,,,,,,,,,,,,,,,,,,9,2.140999794,8,0.53399992,1,0,1200,1088,1,1199,forbid,11122,2019-10-21_16h48.19.752,SurveyExpMetaMem,3.2.3,Win32,60
,,,,,,,,,,,,,,,,,,,,9,1.108999968,9,0.504999876,1,0,1200,37,1,1199,magnificence,11122,2019-10-21_16h48.19.752,SurveyExpMetaMem,3.2.3,Win32,60
,,,,,,,,,,,,,,,,,,,,4,1.0849998,3,0.854000092,1,0,1200,934,1,1199,sob,11122,2019-10-21_16h48.19.752,SurveyExpMetaMem,3.2.3,Win32,60
,,,,,,,,,,,,,,,,,,,,3,1.135999918,5,1.540999889,1,0,1200,434,1,1199,frail,11122,2019-10-21_16h48.19.752,SurveyExpMetaMem,3.2.3,Win32,60
,,,,,,,,,,,,,,,,,,,,8,11.84200001,8,0.789999962,1,0,1200,172,1,1199,potential,11122,2019-10-21_16h48.19.752,SurveyExpMetaMem,3.2.3,Win32,60
,,,,,,,,,,,,,,,,,,,,9,2.268000126,2,0.660999775,1,0,1200,1095,1,1199,fright,11122,2019-10-21_16h48.19.752,SurveyExpMetaMem,3.2.3,Win32,60
,,,,,,,,,,,,,,,,,,,,4,1.485999823,1,0.572999954,1,0,1200,440,1,1199,forgot,11122,2019-10-21_16h48.19.752,SurveyExpMetaMem,3.2.3,Win32,60
,,,,,,,,,,,,,,,,,,,,4,1.11899972,5,0.928999901,1,0,1200,453,1,1199,prude,11122,2019-10-21_16h48.19.752,SurveyExpMetaMem,3.2.3,Win32,60
,,,,,,,,,,,,,,,,,,,,4,1.305999994,2,0.85800004,1,0,1200,920,1,1199,hurt,11122,2019-10-21_16h48.19.752,SurveyExpMetaMem,3.2.3,Win32,60
,,,,,,,,,,,,,,,,,,,,7,2.947999954,4,0.513000011,1,0,1200,719,1,1199,western,11122,2019-10-21_16h48.19.752,SurveyExpMetaMem,3.2.3,Win32,60
,,,,,,,,,,,,,,,,,,,,8,2.936999798,8,0.777999878,1,0,1200,132,1,1199,silly,11122,2019-10-21_16h48.19.752,SurveyExpMetaMem,3.2.3,Win32,60
,,,,,,,,,,,,,,,,,,,,2,3.920999765,7,0.754999876,1,0,1200,675,1,1199,golfer,11122,2019-10-21_16h48.19.752,SurveyExpMetaMem,3.2.3,Win32,60
,,,,,,,,,,,,,,,,,,,,8,2.803999901,4,0.596999884,1,0,1200,583,1,1199,obey,11122,2019-10-21_16h48.19.752,SurveyExpMetaMem,3.2.3,Win32,60
,,,,,,,,,,,,,,,,,,,,3,2.868999958,5,1.061999798,1,0,1200,636,1,1199,refine,11122,2019-10-21_16h48.19.752,SurveyExpMetaMem,3.2.3,Win32,60
,,,,,,,,,,,,,,,,,,,,9,2.523999929,8,0.830999851,1,0,1200,116,1,1199,carnival,11122,2019-10-21_16h48.19.752,SurveyExpMetaMem,3.2.3,Win32,60
,,,,,,,,,,,,,,,,,,,,8,1.651000023,9,1.170999765,1,0,1200,16,1,1199,sing,11122,2019-10-21_16h48.19.752,SurveyExpMetaMem,3.2.3,Win32,60
,,,,,,,,,,,,,,,,,,,,8,1.470000029,3,0.487999916,1,0,1200,1125,1,1199,outrage,11122,2019-10-21_16h48.19.752,SurveyExpMetaMem,3.2.3,Win32,60
,,,,,,,,,,,,,,,,,,,,7,2.036999941,3,0.820999861,1,0,1200,993,1,1199,remorse,11122,2019-10-21_16h48.19.752,SurveyExpMetaMem,3.2.3,Win32,60
,,,,,,,,,,,,,,,,,,,,8,2.5849998,3,2.585000038,1,0,1200,721,1,1199,contemporary,11122,2019-10-21_16h48.19.752,SurveyExpMetaMem,3.2.3,Win32,60
,,,,,,,,,,,,,,,,,,,,8,5.207999945,9,0.806999922,1,0,1200,285,1,1199,gold,11122,2019-10-21_16h48.19.752,SurveyExpMetaMem,3.2.3,Win32,60
,,,,,,,,,,,,,,,,,,,,8,1.439999819,8,0.359999895,1,0,1200,856,1,1199,leisurely,11122,2019-10-21_16h48.19.752,SurveyExpMetaMem,3.2.3,Win32,60
,,,,,,,,,,,,,,,,,,,,3,5.208999872,9,1.054999828,1,0,1200,84,1,1199,eat,11122,2019-10-21_16h48.19.752,SurveyExpMetaMem,3.2.3,Win32,60
,,,,,,,,,,,,,,,,,,,,8,23.9829998,9,1.473999977,1,0,1200,174,1,1199,snow,11122,2019-10-21_16h48.19.752,SurveyExpMetaMem,3.2.3,Win32,60
,,,,,,,,,,,,,,,,,,,,7,2.166999817,7,0.508999825,1,0,1200,73,1,1199,rhythm,11122,2019-10-21_16h48.19.752,SurveyExpMetaMem,3.2.3,Win32,60
,,,,,,,,,,,,,,,,,,,,4,2.024999857,6,0.739999771,1,0,1200,529,1,1199,small,11122,2019-10-21_16h48.19.752,SurveyExpMetaMem,3.2.3,Win32,60
,,,,,,,,,,,,,,,,,,,,7,1.56799984,8,0.661999941,1,0,1200,669,1,1199,plaza,11122,2019-10-21_16h48.19.752,SurveyExpMetaMem,3.2.3,Win32,60
,,,,,,,,,,,,,,,,,,,,7,1.651000023,4,0.674999952,1,0,1200,102,1,1199,motorcycle,11122,2019-10-21_16h48.19.752,SurveyExpMetaMem,3.2.3,Win32,60
,,,,,,,,,,,,,,,,,,,,2,3.599999905,7,0.60800004,1,0,1200,613,1,1199,cup,11122,2019-10-21_16h48.19.752,SurveyExpMetaMem,3.2.3,Win32,60
,,,,,,,,,,,,,,,,,,,,1,2.972999811,9,1.944999933,1,0,1200,895,1,1199,peace,11122,2019-10-21_16h48.19.752,SurveyExpMetaMem,3.2.3,Win32,60
,,,,,,,,,,,,,,,,,,,,7,5.398000002,4,2.385999918,1,0,1200,584,1,1199,anus,11122,2019-10-21_16h48.19.752,SurveyExpMetaMem,3.2.3,Win32,60
,,,,,,,,,,,,,,,,,,,,8,2.138999939,4,1.013999939,1,0,1200,996,1,1199,sting,11122,2019-10-21_16h48.19.752,SurveyExpMetaMem,3.2.3,Win32,60
,,,,,,,,,,,,,,,,,,,,2,1.90199995,8,1.18900013,1,0,1200,631,1,1199,delicate,11122,2019-10-21_16h48.19.752,SurveyExpMetaMem,3.2.3,Win32,60
,,,,,,,,,,,,,,,,,,,,9,2.547999859,2,1.403999805,1,0,1200,1073,1,1199,bitch,11122,2019-10-21_16h48.19.752,SurveyExpMetaMem,3.2.3,Win32,60
,,,,,,,,,,,,,,,,,,,,2,3.784999847,5,1.553999901,1,0,1200,642,1,1199,newspaper,11122,2019-10-21_16h48.19.752,SurveyExpMetaMem,3.2.3,Win32,60
,,,,,,,,,,,,,,,,,,,,7,3.983999968,4,0.796999931,1,0,1200,350,1,1199,inadequate,11122,2019-10-21_16h48.19.752,SurveyExpMetaMem,3.2.3,Win32,60
,,,,,,,,,,,,,,,,,,,,2,2.457000017,4,1.363999844,1,0,1200,451,1,1199,lame,11122,2019-10-21_16h48.19.752,SurveyExpMetaMem,3.2.3,Win32,60
,,,,,,,,,,,,,,,,,,,,8,2.120000124,8,0.559999943,1,0,1200,13,1,1199,mingle,11122,2019-10-21_16h48.19.752,SurveyExpMetaMem,3.2.3,Win32,60
,,,,,,,,,,,,,,,,,,,,5,2.431999922,5,0.438999891,1,0,1200,811,1,1199,tenderness,11122,2019-10-21_16h48.19.752,SurveyExpMetaMem,3.2.3,Win32,60
,,,,,,,,,,,,,,,,,,,,8,2.537999868,4,0.574999809,1,0,1200,1058,1,1199,bloody,11122,2019-10-21_16h48.19.752,SurveyExpMetaMem,3.2.3,Win32,60
,,,,,,,,,,,,,,,,,,,,8,2.302999973,2,0.619999886,1,0,1200,348,1,1199,impotent,11122,2019-10-21_16h48.19.752,SurveyExpMetaMem,3.2.3,Win32,60
,,,,,,,,,,,,,,,,,,,,9,4.167000055,1,2.726999998,1,0,1200,1114,1,1199,foe,11122,2019-10-21_16h48.19.752,SurveyExpMetaMem,3.2.3,Win32,60
,,,,,,,,,,,,,,,,,,,,8,3.385999918,7,1.364000082,1,0,1200,1154,1,1199,politics,11122,2019-10-21_16h48.19.752,SurveyExpMetaMem,3.2.3,Win32,60
,,,,,,,,,,,,,,,,,,,,1,1.980999947,7,0.805999756,1,0,1200,544,1,1199,snail,11122,2019-10-21_16h48.19.752,SurveyExpMetaMem,3.2.3,Win32,60
,,,,,,,,,,,,,,,,,,,,8,1.573999882,3,0.973999977,1,0,1200,1142,1,1199,disturb,11122,2019-10-21_16h48.19.752,SurveyExpMetaMem,3.2.3,Win32,60
,,,,,,,,,,,,,,,,,,,,1,1.687000036,9,0.572999954,1,0,1200,6,1,1199,chest,11122,2019-10-21_16h48.19.752,SurveyExpMetaMem,3.2.3,Win32,60
,,,,,,,,,,,,,,,,,,,,9,3.003000021,8,1.621000051,1,0,1200,1,1,1199,fuck,11122,2019-10-21_16h48.19.752,SurveyExpMetaMem,3.2.3,Win32,60
,,,,,,,,,,,,,,,,,,,,2,7.647000074,9,0.554999828,1,0,1200,149,1,1199,loved,11122,2019-10-21_16h48.19.752,SurveyExpMetaMem,3.2.3,Win32,60
,,,,,,,,,,,,,,,,,,,,6,2.352999926,9,0.720000029,1,0,1200,134,1,1199,dollar,11122,2019-10-21_16h48.19.752,SurveyExpMetaMem,3.2.3,Win32,60
,,,,,,,,,,,,,,,,,,,,8,3.667999983,3,0.609999895,1,0,1200,1029,1,1199,abduction,11122,2019-10-21_16h48.19.752,SurveyExpMetaMem,3.2.3,Win32,60
,,,,,,,,,,,,,,,,,,,,1,1.875,7,1.004999876,1,0,1200,795,1,1199,soup,11122,2019-10-21_16h48.19.752,SurveyExpMetaMem,3.2.3,Win32,60
,,,,,,,,,,,,,,,,,,,,1,2.342000008,9,0.86199975,1,0,1200,897,1,1199,peaceful,11122,2019-10-21_16h48.19.752,SurveyExpMetaMem,3.2.3,Win32,60
,,,,,,,,,,,,,,,,,,,,8,1.602999926,8,0.503999949,1,0,1200,290,1,1199,enthusiasm,11122,2019-10-21_16h48.19.752,SurveyExpMetaMem,3.2.3,Win32,60
,,,,,,,,,,,,,,,,,,,,5,1.720999956,5,0.387000084,1,0,1200,444,1,1199,mold,11122,2019-10-21_16h48.19.752,SurveyExpMetaMem,3.2.3,Win32,60
,,,,,,,,,,,,,,,,,,,,4,1.836999893,6,0.504999876,1,0,1200,324,1,1199,inferiority,11122,2019-10-21_16h48.19.752,SurveyExpMetaMem,3.2.3,Win32,60
,,,,,,,,,,,,,,,,,,,,8,2.051000118,8,0.454999924,1,0,1200,60,1,1199,bikini,11122,2019-10-21_16h48.19.752,SurveyExpMetaMem,3.2.3,Win32,60
,,,,,,,,,,,,,,,,,,,,5,1.587999821,5,0.453999996,1,0,1200,165,1,1199,sizzle,11122,2019-10-21_16h48.19.752,SurveyExpMetaMem,3.2.3,Win32,60
,,,,,,,,,,,,,,,,,,,,8,1.700999975,3,1.111999989,1,0,1200,1194,1,1199,obsession,11122,2019-10-21_16h48.19.752,SurveyExpMetaMem,3.2.3,Win32,60
,,,,,,,,,,,,,,,,,,,,8,1.960999966,2,0.802999973,1,0,1200,1141,1,1199,shark,11122,2019-10-21_16h48.19.752,SurveyExpMetaMem,3.2.3,Win32,60
,,,,,,,,,,,,,,,,,,,,9,1.906999826,9,0.704999924,1,0,1200,33,1,1199,sister,11122,2019-10-21_16h48.19.752,SurveyExpMetaMem,3.2.3,Win32,60
,,,,,,,,,,,,,,,,,,,,7,3.752000093,3,0.397000074,1,0,1200,393,1,1199,droop,11122,2019-10-21_16h48.19.752,SurveyExpMetaMem,3.2.3,Win32,60
,,,,,,,,,,,,,,,,,,,,8,1.611000061,7,0.578999758,1,0,1200,104,1,1199,freeway,11122,2019-10-21_16h48.19.752,SurveyExpMetaMem,3.2.3,Win32,60
,,,,,,,,,,,,,,,,,,,,5,8.20299983,5,0.145999908,1,0,1200,607,1,1199,greyhound,11122,2019-10-21_16h48.19.752,SurveyExpMetaMem,3.2.3,Win32,60
,,,,,,,,,,,,,,,,,,,,8,8.072000027,4,0.573999882,1,0,1200,620,1,1199,spray,11122,2019-10-21_16h48.19.752,SurveyExpMetaMem,3.2.3,Win32,60
,,,,,,,,,,,,,,,,,,,,9,1.470000029,7,0.48300004,1,0,1200,1161,1,1199,shock,11122,2019-10-21_16h48.19.752,SurveyExpMetaMem,3.2.3,Win32,60
,,,,,,,,,,,,,,,,,,,,3,2.115999699,1,0.805999994,1,0,1200,337,1,1199,stinks,11122,2019-10-21_16h48.19.752,SurveyExpMetaMem,3.2.3,Win32,60
,,,,,,,,,,,,,,,,,,,,7,1.485999823,6,1.2099998,1,0,1200,695,1,1199,teacher,11122,2019-10-21_16h48.19.752,SurveyExpMetaMem,3.2.3,Win32,60
,,,,,,,,,,,,,,,,,,,,5,2.069000006,5,1.32799983,1,0,1200,545,1,1199,tar,11122,2019-10-21_16h48.19.752,SurveyExpMetaMem,3.2.3,Win32,60
,,,,,,,,,,,,,,,,,,,,8,1.451999903,7,0.464999914,1,0,1200,239,1,1199,compassionate,11122,2019-10-21_16h48.19.752,SurveyExpMetaMem,3.2.3,Win32,60
,,,,,,,,,,,,,,,,,,,,8,1.903000116,7,1.095999718,1,0,1200,581,1,1199,dork,11122,2019-10-21_16h48.19.752,SurveyExpMetaMem,3.2.3,Win32,60
,,,,,,,,,,,,,,,,,,,,5,2.218999863,3,1.473999977,1,0,1200,1158,1,1199,dentist,11122,2019-10-21_16h48.19.752,SurveyExpMetaMem,3.2.3,Win32,60
,,,,,,,,,,,,,,,,,,,,1,1.885999918,8,0.937999964,1,0,1200,841,1,1199,bathtub,11122,2019-10-21_16h48.19.752,SurveyExpMetaMem,3.2.3,Win32,60
,,,,,,,,,,,,,,,,,,,,7,3.072999954,2,0.838999748,1,0,1200,72,1,1199,attract,11122,2019-10-21_16h48.19.752,SurveyExpMetaMem,3.2.3,Win32,60
,,,,,,,,,,,,,,,,,,,,3,4.330999851,6,0.605000019,1,0,1200,666,1,1199,verify,11122,2019-10-21_16h48.19.752,SurveyExpMetaMem,3.2.3,Win32,60
,,,,,,,,,,,,,,,,,,,,1,1.717000008,9,0.625,1,0,1200,245,1,1199,beach,11122,2019-10-21_16h48.19.752,SurveyExpMetaMem,3.2.3,Win32,60
,,,,,,,,,,,,,,,,,,,,9,1.45299983,2,0.620999813,1,0,1200,973,1,1199,anger,11122,2019-10-21_16h48.19.752,SurveyExpMetaMem,3.2.3,Win32,60
,,,,,,,,,,,,,,,,,,,,3,2.851999998,7,0.852999926,1,0,1200,206,1,1199,comet,11122,2019-10-21_16h48.19.752,SurveyExpMetaMem,3.2.3,Win32,60
,,,,,,,,,,,,,,,,,,,,5,2.73699975,9,0.620999813,1,0,1200,215,1,1199,salary,11122,2019-10-21_16h48.19.752,SurveyExpMetaMem,3.2.3,Win32,60
,,,,,,,,,,,,,,,,,,,,5,4.314999819,5,0.513000011,1,0,1200,807,1,1199,person,11122,2019-10-21_16h48.19.752,SurveyExpMetaMem,3.2.3,Win32,60
,,,,,,,,,,,,,,,,,,,,2,2.187999964,6,1.093999863,1,0,1200,761,1,1199,corn,11122,2019-10-21_16h48.19.752,SurveyExpMetaMem,3.2.3,Win32,60
,,,,,,,,,,,,,,,,,,,,4,3.63499999,7,0.629999876,1,0,1200,790,1,1199,binoculars,11122,2019-10-21_16h48.19.752,SurveyExpMetaMem,3.2.3,Win32,60
,,,,,,,,,,,,,,,,,,,,9,3.111000061,9,0.886000156,1,0,1200,89,1,1199,cruiseship,11122,2019-10-21_16h48.19.752,SurveyExpMetaMem,3.2.3,Win32,60
,,,,,,,,,,,,,,,,,,,,9,1.740999937,2,0.70299983,1,0,1200,1090,1,1199,destruction,11122,2019-10-21_16h48.19.752,SurveyExpMetaMem,3.2.3,Win32,60
,,,,,,,,,,,,,,,,,,,,4,2.101999998,6,0.708999872,1,0,1200,641,1,1199,writer,11122,2019-10-21_16h48.19.752,SurveyExpMetaMem,3.2.3,Win32,60
,,,,,,,,,,,,,,,,,,,,8,1.601999998,4,0.745999813,1,0,1200,1022,1,1199,creepy,11122,2019-10-21_16h48.19.752,SurveyExpMetaMem,3.2.3,Win32,60
,,,,,,,,,,,,,,,,,,,,3,2.15199995,3,0.570999861,1,0,1200,467,1,1199,FALSE,11122,2019-10-21_16h48.19.752,SurveyExpMetaMem,3.2.3,Win32,60
,,,,,,,,,,,,,,,,,,,,8,1.450999975,9,1.671000004,1,0,1200,242,1,1199,triumph,11122,2019-10-21_16h48.19.752,SurveyExpMetaMem,3.2.3,Win32,60
,,,,,,,,,,,,,,,,,,,,6,2.337000132,2,0.552999973,1,0,1200,349,1,1199,mope,11122,2019-10-21_16h48.19.752,SurveyExpMetaMem,3.2.3,Win32,60
,,,,,,,,,,,,,,,,,,,,8,1.976000071,8,0.588000059,1,0,1200,218,1,1199,charming,11122,2019-10-21_16h48.19.752,SurveyExpMetaMem,3.2.3,Win32,60
,,,,,,,,,,,,,,,,,,,,2,1.887999773,6,0.554999828,1,0,1200,406,1,1199,tired,11122,2019-10-21_16h48.19.752,SurveyExpMetaMem,3.2.3,Win32,60
,,,,,,,,,,,,,,,,,,,,6,2.101999998,6,0.855999947,1,0,1200,653,1,1199,detail,11122,2019-10-21_16h48.19.752,SurveyExpMetaMem,3.2.3,Win32,60
,,,,,,,,,,,,,,,,,,,,9,1.854000092,9,2.885999918,1,0,1200,38,1,1199,cheeseburger,11122,2019-10-21_16h48.19.752,SurveyExpMetaMem,3.2.3,Win32,60
,,,,,,,,,,,,,,,,,,,,8,2.051000118,3,0.457999945,1,0,1200,962,1,1199,poisonous,11122,2019-10-21_16h48.19.752,SurveyExpMetaMem,3.2.3,Win32,60
,,,,,,,,,,,,,,,,,,,,9,4.118000031,1,0.603999853,1,0,1200,479,1,1199,period,11122,2019-10-21_16h48.19.752,SurveyExpMetaMem,3.2.3,Win32,60
,,,,,,,,,,,,,,,,,,,,5,4.131000042,5,0.381999969,1,0,1200,491,1,1199,meek,11122,2019-10-21_16h48.19.752,SurveyExpMetaMem,3.2.3,Win32,60
,,,,,,,,,,,,,,,,,,,,7,1.318999767,5,0.504999876,1,0,1200,589,1,1199,coarse,11122,2019-10-21_16h48.19.752,SurveyExpMetaMem,3.2.3,Win32,60
,,,,,,,,,,,,,,,,,,,,7,3.197999954,4,1.105000019,1,0,1200,995,1,1199,cult,11122,2019-10-21_16h48.19.752,SurveyExpMetaMem,3.2.3,Win32,60
,,,,,,,,,,,,,,,,,,,,8,1.589999914,8,0.729999781,1,0,1200,284,1,1199,delight,11122,2019-10-21_16h48.19.752,SurveyExpMetaMem,3.2.3,Win32,60
,,,,,,,,,,,,,,,,,,,,7,3.048999786,7,0.330999851,1,0,1200,472,1,1199,bald,11122,2019-10-21_16h48.19.752,SurveyExpMetaMem,3.2.3,Win32,60
,,,,,,,,,,,,,,,,,,,,7,1.83100009,7,0.376999855,1,0,1200,519,1,1199,listless,11122,2019-10-21_16h48.19.752,SurveyExpMetaMem,3.2.3,Win32,60
,,,,,,,,,,,,,,,,,,,,8,2.239000082,3,0.346999884,1,0,1200,1086,1,1199,irritate,11122,2019-10-21_16h48.19.752,SurveyExpMetaMem,3.2.3,Win32,60
,,,,,,,,,,,,,,,,,,,,4,2.184000015,7,0.505999804,1,0,1200,707,1,1199,adapt,11122,2019-10-21_16h48.19.752,SurveyExpMetaMem,3.2.3,Win32,60
,,,,,,,,,,,,,,,,,,,,8,1.720999956,3,0.426999807,1,0,1200,470,1,1199,cynical,11122,2019-10-21_16h48.19.752,SurveyExpMetaMem,3.2.3,Win32,60
,,,,,,,,,,,,,,,,,,,,7,1.552999973,8,0.411000013,1,0,1200,788,1,1199,cook,11122,2019-10-21_16h48.19.752,SurveyExpMetaMem,3.2.3,Win32,60
,,,,,,,,,,,,,,,,,,,,8,2.708999872,8,0.519999981,1,0,1200,248,1,1199,win,11122,2019-10-21_16h48.19.752,SurveyExpMetaMem,3.2.3,Win32,60
,,,,,,,,,,,,,,,,,,,,8,2.465999842,3,0.42599988,1,0,1200,1156,1,1199,weapon,11122,2019-10-21_16h48.19.752,SurveyExpMetaMem,3.2.3,Win32,60
,,,,,,,,,,,,,,,,,,,,9,2.167999744,1,1.362999916,1,0,1200,1108,1,1199,spider,11122,2019-10-21_16h48.19.752,SurveyExpMetaMem,3.2.3,Win32,60
,,,,,,,,,,,,,,,,,,,,1,5.914999962,9,1.31099987,1,0,1200,881,1,1199,protected,11122,2019-10-21_16h48.19.752,SurveyExpMetaMem,3.2.3,Win32,60
,,,,,,,,,,,,,,,,,,,,8,2.036999941,7,0.565999985,1,0,1200,222,1,1199,waterskiing,11122,2019-10-21_16h48.19.752,SurveyExpMetaMem,3.2.3,Win32,60
,,,,,,,,,,,,,,,,,,,,4,2.15199995,7,0.513000011,1,0,1200,753,1,1199,patience,11122,2019-10-21_16h48.19.752,SurveyExpMetaMem,3.2.3,Win32,60
,,,,,,,,,,,,,,,,,,,,8,2.022999763,2,0.603999853,1,0,1200,308,1,1199,worthless,11122,2019-10-21_16h48.19.752,SurveyExpMetaMem,3.2.3,Win32,60
,,,,,,,,,,,,,,,,,,,,8,2.068999767,2,0.507999897,1,0,1200,1182,1,1199,pierce,11122,2019-10-21_16h48.19.752,SurveyExpMetaMem,3.2.3,Win32,60
,,,,,,,,,,,,,,,,,,,,3,2.075999975,9,0.578999996,1,0,1200,718,1,1199,flow,11122,2019-10-21_16h48.19.752,SurveyExpMetaMem,3.2.3,Win32,60
,,,,,,,,,,,,,,,,,,,,2,2.087999821,8,0.505000114,1,0,1200,896,1,1199,cuddle,11122,2019-10-21_16h48.19.752,SurveyExpMetaMem,3.2.3,Win32,60
,,,,,,,,,,,,,,,,,,,,2,1.852999926,7,0.523999929,1,0,1200,825,1,1199,swan,11122,2019-10-21_16h48.19.752,SurveyExpMetaMem,3.2.3,Win32,60
,,,,,,,,,,,,,,,,,,,,3,3.631000042,4,0.629999876,1,0,1200,725,1,1199,checkerboard,11122,2019-10-21_16h48.19.752,SurveyExpMetaMem,3.2.3,Win32,60
,,,,,,,,,,,,,,,,,,,,3,1.638000011,7,1.50999999,1,0,1200,496,1,1199,slow,11122,2019-10-21_16h48.19.752,SurveyExpMetaMem,3.2.3,Win32,60
,,,,,,,,,,,,,,,,,,,,7,7.198999882,4,0.981999874,1,0,1200,1166,1,1199,compulsive,11122,2019-10-21_16h48.19.752,SurveyExpMetaMem,3.2.3,Win32,60
,,,,,,,,,,,,,,,,,,,,6,1.989999771,6,0.403999805,1,0,1200,9,1,1199,try,11122,2019-10-21_16h48.19.752,SurveyExpMetaMem,3.2.3,Win32,60
,,,,,,,,,,,,,,,,,,,,7,2.472999811,4,0.387999773,1,0,1200,1023,1,1199,disorder,11122,2019-10-21_16h48.19.752,SurveyExpMetaMem,3.2.3,Win32,60
,,,,,,,,,,,,,,,,,,,,7,3.28399992,3,0.669999838,1,0,1200,538,1,1199,crumbs,11122,2019-10-21_16h48.19.752,SurveyExpMetaMem,3.2.3,Win32,60
,,,,,,,,,,,,,,,,,,,,7,2.122999907,7,0.354999781,1,0,1200,674,1,1199,fitting,11122,2019-10-21_16h48.19.752,SurveyExpMetaMem,3.2.3,Win32,60
,,,,,,,,,,,,,,,,,,,,8,1.65199995,2,0.496999979,1,0,1200,971,1,1199,crash,11122,2019-10-21_16h48.19.752,SurveyExpMetaMem,3.2.3,Win32,60
,,,,,,,,,,,,,,,,,,,,8,1.826999903,3,0.503999949,1,0,1200,928,1,1199,cruel,11122,2019-10-21_16h48.19.752,SurveyExpMetaMem,3.2.3,Win32,60
,,,,,,,,,,,,,,,,,,,,1,4.142999887,5,2.716999769,1,0,1200,46,1,1199,god,11122,2019-10-21_16h48.19.752,SurveyExpMetaMem,3.2.3,Win32,60
,,,,,,,,,,,,,,,,,,,,3,18.36999989,7,0.638999939,1,0,1200,751,1,1199,listen,11122,2019-10-21_16h48.19.752,SurveyExpMetaMem,3.2.3,Win32,60
,,,,,,,,,,,,,,,,,,,,8,2.06799984,8,0.388999939,1,0,1200,728,1,1199,patio,11122,2019-10-21_16h48.19.752,SurveyExpMetaMem,3.2.3,Win32,60
,,,,,,,,,,,,,,,,,,,,7,1.469000101,3,0.49000001,1,0,1200,621,1,1199,chew,11122,2019-10-21_16h48.19.752,SurveyExpMetaMem,3.2.3,Win32,60
,,,,,,,,,,,,,,,,,,,,3,2.383999825,7,0.487999916,1,0,1200,729,1,1199,velvet,11122,2019-10-21_16h48.19.752,SurveyExpMetaMem,3.2.3,Win32,60
,,,,,,,,,,,,,,,,,,,,8,1.378000021,8,0.61500001,1,0,1200,154,1,1199,race,11122,2019-10-21_16h48.19.752,SurveyExpMetaMem,3.2.3,Win32,60
,,,,,,,,,,,,,,,,,,,,8,1.701999903,1,0.541999817,1,0,1200,903,1,1199,cancer,11122,2019-10-21_16h48.19.752,SurveyExpMetaMem,3.2.3,Win32,60
,,,,,,,,,,,,,,,,,,,,7,1.726000071,2,0.457000017,1,0,1200,1111,1,1199,bruise,11122,2019-10-21_16h48.19.752,SurveyExpMetaMem,3.2.3,Win32,60
,,,,,,,,,,,,,,,,,,,,8,2.312999964,7,0.575000048,1,0,1200,207,1,1199,erect,11122,2019-10-21_16h48.19.752,SurveyExpMetaMem,3.2.3,Win32,60
,,,,,,,,,,,,,,,,,,,,8,1.517999887,8,0.492000103,1,0,1200,249,1,1199,award,11122,2019-10-21_16h48.19.752,SurveyExpMetaMem,3.2.3,Win32,60
,,,,,,,,,,,,,,,,,,,,7,1.707999945,2,0.946999788,1,0,1200,1092,1,1199,rattlesnake,11122,2019-10-21_16h48.19.752,SurveyExpMetaMem,3.2.3,Win32,60
,,,,,,,,,,,,,,,,,,,,7,2.674999952,1,0.608999729,1,0,1200,1072,1,1199,bothered,11122,2019-10-21_16h48.19.752,SurveyExpMetaMem,3.2.3,Win32,60
,,,,,,,,,,,,,,,,,,,,5,2.868000031,6,0.493999958,1,0,1200,874,1,1199,butterfly,11122,2019-10-21_16h48.19.752,SurveyExpMetaMem,3.2.3,Win32,60
,,,,,,,,,,,,,,,,,,,,7,4.549999952,3,0.272999763,1,0,1200,377,1,1199,complain,11122,2019-10-21_16h48.19.752,SurveyExpMetaMem,3.2.3,Win32,60
,,,,,,,,,,,,,,,,,,,,7,2.913999796,7,0.255999804,1,0,1200,1118,1,1199,frantic,11122,2019-10-21_16h48.19.752,SurveyExpMetaMem,3.2.3,Win32,60
,,,,,,,,,,,,,,,,,,,,4,1.551000118,7,0.372999907,1,0,1200,509,1,1199,ash,11122,2019-10-21_16h48.19.752,SurveyExpMetaMem,3.2.3,Win32,60
,,,,,,,,,,,,,,,,,,,,6,3.391999722,5,0.498999834,1,0,1200,404,1,1199,nuisance,11122,2019-10-21_16h48.19.752,SurveyExpMetaMem,3.2.3,Win32,60
,,,,,,,,,,,,,,,,,,,,8,2.468999863,7,0.320999861,1,0,1200,96,1,1199,joke,11122,2019-10-21_16h48.19.752,SurveyExpMetaMem,3.2.3,Win32,60
,,,,,,,,,,,,,,,,,,,,8,1.623999834,3,0.358999968,1,0,1200,985,1,1199,pollution,11122,2019-10-21_16h48.19.752,SurveyExpMetaMem,3.2.3,Win32,60
,,,,,,,,,,,,,,,,,,,,8,2.842999935,2,0.457999945,1,0,1200,981,1,1199,rage,11122,2019-10-21_16h48.19.752,SurveyExpMetaMem,3.2.3,Win32,60
,,,,,,,,,,,,,,,,,,,,2,2.696000099,7,0.304999828,1,0,1200,139,1,1199,generosity,11122,2019-10-21_16h48.19.752,SurveyExpMetaMem,3.2.3,Win32,60
,,,,,,,,,,,,,,,,,,,,4,2.999999762,9,0.592999935,1,0,1200,142,1,1199,christmas,11122,2019-10-21_16h48.19.752,SurveyExpMetaMem,3.2.3,Win32,60
,,,,,,,,,,,,,,,,,,,,7,2.084000111,7,0.278000116,1,0,1200,255,1,1199,ass,11122,2019-10-21_16h48.19.752,SurveyExpMetaMem,3.2.3,Win32,60
,,,,,,,,,,,,,,,,,,,,5,2.061999798,5,0.244999886,1,0,1200,1123,1,1199,haunt,11122,2019-10-21_16h48.19.752,SurveyExpMetaMem,3.2.3,Win32,60
,,,,,,,,,,,,,,,,,,,,7,3.605000019,2,0.769999743,1,0,1200,1148,1,1199,suspicious,11122,2019-10-21_16h48.19.752,SurveyExpMetaMem,3.2.3,Win32,60
,,,,,,,,,,,,,,,,,,,,3,2.855000019,3,0.551999807,1,0,1200,720,1,1199,stable,11122,2019-10-21_16h48.19.752,SurveyExpMetaMem,3.2.3,Win32,60
,,,,,,,,,,,,,,,,,,,,1,2.989999771,6,1.407000065,1,0,1200,626,1,1199,pan,11122,2019-10-21_16h48.19.752,SurveyExpMetaMem,3.2.3,Win32,60
,,,,,,,,,,,,,,,,,,,,9,4.575999737,2,1.43599987,1,0,1200,987,1,1199,disgusted,11122,2019-10-21_16h48.19.752,SurveyExpMetaMem,3.2.3,Win32,60
,,,,,,,,,,,,,,,,,,,,7,11.01200008,4,0.203999758,1,0,1200,1146,1,1199,bug,11122,2019-10-21_16h48.19.752,SurveyExpMetaMem,3.2.3,Win32,60
,,,,,,,,,,,,,,,,,,,,6,1.698999882,5,0.340999842,1,0,1200,283,1,1199,elated,11122,2019-10-21_16h48.19.752,SurveyExpMetaMem,3.2.3,Win32,60
,,,,,,,,,,,,,,,,,,,,3,2.333999872,8,0.451999903,1,0,1200,840,1,1199,cuisine,11122,2019-10-21_16h48.19.752,SurveyExpMetaMem,3.2.3,Win32,60
,,,,,,,,,,,,,,,,,,,,8,1.958999872,8,0.363999844,1,0,1200,122,1,1199,prince,11122,2019-10-21_16h48.19.752,SurveyExpMetaMem,3.2.3,Win32,60
,,,,,,,,,,,,,,,,,,,,8,2.052999973,2,0.558999777,1,0,1200,362,1,1199,despair,11122,2019-10-21_16h48.19.752,SurveyExpMetaMem,3.2.3,Win32,60
,,,,,,,,,,,,,,,,,,,,7,2.768000126,7,1.255999804,1,0,1200,1039,1,1199,stalk,11122,2019-10-21_16h48.19.752,SurveyExpMetaMem,3.2.3,Win32,60
,,,,,,,,,,,,,,,,,,,,8,1.368999958,3,0.43900013,1,0,1200,537,1,1199,absurd,11122,2019-10-21_16h48.19.752,SurveyExpMetaMem,3.2.3,Win32,60
,,,,,,,,,,,,,,,,,,,,8,2.272000074,3,0.654999971,1,0,1200,1135,1,1199,thirsty,11122,2019-10-21_16h48.19.752,SurveyExpMetaMem,3.2.3,Win32,60
,,,,,,,,,,,,,,,,,,,,6,1.861999989,6,0.336999893,1,0,1200,635,1,1199,sensitive,11122,2019-10-21_16h48.19.752,SurveyExpMetaMem,3.2.3,Win32,60
,,,,,,,,,,,,,,,,,,,,4,2.601999998,6,0.323999882,1,0,1200,500,1,1199,nosey,11122,2019-10-21_16h48.19.752,SurveyExpMetaMem,3.2.3,Win32,60
,,,,,,,,,,,,,,,,,,,,7,1.490999937,3,0.322999954,1,0,1200,180,1,1199,embrace,11122,2019-10-21_16h48.19.752,SurveyExpMetaMem,3.2.3,Win32,60
,,,,,,,,,,,,,,,,,,,,8,1.934999943,5,0.888999939,1,0,1200,1053,1,1199,surgery,11122,2019-10-21_16h48.19.752,SurveyExpMetaMem,3.2.3,Win32,60
,,,,,,,,,,,,,,,,,,,,5,2.088000059,5,0.342000008,1,0,1200,571,1,1199,marrow,11122,2019-10-21_16h48.19.752,SurveyExpMetaMem,3.2.3,Win32,60
,,,,,,,,,,,,,,,,,,,,7,1.666999817,4,0.462000132,1,0,1200,332,1,1199,sewage,11122,2019-10-21_16h48.19.752,SurveyExpMetaMem,3.2.3,Win32,60
,,,,,,,,,,,,,,,,,,,,8,1.521999836,8,0.354999781,1,0,1200,167,1,1199,casino,11122,2019-10-21_16h48.19.752,SurveyExpMetaMem,3.2.3,Win32,60
,,,,,,,,,,,,,,,,,,,,8,2.253999949,4,1.038999796,1,0,1200,1176,1,1199,vampire,11122,2019-10-21_16h48.19.752,SurveyExpMetaMem,3.2.3,Win32,60
,,,,,,,,,,,,,,,,,,,,6,1.467999935,6,0.345000029,1,0,1200,1068,1,1199,riot,11122,2019-10-21_16h48.19.752,SurveyExpMetaMem,3.2.3,Win32,60
,,,,,,,,,,,,,,,,,,,,3,10.24399996,8,4.833999872,1,0,1200,884,1,1199,grateful,11122,2019-10-21_16h48.19.752,SurveyExpMetaMem,3.2.3,Win32,60
,,,,,,,,,,,,,,,,,,,,3,1.700999737,3,0.205999851,1,0,1200,966,1,1199,regretful,11122,2019-10-21_16h48.19.752,SurveyExpMetaMem,3.2.3,Win32,60
,,,,,,,,,,,,,,,,,,,,8,1.275999784,3,0.180999994,1,0,1200,90,1,1199,satisfaction,11122,2019-10-21_16h48.19.752,SurveyExpMetaMem,3.2.3,Win32,60
,,,,,,,,,,,,,,,,,,,,5,2.385999918,5,0.181999922,1,0,1200,279,1,1199,bargain,11122,2019-10-21_16h48.19.752,SurveyExpMetaMem,3.2.3,Win32,60
,,,,,,,,,,,,,,,,,,,,1,3.85199976,1,0.22300005,1,0,1200,926,1,1199,dead,11122,2019-10-21_16h48.19.752,SurveyExpMetaMem,3.2.3,Win32,60
,,,,,,,,,,,,,,,,,,,,7,1.88499999,3,0.555000067,1,0,1200,593,1,1199,errand,11122,2019-10-21_16h48.19.752,SurveyExpMetaMem,3.2.3,Win32,60
,,,,,,,,,,,,,,,,,,,,8,1.494999886,9,0.437999964,1,0,1200,148,1,1199,victory,11122,2019-10-21_16h48.19.752,SurveyExpMetaMem,3.2.3,Win32,60
,,,,,,,,,,,,,,,,,,,,7,1.992000103,7,1.25999999,1,0,1200,854,1,1199,river,11122,2019-10-21_16h48.19.752,SurveyExpMetaMem,3.2.3,Win32,60
,,,,,,,,,,,,,,,,,,,,8,2.120999813,1,0.555000067,1,0,1200,951,1,1199,castrate,11122,2019-10-21_16h48.19.752,SurveyExpMetaMem,3.2.3,Win32,60
,,,,,,,,,,,,,,,,,,,,3,2.566999912,6,0.552999973,1,0,1200,792,1,1199,moral,11122,2019-10-21_16h48.19.752,SurveyExpMetaMem,3.2.3,Win32,60
,,,,,,,,,,,,,,,,,,,,3,2.769999981,2,0.441999912,1,0,1200,515,1,1199,blues,11122,2019-10-21_16h48.19.752,SurveyExpMetaMem,3.2.3,Win32,60
,,,,,,,,,,,,,,,,,,,,5,2.036000013,5,0.387999773,1,0,1200,474,1,1199,weary,11122,2019-10-21_16h48.19.752,SurveyExpMetaMem,3.2.3,Win32,60
,,,,,,,,,,,,,,,,,,,,6,1.991999865,4,0.521999836,1,0,1200,400,1,1199,urine,11122,2019-10-21_16h48.19.752,SurveyExpMetaMem,3.2.3,Win32,60
,,,,,,,,,,,,,,,,,,,,8,2.107000113,2,0.838999987,1,0,1200,974,1,1199,roach,11122,2019-10-21_16h48.19.752,SurveyExpMetaMem,3.2.3,Win32,60
,,,,,,,,,,,,,,,,,,,,7,3.399999857,7,1.170999765,1,0,1200,110,1,1199,animal,11122,2019-10-21_16h48.19.752,SurveyExpMetaMem,3.2.3,Win32,60
,,,,,,,,,,,,,,,,,,,,8,1.674000025,2,0.421999931,1,0,1200,1169,1,1199,enforcement,11122,2019-10-21_16h48.19.752,SurveyExpMetaMem,3.2.3,Win32,60
,,,,,,,,,,,,,,,,,,,,2,1.851999998,6,0.638000011,1,0,1200,369,1,1199,blind,11122,2019-10-21_16h48.19.752,SurveyExpMetaMem,3.2.3,Win32,60
,,,,,,,,,,,,,,,,,,,,8,2.102999926,3,0.49000001,1,0,1200,1174,1,1199,beast,11122,2019-10-21_16h48.19.752,SurveyExpMetaMem,3.2.3,Win32,60
,,,,,,,,,,,,,,,,,,,,1,2.632999897,5,3.269999981,1,0,1200,699,1,1199,leg,11122,2019-10-21_16h48.19.752,SurveyExpMetaMem,3.2.3,Win32,60
,,,,,,,,,,,,,,,,,,,,7,3.765000105,3,0.572000027,1,0,1200,914,1,1199,fail,11122,2019-10-21_16h48.19.752,SurveyExpMetaMem,3.2.3,Win32,60
,,,,,,,,,,,,,,,,,,,,8,1.579999924,6,0.659999847,1,0,1200,972,1,1199,homicide,11122,2019-10-21_16h48.19.752,SurveyExpMetaMem,3.2.3,Win32,60
,,,,,,,,,,,,,,,,,,,,1,1.736999989,6,0.648000002,1,0,1200,604,1,1199,lamp,11122,2019-10-21_16h48.19.752,SurveyExpMetaMem,3.2.3,Win32,60
,,,,,,,,,,,,,,,,,,,,7,2.983999729,7,0.485999823,1,0,1200,136,1,1199,dog,11122,2019-10-21_16h48.19.752,SurveyExpMetaMem,3.2.3,Win32,60
,,,,,,,,,,,,,,,,,,,,8,2.734999895,5,1.003999949,1,0,1200,877,1,1199,bless,11122,2019-10-21_16h48.19.752,SurveyExpMetaMem,3.2.3,Win32,60
,,,,,,,,,,,,,,,,,,,,8,1.517999887,7,1.440999985,1,0,1200,1192,1,1199,startled,11122,2019-10-21_16h48.19.752,SurveyExpMetaMem,3.2.3,Win32,60
,,,,,,,,,,,,,,,,,,,,7,2.785999775,3,0.637999773,1,0,1200,968,1,1199,insult,11122,2019-10-21_16h48.19.752,SurveyExpMetaMem,3.2.3,Win32,60
,,,,,,,,,,,,,,,,,,,,5,2.218999863,7,1.712000132,1,0,1200,740,1,1199,groceries,11122,2019-10-21_16h48.19.752,SurveyExpMetaMem,3.2.3,Win32,60
,,,,,,,,,,,,,,,,,,,,6,2.74000001,7,0.577000141,1,0,1200,75,1,1199,actor,11122,2019-10-21_16h48.19.752,SurveyExpMetaMem,3.2.3,Win32,60
,,,,,,,,,,,,,,,,,,,,7,2.186000109,5,0.538999796,1,0,1200,578,1,1199,govern,11122,2019-10-21_16h48.19.752,SurveyExpMetaMem,3.2.3,Win32,60
,,,,,,,,,,,,,,,,,,,,7,10.10100007,5,0.239999771,1,0,1200,213,1,1199,fair,11122,2019-10-21_16h48.19.752,SurveyExpMetaMem,3.2.3,Win32,60
,,,,,,,,,,,,,,,,,,,,2,2.032999754,7,0.867999792,1,0,1200,678,1,1199,lightbulb,11122,2019-10-21_16h48.19.752,SurveyExpMetaMem,3.2.3,Win32,60
,,,,,,,,,,,,,,,,,,,,6,1.585999966,4,0.453999996,1,0,1200,484,1,1199,leave,11122,2019-10-21_16h48.19.752,SurveyExpMetaMem,3.2.3,Win32,60
,,,,,,,,,,,,,,,,,,,,9,1.454999924,9,0.387999773,1,0,1200,199,1,1199,laughter,11122,2019-10-21_16h48.19.752,SurveyExpMetaMem,3.2.3,Win32,60
,,,,,,,,,,,,,,,,,,,,7,0.437999964,5,1.115999699,1,0,1200,425,1,1199,crutch,11122,2019-10-21_16h48.19.752,SurveyExpMetaMem,3.2.3,Win32,60
,,,,,,,,,,,,,,,,,,,,5,0.354000092,3,2.852999926,1,0,1200,1109,1,1199,germ,11122,2019-10-21_16h48.19.752,SurveyExpMetaMem,3.2.3,Win32,60
,,,,,,,,,,,,,,,,,,,,5,1.900999784,5,0.455999851,1,0,1200,541,1,1199,apathy,11122,2019-10-21_16h48.19.752,SurveyExpMetaMem,3.2.3,Win32,60
,,,,,,,,,,,,,,,,,,,,8,2.748999834,2,0.99000001,1,0,1200,912,1,1199,rabies,11122,2019-10-21_16h48.19.752,SurveyExpMetaMem,3.2.3,Win32,60
,,,,,,,,,,,,,,,,,,,,8,1.355999947,2,0.503000021,1,0,1200,1015,1,1199,frighten,11122,2019-10-21_16h48.19.752,SurveyExpMetaMem,3.2.3,Win32,60
,,,,,,,,,,,,,,,,,,,,2,2.289999962,6,0.642999887,1,0,1200,849,1,1199,blue,11122,2019-10-21_16h48.19.752,SurveyExpMetaMem,3.2.3,Win32,60
,,,,,,,,,,,,,,,,,,,,8,1.518999815,9,0.504999876,1,0,1200,247,1,1199,graduate,11122,2019-10-21_16h48.19.752,SurveyExpMetaMem,3.2.3,Win32,60
,,,,,,,,,,,,,,,,,,,,7,1.410000086,1,0.960999966,1,0,1200,953,1,1199,victim,11122,2019-10-21_16h48.19.752,SurveyExpMetaMem,3.2.3,Win32,60
,,,,,,,,,,,,,,,,,,,,7,1.352999926,1,0.571999788,1,0,1200,1084,1,1199,uneasy,11122,2019-10-21_16h48.19.752,SurveyExpMetaMem,3.2.3,Win32,60
,,,,,,,,,,,,,,,,,,,,9,1.937999964,4,3.118999958,1,0,1200,1151,1,1199,drama,11122,2019-10-21_16h48.19.752,SurveyExpMetaMem,3.2.3,Win32,60
,,,,,,,,,,,,,,,,,,,,8,1.534999847,2,0.359999895,1,0,1200,1149,1,1199,fight,11122,2019-10-21_16h48.19.752,SurveyExpMetaMem,3.2.3,Win32,60
,,,,,,,,,,,,,,,,,,,,6,2.718999863,6,0.342000008,1,0,1200,1132,1,1199,anarchy,11122,2019-10-21_16h48.19.752,SurveyExpMetaMem,3.2.3,Win32,60
,,,,,,,,,,,,,,,,,,,,3,2.022999763,7,0.554999828,1,0,1200,709,1,1199,ancestor,11122,2019-10-21_16h48.19.752,SurveyExpMetaMem,3.2.3,Win32,60
,,,,,,,,,,,,,,,,,,,,8,1.444999933,2,0.578999996,1,0,1200,936,1,1199,assault,11122,2019-10-21_16h48.19.752,SurveyExpMetaMem,3.2.3,Win32,60
,,,,,,,,,,,,,,,,,,,,2,2.187000036,8,0.728999853,1,0,1200,238,1,1199,sunshine,11122,2019-10-21_16h48.19.752,SurveyExpMetaMem,3.2.3,Win32,60
,,,,,,,,,,,,,,,,,,,,5,1.609999895,7,0.553999901,1,0,1200,804,1,1199,peach,11122,2019-10-21_16h48.19.752,SurveyExpMetaMem,3.2.3,Win32,60
,,,,,,,,,,,,,,,,,,,,4,3.235000134,3,1.763999939,1,0,1200,596,1,1199,factory,11122,2019-10-21_16h48.19.752,SurveyExpMetaMem,3.2.3,Win32,60
,,,,,,,,,,,,,,,,,,,,5,1.835999727,5,0.320999861,1,0,1200,417,1,1199,dummy,11122,2019-10-21_16h48.19.752,SurveyExpMetaMem,3.2.3,Win32,60
,,,,,,,,,,,,,,,,,,,,2,4.236999989,1,0.407999992,1,0,1200,975,1,1199,insecure,11122,2019-10-21_16h48.19.752,SurveyExpMetaMem,3.2.3,Win32,60
,,,,,,,,,,,,,,,,,,,,8,1.568999767,2,0.444999933,1,0,1200,1037,1,1199,scared,11122,2019-10-21_16h48.19.752,SurveyExpMetaMem,3.2.3,Win32,60
,,,,,,,,,,,,,,,,,,,,8,21.53699994,8,0.625,1,0,1200,152,1,1199,hire,11122,2019-10-21_16h48.19.752,SurveyExpMetaMem,3.2.3,Win32,60
,,,,,,,,,,,,,,,,,,,,8,1.636999846,1,0.522000074,1,0,1200,904,1,1199,murderer,11122,2019-10-21_16h48.19.752,SurveyExpMetaMem,3.2.3,Win32,60
,,,,,,,,,,,,,,,,,,,,7,1.874999762,8,0.769999981,1,0,1200,236,1,1199,amaze,11122,2019-10-21_16h48.19.752,SurveyExpMetaMem,3.2.3,Win32,60
,,,,,,,,,,,,,,,,,,,,7,1.812999964,6,0.271999836,1,0,1200,892,1,1199,untroubled,11122,2019-10-21_16h48.19.752,SurveyExpMetaMem,3.2.3,Win32,60
,,,,,,,,,,,,,,,,,,,,3,2.249999762,7,0.710999966,1,0,1200,602,1,1199,vegetable,11122,2019-10-21_16h48.19.752,SurveyExpMetaMem,3.2.3,Win32,60
,,,,,,,,,,,,,,,,,,,,3,3.25,3,0.357999802,1,0,1200,420,1,1199,smoke,11122,2019-10-21_16h48.19.752,SurveyExpMetaMem,3.2.3,Win32,60
,,,,,,,,,,,,,,,,,,,,6,1.315000057,6,0.387999773,1,0,1200,651,1,1199,bathroom,11122,2019-10-21_16h48.19.752,SurveyExpMetaMem,3.2.3,Win32,60
,,,,,,,,,,,,,,,,,,,,2,3.14199996,8,0.593999863,1,0,1200,737,1,1199,lamb,11122,2019-10-21_16h48.19.752,SurveyExpMetaMem,3.2.3,Win32,60
,,,,,,,,,,,,,,,,,,,,5,1.605000019,3,1.875,1,0,1200,1197,1,1199,command,11122,2019-10-21_16h48.19.752,SurveyExpMetaMem,3.2.3,Win32,60
,,,,,,,,,,,,,,,,,,,,9,1.417999983,3,0.870999813,1,0,1200,1047,1,1199,psycho,11122,2019-10-21_16h48.19.752,SurveyExpMetaMem,3.2.3,Win32,60
,,,,,,,,,,,,,,,,,,,,2,1.805999994,8,1.212000132,1,0,1200,1097,1,1199,bees,11122,2019-10-21_16h48.19.752,SurveyExpMetaMem,3.2.3,Win32,60
,,,,,,,,,,,,,,,,,,,,6,1.453000069,7,1.039000034,1,0,1200,816,1,1199,hippotamus,11122,2019-10-21_16h48.19.752,SurveyExpMetaMem,3.2.3,Win32,60
,,,,,,,,,,,,,,,,,,,,2,4.040999889,6,0.504999876,1,0,1200,220,1,1199,reef,11122,2019-10-21_16h48.19.752,SurveyExpMetaMem,3.2.3,Win32,60
,,,,,,,,,,,,,,,,,,,,4,2.138000011,3,0.599999905,1,0,1200,1117,1,1199,court,11122,2019-10-21_16h48.19.752,SurveyExpMetaMem,3.2.3,Win32,60
,,,,,,,,,,,,,,,,,,,,7,1.353999853,8,0.628999949,1,0,1200,93,1,1199,smiling,11122,2019-10-21_16h48.19.752,SurveyExpMetaMem,3.2.3,Win32,60
,,,,,,,,,,,,,,,,,,,,8,1.54399991,3,0.742999792,1,0,1200,1165,1,1199,revolt,11122,2019-10-21_16h48.19.752,SurveyExpMetaMem,3.2.3,Win32,60
,,,,,,,,,,,,,,,,,,,,7,2.501999855,7,1.237999916,1,0,1200,10,1,1199,cheerleader,11122,2019-10-21_16h48.19.752,SurveyExpMetaMem,3.2.3,Win32,60
,,,,,,,,,,,,,,,,,,,,8,1.176999807,1,0.671000004,1,0,1200,317,1,1199,cry,11122,2019-10-21_16h48.19.752,SurveyExpMetaMem,3.2.3,Win32,60
,,,,,,,,,,,,,,,,,,,,5,1.704999924,1,0.621000051,1,0,1200,354,1,1199,cowardice,11122,2019-10-21_16h48.19.752,SurveyExpMetaMem,3.2.3,Win32,60
,,,,,,,,,,,,,,,,,,,,7,1.355000019,8,0.571999788,1,0,1200,140,1,1199,riches,11122,2019-10-21_16h48.19.752,SurveyExpMetaMem,3.2.3,Win32,60
,,,,,,,,,,,,,,,,,,,,1,1.434999943,3,0.704999924,1,0,1200,488,1,1199,rusty,11122,2019-10-21_16h48.19.752,SurveyExpMetaMem,3.2.3,Win32,60
,,,,,,,,,,,,,,,,,,,,1,2.826999903,3,0.926999807,1,0,1200,648,1,1199,beads,11122,2019-10-21_16h48.19.752,SurveyExpMetaMem,3.2.3,Win32,60
,,,,,,,,,,,,,,,,,,,,9,1.74000001,7,0.838000059,1,0,1200,253,1,1199,soldier,11122,2019-10-21_16h48.19.752,SurveyExpMetaMem,3.2.3,Win32,60
,,,,,,,,,,,,,,,,,,,,3,1.526000023,9,0.562000036,1,0,1200,889,1,1199,wise,11122,2019-10-21_16h48.19.752,SurveyExpMetaMem,3.2.3,Win32,60
,,,,,,,,,,,,,,,,,,,,3,1.929000139,7,0.870000124,1,0,1200,886,1,1199,sunflower,11122,2019-10-21_16h48.19.752,SurveyExpMetaMem,3.2.3,Win32,60
,,,,,,,,,,,,,,,,,,,,2,22.83999991,2,0.446000099,1,0,1200,1173,1,1199,lurk,11122,2019-10-21_16h48.19.752,SurveyExpMetaMem,3.2.3,Win32,60
,,,,,,,,,,,,,,,,,,,,2,1.548000097,8,0.389999866,1,0,1200,237,1,1199,beautiful,11122,2019-10-21_16h48.19.752,SurveyExpMetaMem,3.2.3,Win32,60
,,,,,,,,,,,,,,,,,,,,2,3.151999712,3,0.805999994,1,0,1200,556,1,1199,allege,11122,2019-10-21_16h48.19.752,SurveyExpMetaMem,3.2.3,Win32,60
,,,,,,,,,,,,,,,,,,,,3,1.207999945,7,0.455999851,1,0,1200,266,1,1199,juice,11122,2019-10-21_16h48.19.752,SurveyExpMetaMem,3.2.3,Win32,60
,,,,,,,,,,,,,,,,,,,,9,1.351000071,3,0.424999952,1,0,1200,156,1,1199,gym,11122,2019-10-21_16h48.19.752,SurveyExpMetaMem,3.2.3,Win32,60
,,,,,,,,,,,,,,,,,,,,7,1.354999781,4,0.355999947,1,0,1200,673,1,1199,bedspread,11122,2019-10-21_16h48.19.752,SurveyExpMetaMem,3.2.3,Win32,60
,,,,,,,,,,,,,,,,,,,,8,1.373999834,4,0.405999899,1,0,1200,376,1,1199,incompetent,11122,2019-10-21_16h48.19.752,SurveyExpMetaMem,3.2.3,Win32,60
,,,,,,,,,,,,,,,,,,,,9,1.426999807,8,4.654999971,1,0,1200,53,1,1199,lotion,11122,2019-10-21_16h48.19.752,SurveyExpMetaMem,3.2.3,Win32,60
,,,,,,,,,,,,,,,,,,,,8,1.144999981,8,1.102999926,1,0,1200,243,1,1199,fame,11122,2019-10-21_16h48.19.752,SurveyExpMetaMem,3.2.3,Win32,60
,,,,,,,,,,,,,,,,,,,,3,1.835999966,8,0.537999868,1,0,1200,133,1,1199,prosperous,11122,2019-10-21_16h48.19.752,SurveyExpMetaMem,3.2.3,Win32,60
,,,,,,,,,,,,,,,,,,,,8,1.65199995,3,0.339999914,1,0,1200,1005,1,1199,pissed,11122,2019-10-21_16h48.19.752,SurveyExpMetaMem,3.2.3,Win32,60
,,,,,,,,,,,,,,,,,,,,2,1.493999958,3,0.575999975,1,0,1200,684,1,1199,send,11122,2019-10-21_16h48.19.752,SurveyExpMetaMem,3.2.3,Win32,60
,,,,,,,,,,,,,,,,,,,,8,12.66899991,7,1.257999897,1,0,1200,525,1,1199,stagnant,11122,2019-10-21_16h48.19.752,SurveyExpMetaMem,3.2.3,Win32,60
,,,,,,,,,,,,,,,,,,,,8,23.93799996,3,0.520999908,1,0,1200,980,1,1199,liar,11122,2019-10-21_16h48.19.752,SurveyExpMetaMem,3.2.3,Win32,60
,,,,,,,,,,,,,,,,,,,,4,3.407999992,7,0.330999851,1,0,1200,872,1,1199,dignified,11122,2019-10-21_16h48.19.752,SurveyExpMetaMem,3.2.3,Win32,60
,,,,,,,,,,,,,,,,,,,,3,3.114999771,9,1.135999918,1,0,1200,98,1,1199,affection,11122,2019-10-21_16h48.19.752,SurveyExpMetaMem,3.2.3,Win32,60
,,,,,,,,,,,,,,,,,,,,3,2.071000099,8,1.137000084,1,0,1200,209,1,1199,husband,11122,2019-10-21_16h48.19.752,SurveyExpMetaMem,3.2.3,Win32,60
,,,,,,,,,,,,,,,,,,,,7,2.428999901,7,0.826999903,1,0,1200,879,1,1199,bird,11122,2019-10-21_16h48.19.752,SurveyExpMetaMem,3.2.3,Win32,60
,,,,,,,,,,,,,,,,,,,,3,1.983999968,8,0.523999929,1,0,1200,270,1,1199,toddler,11122,2019-10-21_16h48.19.752,SurveyExpMetaMem,3.2.3,Win32,60
,,,,,,,,,,,,,,,,,,,,9,1.355999947,3,0.490999937,1,0,1200,251,1,1199,meteor,11122,2019-10-21_16h48.19.752,SurveyExpMetaMem,3.2.3,Win32,60
,,,,,,,,,,,,,,,,,,,,9,1.286999941,2,0.695999861,1,0,1200,922,1,1199,nightmare,11122,2019-10-21_16h48.19.752,SurveyExpMetaMem,3.2.3,Win32,60
,,,,,,,,,,,,,,,,,,,,8,1.286999941,3,0.526000023,1,0,1200,1198,1,1199,lightning,11122,2019-10-21_16h48.19.752,SurveyExpMetaMem,3.2.3,Win32,60
,,,,,,,,,,,,,,,,,,,,3,1.90199995,4,0.621999979,1,0,1200,386,1,1199,pale,11122,2019-10-21_16h48.19.752,SurveyExpMetaMem,3.2.3,Win32,60
,,,,,,,,,,,,,,,,,,,,5,2.037999868,5,0.455999851,1,0,1200,605,1,1199,year,11122,2019-10-21_16h48.19.752,SurveyExpMetaMem,3.2.3,Win32,60
,,,,,,,,,,,,,,,,,,,,8,1.988999844,8,0.672999859,1,0,1200,1170,1,1199,police,11122,2019-10-21_16h48.19.752,SurveyExpMetaMem,3.2.3,Win32,60
,,,,,,,,,,,,,,,,,,,,6,1.233999968,3,1.292999983,1,0,1200,598,1,1199,feet,11122,2019-10-21_16h48.19.752,SurveyExpMetaMem,3.2.3,Win32,60
,,,,,,,,,,,,,,,,,,,,8,1.227999926,3,0.638999939,1,0,1200,378,1,1199,dislike,11122,2019-10-21_16h48.19.752,SurveyExpMetaMem,3.2.3,Win32,60
,,,,,,,,,,,,,,,,,,,,9,1.55099988,4,1.029999971,1,0,1200,1181,1,1199,blade,11122,2019-10-21_16h48.19.752,SurveyExpMetaMem,3.2.3,Win32,60
,,,,,,,,,,,,,,,,,,,,7,1.535000086,7,0.972000122,1,0,1200,1160,1,1199,enlist,11122,2019-10-21_16h48.19.752,SurveyExpMetaMem,3.2.3,Win32,60
,,,,,,,,,,,,,,,,,,,,9,1.66899991,6,1.835999966,1,0,1200,1184,1,1199,reckless,11122,2019-10-21_16h48.19.752,SurveyExpMetaMem,3.2.3,Win32,60
,,,,,,,,,,,,,,,,,,,,5,1.502999783,5,0.457999706,1,0,1200,611,1,1199,herring,11122,2019-10-21_16h48.19.752,SurveyExpMetaMem,3.2.3,Win32,60
,,,,,,,,,,,,,,,,,,,,7,1.736000061,3,0.388000011,1,0,1200,313,1,1199,rotten,11122,2019-10-21_16h48.19.752,SurveyExpMetaMem,3.2.3,Win32,60
,,,,,,,,,,,,,,,,,,,,9,1.29399991,6,2.252999783,1,0,1200,1099,1,1199,fire,11122,2019-10-21_16h48.19.752,SurveyExpMetaMem,3.2.3,Win32,60
,,,,,,,,,,,,,,,,,,,,2,1.990999937,2,0.378000021,1,0,1200,416,1,1199,boring,11122,2019-10-21_16h48.19.752,SurveyExpMetaMem,3.2.3,Win32,60
,,,,,,,,,,,,,,,,,,,,4,2.94299984,6,0.643999815,1,0,1200,738,1,1199,horse,11122,2019-10-21_16h48.19.752,SurveyExpMetaMem,3.2.3,Win32,60
,,,,,,,,,,,,,,,,,,,,8,26.51499987,3,0.488999844,1,0,1200,942,1,1199,aggravation,11122,2019-10-21_16h48.19.752,SurveyExpMetaMem,3.2.3,Win32,60
,,,,,,,,,,,,,,,,,,,,7,1.731999874,3,0.652999878,1,0,1200,1055,1,1199,alarm,11122,2019-10-21_16h48.19.752,SurveyExpMetaMem,3.2.3,Win32,60
,,,,,,,,,,,,,,,,,,,,7,1.454999924,3,0.523000002,1,0,1200,144,1,1199,aroused,11122,2019-10-21_16h48.19.752,SurveyExpMetaMem,3.2.3,Win32,60
,,,,,,,,,,,,,,,,,,,,3,1.105000019,3,0.4599998,1,0,1200,655,1,1199,name,11122,2019-10-21_16h48.19.752,SurveyExpMetaMem,3.2.3,Win32,60
,,,,,,,,,,,,,,,,,,,,3,1.343999863,5,1.136999846,1,0,1200,312,1,1199,stench,11122,2019-10-21_16h48.19.752,SurveyExpMetaMem,3.2.3,Win32,60
,,,,,,,,,,,,,,,,,,,,3,2.384000063,7,0.530999899,1,0,1200,107,1,1199,sandwich,11122,2019-10-21_16h48.19.752,SurveyExpMetaMem,3.2.3,Win32,60
,,,,,,,,,,,,,,,,,,,,6,1.855000019,6,0.343999863,1,0,1200,819,1,1199,sheep,11122,2019-10-21_16h48.19.752,SurveyExpMetaMem,3.2.3,Win32,60
,,,,,,,,,,,,,,,,,,,,7,3.850999832,8,0.592999935,1,0,1200,158,1,1199,engage,11122,2019-10-21_16h48.19.752,SurveyExpMetaMem,3.2.3,Win32,60
,,,,,,,,,,,,,,,,,,,,6,1.434999943,6,0.382999897,1,0,1200,969,1,1199,whore,11122,2019-10-21_16h48.19.752,SurveyExpMetaMem,3.2.3,Win32,60
,,,,,,,,,,,,,,,,,,,,7,1.49000001,3,0.388999939,1,0,1200,1137,1,1199,knife,11122,2019-10-21_16h48.19.752,SurveyExpMetaMem,3.2.3,Win32,60
,,,,,,,,,,,,,,,,,,,,3,0.420999765,3,1.221999884,1,0,1200,43,1,1199,diamond,11122,2019-10-21_16h48.19.752,SurveyExpMetaMem,3.2.3,Win32,60
,,,,,,,,,,,,,,,,,,,,7,3.916999817,2,0.271999836,1,0,1200,960,1,1199,irritated,11122,2019-10-21_16h48.19.752,SurveyExpMetaMem,3.2.3,Win32,60
,,,,,,,,,,,,,,,,,,,,6,1.24000001,6,0.243999958,1,0,1200,128,1,1199,supper,11122,2019-10-21_16h48.19.752,SurveyExpMetaMem,3.2.3,Win32,60
,,,,,,,,,,,,,,,,,,,,8,0.819999933,3,0.338999748,1,0,1200,311,1,1199,discomfort,11122,2019-10-21_16h48.19.752,SurveyExpMetaMem,3.2.3,Win32,60
,,,,,,,,,,,,,,,,,,,,3,1.65199995,5,0.893999815,1,0,1200,459,1,1199,heavy,11122,2019-10-21_16h48.19.752,SurveyExpMetaMem,3.2.3,Win32,60
,,,,,,,,,,,,,,,,,,,,7,1.169999838,5,0.523999929,1,0,1200,869,1,1199,assure,11122,2019-10-21_16h48.19.752,SurveyExpMetaMem,3.2.3,Win32,60
,,,,,,,,,,,,,,,,,,,,4,1.66899991,4,0.521000147,1,0,1200,392,1,1199,moody,11122,2019-10-21_16h48.19.752,SurveyExpMetaMem,3.2.3,Win32,60
,,,,,,,,,,,,,,,,,,,,6,1.879999876,6,0.436999798,1,0,1200,652,1,1199,tend,11122,2019-10-21_16h48.19.752,SurveyExpMetaMem,3.2.3,Win32,60
,,,,,,,,,,,,,,,,,,,,5,0.572000027,7,3.085000038,1,0,1200,757,1,1199,sentiment,11122,2019-10-21_16h48.19.752,SurveyExpMetaMem,3.2.3,Win32,60
,,,,,,,,,,,,,,,,,,,,2,1.940999985,8,0.760999918,1,0,1200,820,1,1199,oxygen,11122,2019-10-21_16h48.19.752,SurveyExpMetaMem,3.2.3,Win32,60
,,,,,,,,,,,,,,,,,,,,7,2.75399971,7,0.355000019,1,0,1200,81,1,1199,best,11122,2019-10-21_16h48.19.752,SurveyExpMetaMem,3.2.3,Win32,60
,,,,,,,,,,,,,,,,,,,,8,1.607999802,8,0.508999825,1,0,1200,258,1,1199,children,11122,2019-10-21_16h48.19.752,SurveyExpMetaMem,3.2.3,Win32,60
,,,,,,,,,,,,,,,,,,,,3,1.852999926,9,0.389999866,1,0,1200,832,1,1199,candy,11122,2019-10-21_16h48.19.752,SurveyExpMetaMem,3.2.3,Win32,60
,,,,,,,,,,,,,,,,,,,,2,3.247999907,2,0.354000092,1,0,1200,318,1,1199,disappointment,11122,2019-10-21_16h48.19.752,SurveyExpMetaMem,3.2.3,Win32,60
,,,,,,,,,,,,,,,,,,,,8,2.103999853,3,0.438999891,1,0,1200,1143,1,1199,arrogant,11122,2019-10-21_16h48.19.752,SurveyExpMetaMem,3.2.3,Win32,60
,,,,,,,,,,,,,,,,,,,,9,1.411000013,7,0.657999992,1,0,1200,117,1,1199,powerful,11122,2019-10-21_16h48.19.752,SurveyExpMetaMem,3.2.3,Win32,60
,,,,,,,,,,,,,,,,,,,,7,1.820999861,3,1.242999792,1,0,1200,1189,1,1199,lava,11122,2019-10-21_16h48.19.752,SurveyExpMetaMem,3.2.3,Win32,60
,,,,,,,,,,,,,,,,,,,,7,1.828999758,8,0.419999838,1,0,1200,205,1,1199,outspoken,11122,2019-10-21_16h48.19.752,SurveyExpMetaMem,3.2.3,Win32,60
,,,,,,,,,,,,,,,,,,,,7,4.349999905,7,0.29399991,1,0,1200,230,1,1199,eager,11122,2019-10-21_16h48.19.752,SurveyExpMetaMem,3.2.3,Win32,60
,,,,,,,,,,,,,,,,,,,,3,2.48699975,7,0.255999804,1,0,1200,870,1,1199,safe,11122,2019-10-21_16h48.19.752,SurveyExpMetaMem,3.2.3,Win32,60
,,,,,,,,,,,,,,,,,,,,4,2.187999964,8,1.003999949,1,0,1200,745,1,1199,inform,11122,2019-10-21_16h48.19.752,SurveyExpMetaMem,3.2.3,Win32,60
,,,,,,,,,,,,,,,,,,,,8,1.703999996,8,0.307999849,1,0,1200,196,1,1199,smile,11122,2019-10-21_16h48.19.752,SurveyExpMetaMem,3.2.3,Win32,60
,,,,,,,,,,,,,,,,,,,,5,3.733999968,5,0.755999804,1,0,1200,51,1,1199,body,11122,2019-10-21_16h48.19.752,SurveyExpMetaMem,3.2.3,Win32,60
,,,,,,,,,,,,,,,,,,,,3,2.250999928,2,0.638999939,1,0,1200,1098,1,1199,confused,11122,2019-10-21_16h48.19.752,SurveyExpMetaMem,3.2.3,Win32,60
,,,,,,,,,,,,,,,,,,,,8,1.8349998,2,0.337999821,1,0,1200,988,1,1199,deserter,11122,2019-10-21_16h48.19.752,SurveyExpMetaMem,3.2.3,Win32,60
,,,,,,,,,,,,,,,,,,,,4,17.13999987,7,1.177999973,1,0,1200,754,1,1199,reflection,11122,2019-10-21_16h48.19.752,SurveyExpMetaMem,3.2.3,Win32,60
,,,,,,,,,,,,,,,,,,,,4,1.367999792,7,1.092000008,1,0,1200,18,1,1199,mail,11122,2019-10-21_16h48.19.752,SurveyExpMetaMem,3.2.3,Win32,60
,,,,,,,,,,,,,,,,,,,,8,1.291999817,8,1.893999815,1,0,1200,1152,1,1199,scream,11122,2019-10-21_16h48.19.752,SurveyExpMetaMem,3.2.3,Win32,60
,,,,,,,,,,,,,,,,,,,,2,29.39499998,4,0.261999846,1,0,1200,552,1,1199,shadow,11122,2019-10-21_16h48.19.752,SurveyExpMetaMem,3.2.3,Win32,60
,,,,,,,,,,,,,,,,,,,,5,5.236000061,9,0.61899972,1,0,1200,127,1,1199,glamorous,11122,2019-10-21_16h48.19.752,SurveyExpMetaMem,3.2.3,Win32,60
,,,,,,,,,,,,,,,,,,,,9,3.118999958,2,0.22300005,1,0,1200,303,1,1199,death,11122,2019-10-21_16h48.19.752,SurveyExpMetaMem,3.2.3,Win32,60
,,,,,,,,,,,,,,,,,,,,6,1.236999989,6,0.282000065,1,0,1200,778,1,1199,adorn,11122,2019-10-21_16h48.19.752,SurveyExpMetaMem,3.2.3,Win32,60
,,,,,,,,,,,,,,,,,,,,8,1.036000013,7,0.779999733,1,0,1200,15,1,1199,curiosity,11122,2019-10-21_16h48.19.752,SurveyExpMetaMem,3.2.3,Win32,60
,,,,,,,,,,,,,,,,,,,,7,1.714999914,8,0.291999817,1,0,1200,256,1,1199,galaxy,11122,2019-10-21_16h48.19.752,SurveyExpMetaMem,3.2.3,Win32,60
,,,,,,,,,,,,,,,,,,,,3,1.238999844,6,1.020999908,1,0,1200,610,1,1199,miniature,11122,2019-10-21_16h48.19.752,SurveyExpMetaMem,3.2.3,Win32,60
,,,,,,,,,,,,,,,,,,,,4,1.471999884,4,0.322999954,1,0,1200,813,1,1199,walking,11122,2019-10-21_16h48.19.752,SurveyExpMetaMem,3.2.3,Win32,60
,,,,,,,,,,,,,,,,,,,,5,1.485999823,5,0.262000084,1,0,1200,498,1,1199,alimony,11122,2019-10-21_16h48.19.752,SurveyExpMetaMem,3.2.3,Win32,60
,,,,,,,,,,,,,,,,,,,,3,1.335000038,2,0.687000036,1,0,1200,438,1,1199,dull,11122,2019-10-21_16h48.19.752,SurveyExpMetaMem,3.2.3,Win32,60
,,,,,,,,,,,,,,,,,,,,7,1.938999891,3,0.338999748,1,0,1200,1065,1,1199,slap,11122,2019-10-21_16h48.19.752,SurveyExpMetaMem,3.2.3,Win32,60
,,,,,,,,,,,,,,,,,,,,8,1.137000084,3,0.421999931,1,0,1200,1128,1,1199,fighting,11122,2019-10-21_16h48.19.752,SurveyExpMetaMem,3.2.3,Win32,60
,,,,,,,,,,,,,,,,,,,,7,1.058000088,3,0.427999973,1,0,1200,1059,1,1199,harsh,11122,2019-10-21_16h48.19.752,SurveyExpMetaMem,3.2.3,Win32,60
,,,,,,,,,,,,,,,,,,,,4,1.101999998,2,0.421000004,1,0,1200,590,1,1199,stool,11122,2019-10-21_16h48.19.752,SurveyExpMetaMem,3.2.3,Win32,60
,,,,,,,,,,,,,,,,,,,,6,1.282000065,5,0.519999743,1,0,1200,809,1,1199,boy,11122,2019-10-21_16h48.19.752,SurveyExpMetaMem,3.2.3,Win32,60
,,,,,,,,,,,,,,,,,,,,7,1.019999743,3,1.637000084,1,0,1200,477,1,1199,separate,11122,2019-10-21_16h48.19.752,SurveyExpMetaMem,3.2.3,Win32,60
,,,,,,,,,,,,,,,,,,,,9,1.338000059,2,0.495000124,1,0,1200,1094,1,1199,disruptive,11122,2019-10-21_16h48.19.752,SurveyExpMetaMem,3.2.3,Win32,60
,,,,,,,,,,,,,,,,,,,,7,1.235999823,7,3.876999855,1,0,1200,782,1,1199,open,11122,2019-10-21_16h48.19.752,SurveyExpMetaMem,3.2.3,Win32,60
,,,,,,,,,,,,,,,,,,,,8,1.536999941,8,1.873999834,1,0,1200,30,1,1199,impressed,11122,2019-10-21_16h48.19.752,SurveyExpMetaMem,3.2.3,Win32,60
,,,,,,,,,,,,,,,,,,,,6,4.302000046,6,0.320999861,1,0,1200,455,1,1199,chubby,11122,2019-10-21_16h48.19.752,SurveyExpMetaMem,3.2.3,Win32,60
,,,,,,,,,,,,,,,,,,,,7,1.200999975,7,1.023000002,1,0,1200,68,1,1199,perfect,11122,2019-10-21_16h48.19.752,SurveyExpMetaMem,3.2.3,Win32,60
,,,,,,,,,,,,,,,,,,,,8,1.666000128,3,1.165999889,1,0,1200,798,1,1199,crystal,11122,2019-10-21_16h48.19.752,SurveyExpMetaMem,3.2.3,Win32,60
,,,,,,,,,,,,,,,,,,,,3,1.269999981,5,0.798000097,1,0,1200,385,1,1199,tiresome,11122,2019-10-21_16h48.19.752,SurveyExpMetaMem,3.2.3,Win32,60
,,,,,,,,,,,,,,,,,,,,9,1.786999941,3,0.421999931,1,0,1200,558,1,1199,punk,11122,2019-10-21_16h48.19.752,SurveyExpMetaMem,3.2.3,Win32,60
,,,,,,,,,,,,,,,,,,,,7,3.650000095,9,1.122999907,1,0,1200,294,1,1199,confident,11122,2019-10-21_16h48.19.752,SurveyExpMetaMem,3.2.3,Win32,60
,,,,,,,,,,,,,,,,,,,,5,1.318999767,5,0.290999889,1,0,1200,466,1,1199,gnaw,11122,2019-10-21_16h48.19.752,SurveyExpMetaMem,3.2.3,Win32,60
,,,,,,,,,,,,,,,,,,,,8,1.292000055,3,0.340999842,1,0,1200,1052,1,1199,angry,11122,2019-10-21_16h48.19.752,SurveyExpMetaMem,3.2.3,Win32,60
,,,,,,,,,,,,,,,,,,,,5,1.986999989,3,0.621000051,1,0,1200,1126,1,1199,offensive,11122,2019-10-21_16h48.19.752,SurveyExpMetaMem,3.2.3,Win32,60
,,,,,,,,,,,,,,,,,,,,6,1.93599987,5,0.421999693,1,0,1200,625,1,1199,hat,11122,2019-10-21_16h48.19.752,SurveyExpMetaMem,3.2.3,Win32,60
,,,,,,,,,,,,,,,,,,,,1,7.030999899,1,0.294999838,1,0,1200,772,1,1199,ornament,11122,2019-10-21_16h48.19.752,SurveyExpMetaMem,3.2.3,Win32,60
,,,,,,,,,,,,,,,,,,,,1,3.082999945,1,2.552999735,1,0,1200,310,1,1199,lonely,11122,2019-10-21_16h48.19.752,SurveyExpMetaMem,3.2.3,Win32,60
,,,,,,,,,,,,,,,,,,,,8,1.541999817,8,1.104999781,1,0,1200,150,1,1199,vodka,11122,2019-10-21_16h48.19.752,SurveyExpMetaMem,3.2.3,Win32,60
,,,,,,,,,,,,,,,,,,,,8,1.816999912,3,0.470999956,1,0,1200,1051,1,1199,insane,11122,2019-10-21_16h48.19.752,SurveyExpMetaMem,3.2.3,Win32,60
,,,,,,,,,,,,,,,,,,,,2,1.720999718,3,0.454999924,1,0,1200,357,1,1199,whine,11122,2019-10-21_16h48.19.752,SurveyExpMetaMem,3.2.3,Win32,60
,,,,,,,,,,,,,,,,,,,,3,1.526000023,2,0.506000042,1,0,1200,574,1,1199,distracted,11122,2019-10-21_16h48.19.752,SurveyExpMetaMem,3.2.3,Win32,60
,,,,,,,,,,,,,,,,,,,,8,1.707000017,8,0.843999863,1,0,1200,67,1,1199,penthouse,11122,2019-10-21_16h48.19.752,SurveyExpMetaMem,3.2.3,Win32,60
,,,,,,,,,,,,,,,,,,,,7,3.749999762,4,1.223999977,1,0,1200,419,1,1199,immature,11122,2019-10-21_16h48.19.752,SurveyExpMetaMem,3.2.3,Win32,60
,,,,,,,,,,,,,,,,,,,,8,4.95600009,8,0.364000082,1,0,1200,162,1,1199,royalty,11122,2019-10-21_16h48.19.752,SurveyExpMetaMem,3.2.3,Win32,60
,,,,,,,,,,,,,,,,,,,,4,1.672999859,8,0.40899992,1,0,1200,893,1,1199,nature,11122,2019-10-21_16h48.19.752,SurveyExpMetaMem,3.2.3,Win32,60
,,,,,,,,,,,,,,,,,,,,5,1.56799984,5,0.361000061,1,0,1200,763,1,1199,vegetables,11122,2019-10-21_16h48.19.752,SurveyExpMetaMem,3.2.3,Win32,60
,,,,,,,,,,,,,,,,,,,,8,2.285000086,7,1.18900013,1,0,1200,59,1,1199,sports,11122,2019-10-21_16h48.19.752,SurveyExpMetaMem,3.2.3,Win32,60
,,,,,,,,,,,,,,,,,,,,3,1.632999897,4,1.004999876,1,0,1200,492,1,1199,naive,11122,2019-10-21_16h48.19.752,SurveyExpMetaMem,3.2.3,Win32,60
,,,,,,,,,,,,,,,,,,,,5,1.334000111,5,0.410999775,1,0,1200,645,1,1199,telescope,11122,2019-10-21_16h48.19.752,SurveyExpMetaMem,3.2.3,Win32,60
,,,,,,,,,,,,,,,,,,,,8,3.56799984,8,0.960999966,1,0,1200,282,1,1199,luck,11122,2019-10-21_16h48.19.752,SurveyExpMetaMem,3.2.3,Win32,60
,,,,,,,,,,,,,,,,,,,,8,3.066999912,7,0.554999828,1,0,1200,240,1,1199,giggles,11122,2019-10-21_16h48.19.752,SurveyExpMetaMem,3.2.3,Win32,60
,,,,,,,,,,,,,,,,,,,,4,3.618000031,4,1.020999908,1,0,1200,627,1,1199,introductory,11122,2019-10-21_16h48.19.752,SurveyExpMetaMem,3.2.3,Win32,60
,,,,,,,,,,,,,,,,,,,,9,1.555999994,4,0.493999958,1,0,1200,1150,1,1199,forceful,11122,2019-10-21_16h48.19.752,SurveyExpMetaMem,3.2.3,Win32,60
,,,,,,,,,,,,,,,,,,,,2,1.85800004,4,0.608999968,1,0,1200,803,1,1199,tidy,11122,2019-10-21_16h48.19.752,SurveyExpMetaMem,3.2.3,Win32,60
,,,,,,,,,,,,,,,,,,,,5,5.25,4,3.424000025,1,0,1200,413,1,1199,deficient,11122,2019-10-21_16h48.19.752,SurveyExpMetaMem,3.2.3,Win32,60
,,,,,,,,,,,,,,,,,,,,3,7.289999962,5,0.773999929,1,0,1200,700,1,1199,frog,11122,2019-10-21_16h48.19.752,SurveyExpMetaMem,3.2.3,Win32,60
,,,,,,,,,,,,,,,,,,,,8,4.089999914,1,0.855000019,1,0,1200,1016,1,1199,awful,11122,2019-10-21_16h48.19.752,SurveyExpMetaMem,3.2.3,Win32,60
,,,,,,,,,,,,,,,,,,,,8,3.132999897,3,0.879999876,1,0,1200,1003,1,1199,jealousy,11122,2019-10-21_16h48.19.752,SurveyExpMetaMem,3.2.3,Win32,60
,,,,,,,,,,,,,,,,,,,,8,1.639999866,3,0.453999996,1,0,1200,1067,1,1199,wicked,11122,2019-10-21_16h48.19.752,SurveyExpMetaMem,3.2.3,Win32,60
,,,,,,,,,,,,,,,,,,,,5,1.674000025,5,0.357999802,1,0,1200,513,1,1199,bland,11122,2019-10-21_16h48.19.752,SurveyExpMetaMem,3.2.3,Win32,60
,,,,,,,,,,,,,,,,,,,,8,1.324999809,3,0.506999969,1,0,1200,1113,1,1199,dagger,11122,2019-10-21_16h48.19.752,SurveyExpMetaMem,3.2.3,Win32,60
,,,,,,,,,,,,,,,,,,,,8,1.625999928,8,0.371999979,1,0,1200,231,1,1199,cherish,11122,2019-10-21_16h48.19.752,SurveyExpMetaMem,3.2.3,Win32,60
,,,,,,,,,,,,,,,,,,,,6,2.073999882,6,0.427999973,1,0,1200,280,1,1199,cookout,11122,2019-10-21_16h48.19.752,SurveyExpMetaMem,3.2.3,Win32,60
,,,,,,,,,,,,,,,,,,,,7,3.075000048,7,0.472000122,1,0,1200,473,1,1199,senseless,11122,2019-10-21_16h48.19.752,SurveyExpMetaMem,3.2.3,Win32,60
,,,,,,,,,,,,,,,,,,,,4,7.687999964,7,0.642999887,1,0,1200,810,1,1199,polite,11122,2019-10-21_16h48.19.752,SurveyExpMetaMem,3.2.3,Win32,60
,,,,,,,,,,,,,,,,,,,,8,1.637999773,4,0.546000004,1,0,1200,505,1,1199,exhaust,11122,2019-10-21_16h48.19.752,SurveyExpMetaMem,3.2.3,Win32,60
,,,,,,,,,,,,,,,,,,,,3,5.150000095,3,0.355999947,1,0,1200,924,1,1199,terrible,11122,2019-10-21_16h48.19.752,SurveyExpMetaMem,3.2.3,Win32,60
,,,,,,,,,,,,,,,,,,,,7,1.317000151,3,0.243999958,1,0,1200,184,1,1199,surprised,11122,2019-10-21_16h48.19.752,SurveyExpMetaMem,3.2.3,Win32,60
,,,,,,,,,,,,,,,,,,,,8,2.471999884,8,0.660999775,1,0,1200,74,1,1199,explore,11122,2019-10-21_16h48.19.752,SurveyExpMetaMem,3.2.3,Win32,60
,,,,,,,,,,,,,,,,,,,,6,1.532000065,6,0.708999872,1,0,1200,25,1,1199,charisma,11122,2019-10-21_16h48.19.752,SurveyExpMetaMem,3.2.3,Win32,60
,,,,,,,,,,,,,,,,,,,,6,2.190999985,6,0.704999924,1,0,1200,1153,1,1199,mangle,11122,2019-10-21_16h48.19.752,SurveyExpMetaMem,3.2.3,Win32,60
,,,,,,,,,,,,,,,,,,,,8,2.051999807,3,1.345999956,1,0,1200,1121,1,1199,ban,11122,2019-10-21_16h48.19.752,SurveyExpMetaMem,3.2.3,Win32,60
,,,,,,,,,,,,,,,,,,,,8,34.31999993,3,5.56799984,1,0,1200,402,1,1199,dismissive,11122,2019-10-21_16h48.19.752,SurveyExpMetaMem,3.2.3,Win32,60
,,,,,,,,,,,,,,,,,,,,9,1.979000092,4,0.687999964,1,0,1200,1171,1,1199,chaos,11122,2019-10-21_16h48.19.752,SurveyExpMetaMem,3.2.3,Win32,60
,,,,,,,,,,,,,,,,,,,,3,1.8349998,8,0.588999987,1,0,1200,891,1,1199,kind,11122,2019-10-21_16h48.19.752,SurveyExpMetaMem,3.2.3,Win32,60
,,,,,,,,,,,,,,,,,,,,8,1.50999999,4,0.370999813,1,0,1200,954,1,1199,hostage,11122,2019-10-21_16h48.19.752,SurveyExpMetaMem,3.2.3,Win32,60
,,,,,,,,,,,,,,,,,,,,7,1.15199995,3,1.463999987,1,0,1200,991,1,1199,harass,11122,2019-10-21_16h48.19.752,SurveyExpMetaMem,3.2.3,Win32,60
,,,,,,,,,,,,,,,,,,,,8,1.743000031,9,1.572999954,1,0,1200,448,1,1199,depart,11122,2019-10-21_16h48.19.752,SurveyExpMetaMem,3.2.3,Win32,60
,,,,,,,,,,,,,,,,,,,,7,1.38499999,4,1.321999788,1,0,1200,597,1,1199,drool,11122,2019-10-21_16h48.19.752,SurveyExpMetaMem,3.2.3,Win32,60
,,,,,,,,,,,,,,,,,,,,8,1.26699996,8,0.421999931,1,0,1200,137,1,1199,money,11122,2019-10-21_16h48.19.752,SurveyExpMetaMem,3.2.3,Win32,60
,,,,,,,,,,,,,,,,,,,,7,2.385999918,5,0.489999771,1,0,1200,736,1,1199,hawk,11122,2019-10-21_16h48.19.752,SurveyExpMetaMem,3.2.3,Win32,60
,,,,,,,,,,,,,,,,,,,,5,1.937999964,5,0.404999971,1,0,1200,418,1,1199,cheapskate,11122,2019-10-21_16h48.19.752,SurveyExpMetaMem,3.2.3,Win32,60
,,,,,,,,,,,,,,,,,,,,4,2.454999924,1,0.587999821,1,0,1200,941,1,1199,leprosy,11122,2019-10-21_16h48.19.752,SurveyExpMetaMem,3.2.3,Win32,60
,,,,,,,,,,,,,,,,,,,,3,2.087999821,3,0.441999912,1,0,1200,475,1,1199,nameless,11122,2019-10-21_16h48.19.752,SurveyExpMetaMem,3.2.3,Win32,60
,,,,,,,,,,,,,,,,,,,,7,2.136999846,8,0.921999931,1,0,1200,835,1,1199,helpful,11122,2019-10-21_16h48.19.752,SurveyExpMetaMem,3.2.3,Win32,60
,,,,,,,,,,,,,,,,,,,,5,1.642999887,5,0.388999939,1,0,1200,410,1,1199,tarnish,11122,2019-10-21_16h48.19.752,SurveyExpMetaMem,3.2.3,Win32,60
,,,,,,,,,,,,,,,,,,,,2,5.934999943,8,3.253000021,1,0,1200,612,1,1199,propeller,11122,2019-10-21_16h48.19.752,SurveyExpMetaMem,3.2.3,Win32,60
,,,,,,,,,,,,,,,,,,,,9,9.609999895,2,1.541999817,1,0,1200,950,1,1199,murder,11122,2019-10-21_16h48.19.752,SurveyExpMetaMem,3.2.3,Win32,60
,,,,,,,,,,,,,,,,,,,,2,1.867999792,8,1.95299983,1,0,1200,808,1,1199,violinist,11122,2019-10-21_16h48.19.752,SurveyExpMetaMem,3.2.3,Win32,60
,,,,,,,,,,,,,,,,,,,,7,2.999999762,4,0.582999945,1,0,1200,516,1,1199,smug,11122,2019-10-21_16h48.19.752,SurveyExpMetaMem,3.2.3,Win32,60
,,,,,,,,,,,,,,,,,,,,1,3.381999969,8,1.835000038,1,0,1200,831,1,1199,sofa,11122,2019-10-21_16h48.19.752,SurveyExpMetaMem,3.2.3,Win32,60
,,,,,,,,,,,,,,,,,,,,7,5.5,3,0.472000122,1,0,1200,925,1,1199,disloyal,11122,2019-10-21_16h48.19.752,SurveyExpMetaMem,3.2.3,Win32,60
,,,,,,,,,,,,,,,,,,,,5,1.738999844,5,0.296999931,1,0,1200,471,1,1199,chump,11122,2019-10-21_16h48.19.752,SurveyExpMetaMem,3.2.3,Win32,60
,,,,,,,,,,,,,,,,,,,,8,3.299999952,2,0.441999912,1,0,1200,1134,1,1199,obsessed,11122,2019-10-21_16h48.19.752,SurveyExpMetaMem,3.2.3,Win32,60
,,,,,,,,,,,,,,,,,,,,7,2.552999973,2,0.388999939,1,0,1200,367,1,1199,pathetic,11122,2019-10-21_16h48.19.752,SurveyExpMetaMem,3.2.3,Win32,60
,,,,,,,,,,,,,,,,,,,,4,3.665999889,4,0.353999853,1,0,1200,499,1,1199,stop,11122,2019-10-21_16h48.19.752,SurveyExpMetaMem,3.2.3,Win32,60
,,,,,,,,,,,,,,,,,,,,7,1.40899992,3,0.373999834,1,0,1200,727,1,1199,author,11122,2019-10-21_16h48.19.752,SurveyExpMetaMem,3.2.3,Win32,60
,,,,,,,,,,,,,,,,,,,,3,2.035999775,3,0.454999924,1,0,1200,588,1,1199,bandage,11122,2019-10-21_16h48.19.752,SurveyExpMetaMem,3.2.3,Win32,60
,,,,,,,,,,,,,,,,,,,,5,3.601999998,3,0.657999992,1,0,1200,731,1,1199,decency,11122,2019-10-21_16h48.19.752,SurveyExpMetaMem,3.2.3,Win32,60
,,,,,,,,,,,,,,,,,,,,4,8.649999857,3,2.062000036,1,0,1200,520,1,1199,gullible,11122,2019-10-21_16h48.19.752,SurveyExpMetaMem,3.2.3,Win32,60
,,,,,,,,,,,,,,,,,,,,5,2.432999849,5,0.753999949,1,0,1200,1133,1,1199,slip,11122,2019-10-21_16h48.19.752,SurveyExpMetaMem,3.2.3,Win32,60
,,,,,,,,,,,,,,,,,,,,5,0.474999905,5,13.52499986,1,0,1200,557,1,1199,class,11122,2019-10-21_16h48.19.752,SurveyExpMetaMem,3.2.3,Win32,60
,,,,,,,,,,,,,,,,,,,,5,0.218999863,7,1.404000044,1,0,1200,147,1,1199,cure,11122,2019-10-21_16h48.19.752,SurveyExpMetaMem,3.2.3,Win32,60
,,,,,,,,,,,,,,,,,,,,7,4.417999744,7,0.403999805,1,0,1200,618,1,1199,ceiling,11122,2019-10-21_16h48.19.752,SurveyExpMetaMem,3.2.3,Win32,60
,,,,,,,,,,,,,,,,,,,,8,1.819999933,3,0.460000038,1,0,1200,1102,1,1199,nuclear,11122,2019-10-21_16h48.19.752,SurveyExpMetaMem,3.2.3,Win32,60
,,,,,,,,,,,,,,,,,,,,9,1.536000013,9,0.479000092,1,0,1200,865,1,1199,bliss,11122,2019-10-21_16h48.19.752,SurveyExpMetaMem,3.2.3,Win32,60
,,,,,,,,,,,,,,,,,,,,3,1.786000013,7,0.513000011,1,0,1200,524,1,1199,sigh,11122,2019-10-21_16h48.19.752,SurveyExpMetaMem,3.2.3,Win32,60
,,,,,,,,,,,,,,,,,,,,8,1.536999941,2,0.424999952,1,0,1200,945,1,1199,demon,11122,2019-10-21_16h48.19.752,SurveyExpMetaMem,3.2.3,Win32,60
,,,,,,,,,,,,,,,,,,,,3,4.886999846,7,1.84800005,1,0,1200,260,1,1199,control,11122,2019-10-21_16h48.19.752,SurveyExpMetaMem,3.2.3,Win32,60
,,,,,,,,,,,,,,,,,,,,7,3.954999924,5,3.234999895,1,0,1200,1155,1,1199,tangle,11122,2019-10-21_16h48.19.752,SurveyExpMetaMem,3.2.3,Win32,60
,,,,,,,,,,,,,,,,,,,,8,1.886999846,4,0.775999784,1,0,1200,1032,1,1199,exam,11122,2019-10-21_16h48.19.752,SurveyExpMetaMem,3.2.3,Win32,60
,,,,,,,,,,,,,,,,,,,,9,1.734999895,4,0.85800004,1,0,1200,1048,1,1199,paranoid,11122,2019-10-21_16h48.19.752,SurveyExpMetaMem,3.2.3,Win32,60
,,,,,,,,,,,,,,,,,,,,4,1.852999926,8,0.578999996,1,0,1200,857,1,1199,thankful,11122,2019-10-21_16h48.19.752,SurveyExpMetaMem,3.2.3,Win32,60
,,,,,,,,,,,,,,,,,,,,7,1.636999846,7,0.272000074,1,0,1200,1145,1,1199,officer,11122,2019-10-21_16h48.19.752,SurveyExpMetaMem,3.2.3,Win32,60
,,,,,,,,,,,,,,,,,,,,9,1.187999725,9,0.338999987,1,0,1200,95,1,1199,giggle,11122,2019-10-21_16h48.19.752,SurveyExpMetaMem,3.2.3,Win32,60
,,,,,,,,,,,,,,,,,,,,8,0.436000109,5,8.036999941,1,0,1200,828,1,1199,cooperative,11122,2019-10-21_16h48.19.752,SurveyExpMetaMem,3.2.3,Win32,60
,,,,,,,,,,,,,,,,,,,,8,53.05699992,8,0.388999939,1,0,1200,28,1,1199,energy,11122,2019-10-21_16h48.19.752,SurveyExpMetaMem,3.2.3,Win32,60
,,,,,,,,,,,,,,,,,,,,3,6.945999861,5,14.59200001,1,0,1200,521,1,1199,laundry,11122,2019-10-21_16h48.19.752,SurveyExpMetaMem,3.2.3,Win32,60
,,,,,,,,,,,,,,,,,,,,3,8.894999981,8,0.530999899,1,0,1200,63,1,1199,clothes,11122,2019-10-21_16h48.19.752,SurveyExpMetaMem,3.2.3,Win32,60
,,,,,,,,,,,,,,,,,,,,8,2.164999962,5,0.539000034,1,0,1200,342,1,1199,alienation,11122,2019-10-21_16h48.19.752,SurveyExpMetaMem,3.2.3,Win32,60
,,,,,,,,,,,,,,,,,,,,9,1.337999821,3,0.739000082,1,0,1200,918,1,1199,gunpoint,11122,2019-10-21_16h48.19.752,SurveyExpMetaMem,3.2.3,Win32,60
,,,,,,,,,,,,,,,,,,,,5,4.833999872,5,0.154999733,1,0,1200,461,1,1199,ail,11122,2019-10-21_16h48.19.752,SurveyExpMetaMem,3.2.3,Win32,60
,,,,,,,,,,,,,,,,,,,,8,1.540999889,3,0.183999777,1,0,1200,1082,1,1199,hazard,11122,2019-10-21_16h48.19.752,SurveyExpMetaMem,3.2.3,Win32,60
,,,,,,,,,,,,,,,,,,,,2,1.395999908,6,0.361999989,1,0,1200,689,1,1199,land,11122,2019-10-21_16h48.19.752,SurveyExpMetaMem,3.2.3,Win32,60
,,,,,,,,,,,,,,,,,,,,5,1.286000013,5,0.279999971,1,0,1200,696,1,1199,rink,11122,2019-10-21_16h48.19.752,SurveyExpMetaMem,3.2.3,Win32,60
,,,,,,,,,,,,,,,,,,,,7,1.190999985,7,2.755999804,1,0,1200,687,1,1199,skinny,11122,2019-10-21_16h48.19.752,SurveyExpMetaMem,3.2.3,Win32,60
,,,,,,,,,,,,,,,,,,,,4,4.430999756,4,0.205999851,1,0,1200,361,1,1199,glum,11122,2019-10-21_16h48.19.752,SurveyExpMetaMem,3.2.3,Win32,60
,,,,,,,,,,,,,,,,,,,,7,1.490999937,4,0.221999884,1,0,1200,432,1,1199,resign,11122,2019-10-21_16h48.19.752,SurveyExpMetaMem,3.2.3,Win32,60
,,,,,,,,,,,,,,,,,,,,2,2.351999998,5,0.506999731,1,0,1200,766,1,1199,flag,11122,2019-10-21_16h48.19.752,SurveyExpMetaMem,3.2.3,Win32,60
,,,,,,,,,,,,,,,,,,,,7,2.421999931,7,1.920999765,1,0,1200,797,1,1199,hamburger,11122,2019-10-21_16h48.19.752,SurveyExpMetaMem,3.2.3,Win32,60
,,,,,,,,,,,,,,,,,,,,8,1.432999849,7,1.031999826,1,0,1200,100,1,1199,intense,11122,2019-10-21_16h48.19.752,SurveyExpMetaMem,3.2.3,Win32,60
,,,,,,,,,,,,,,,,,,,,3,2.150999784,7,0.889999866,1,0,1200,546,1,1199,solemn,11122,2019-10-21_16h48.19.752,SurveyExpMetaMem,3.2.3,Win32,60
,,,,,,,,,,,,,,,,,,,,8,1.231999874,3,0.627999783,1,0,1200,937,1,1199,prison,11122,2019-10-21_16h48.19.752,SurveyExpMetaMem,3.2.3,Win32,60
,,,,,,,,,,,,,,,,,,,,9,1.136999846,2,0.605999708,1,0,1200,1101,1,1199,scary,11122,2019-10-21_16h48.19.752,SurveyExpMetaMem,3.2.3,Win32,60
,,,,,,,,,,,,,,,,,,,,7,2.135999918,2,0.417000055,1,0,1200,1064,1,1199,sinful,11122,2019-10-21_16h48.19.752,SurveyExpMetaMem,3.2.3,Win32,60
,,,,,,,,,,,,,,,,,,,,2,2.174000025,2,0.721999884,1,0,1200,454,1,1199,damp,11122,2019-10-21_16h48.19.752,SurveyExpMetaMem,3.2.3,Win32,60
,,,,,,,,,,,,,,,,,,,,7,1.677000046,2,0.27699995,1,0,1200,919,1,1199,loss,11122,2019-10-21_16h48.19.752,SurveyExpMetaMem,3.2.3,Win32,60
,,,,,,,,,,,,,,,,,,,,7,1.710999966,8,0.292000055,1,0,1200,182,1,1199,genius,11122,2019-10-21_16h48.19.752,SurveyExpMetaMem,3.2.3,Win32,60
,,,,,,,,,,,,,,,,,,,,6,1.934000015,5,0.369999886,1,0,1200,497,1,1199,pungent,11122,2019-10-21_16h48.19.752,SurveyExpMetaMem,3.2.3,Win32,60
,,,,,,,,,,,,,,,,,,,,8,2.36899972,2,0.654000044,1,0,1200,984,1,1199,despairing,11122,2019-10-21_16h48.19.752,SurveyExpMetaMem,3.2.3,Win32,60
,,,,,,,,,,,,,,,,,,,,6,2.576999903,4,3.356999874,1,0,1200,398,1,1199,handicapped,11122,2019-10-21_16h48.19.752,SurveyExpMetaMem,3.2.3,Win32,60
,,,,,,,,,,,,,,,,,,,,5,1.631999969,5,0.323999882,1,0,1200,697,1,1199,clarinet,11122,2019-10-21_16h48.19.752,SurveyExpMetaMem,3.2.3,Win32,60
,,,,,,,,,,,,,,,,,,,,2,2.536000013,5,0.303999901,1,0,1200,748,1,1199,town,11122,2019-10-21_16h48.19.752,SurveyExpMetaMem,3.2.3,Win32,60
,,,,,,,,,,,,,,,,,,,,3,3.81799984,6,0.588000059,1,0,1200,1178,1,1199,weight,11122,2019-10-21_16h48.19.752,SurveyExpMetaMem,3.2.3,Win32,60
,,,,,,,,,,,,,,,,,,,,9,1.65199995,3,0.388000011,1,0,1200,933,1,1199,afraid,11122,2019-10-21_16h48.19.752,SurveyExpMetaMem,3.2.3,Win32,60
,,,,,,,,,,,,,,,,,,,,9,2.0849998,5,0.993999958,1,0,1200,1110,1,1199,bastard,11122,2019-10-21_16h48.19.752,SurveyExpMetaMem,3.2.3,Win32,60
,,,,,,,,,,,,,,,,,,,,6,5.012999773,4,0.289000034,1,0,1200,452,1,1199,scapegoat,11122,2019-10-21_16h48.19.752,SurveyExpMetaMem,3.2.3,Win32,60
,,,,,,,,,,,,,,,,,,,,7,3.704999924,3,0.161999941,1,0,1200,1087,1,1199,affair,11122,2019-10-21_16h48.19.752,SurveyExpMetaMem,3.2.3,Win32,60
,,,,,,,,,,,,,,,,,,,,8,1.821999788,9,0.221999884,1,0,1200,32,1,1199,festival,11122,2019-10-21_16h48.19.752,SurveyExpMetaMem,3.2.3,Win32,60
,,,,,,,,,,,,,,,,,,,,6,2.172999859,2,0.603999853,1,0,1200,1006,1,1199,rash,11122,2019-10-21_16h48.19.752,SurveyExpMetaMem,3.2.3,Win32,60
,,,,,,,,,,,,,,,,,,,,5,1.735999823,5,0.444999933,1,0,1200,722,1,1199,consoled,11122,2019-10-21_16h48.19.752,SurveyExpMetaMem,3.2.3,Win32,60
,,,,,,,,,,,,,,,,,,,,3,3.355000019,3,0.289999962,1,0,1200,489,1,1199,timid,11122,2019-10-21_16h48.19.752,SurveyExpMetaMem,3.2.3,Win32,60
,,,,,,,,,,,,,,,,,,,,8,1.517999887,3,0.339999914,1,0,1200,1062,1,1199,shoplifter,11122,2019-10-21_16h48.19.752,SurveyExpMetaMem,3.2.3,Win32,60
,,,,,,,,,,,,,,,,,,,,7,2.223999977,2,0.654999971,1,0,1200,347,1,1199,unpleasant,11122,2019-10-21_16h48.19.752,SurveyExpMetaMem,3.2.3,Win32,60
,,,,,,,,,,,,,,,,,,,,9,1.670000076,7,1.971999884,1,0,1200,103,1,1199,conquest,11122,2019-10-21_16h48.19.752,SurveyExpMetaMem,3.2.3,Win32,60
,,,,,,,,,,,,,,,,,,,,4,1.624000072,4,0.259999752,1,0,1200,462,1,1199,shallow,11122,2019-10-21_16h48.19.752,SurveyExpMetaMem,3.2.3,Win32,60
,,,,,,,,,,,,,,,,,,,,7,5.315999985,4,0.221999884,1,0,1200,383,1,1199,messy,11122,2019-10-21_16h48.19.752,SurveyExpMetaMem,3.2.3,Win32,60
,,,,,,,,,,,,,,,,,,,,8,3.098999977,7,0.737999916,1,0,1200,113,1,1199,bridesmaid,11122,2019-10-21_16h48.19.752,SurveyExpMetaMem,3.2.3,Win32,60
,,,,,,,,,,,,,,,,,,,,4,2.285999775,6,1.162999868,1,0,1200,566,1,1199,obscure,11122,2019-10-21_16h48.19.752,SurveyExpMetaMem,3.2.3,Win32,60
,,,,,,,,,,,,,,,,,,,,7,1.355000019,1,0.836999893,1,0,1200,952,1,1199,troubled,11122,2019-10-21_16h48.19.752,SurveyExpMetaMem,3.2.3,Win32,60
,,,,,,,,,,,,,,,,,,,,5,1.551999807,1,0.375,1,0,1200,1079,1,1199,critic,11122,2019-10-21_16h48.19.752,SurveyExpMetaMem,3.2.3,Win32,60
,,,,,,,,,,,,,,,,,,,,5,8.687000036,5,7.500999928,1,0,1200,2,1,1199,zealous,11122,2019-10-21_16h48.19.752,SurveyExpMetaMem,3.2.3,Win32,60
,,,,,,,,,,,,,,,,,,,,8,2.141999722,3,0.15899992,1,0,1200,759,1,1199,prefer,11122,2019-10-21_16h48.19.752,SurveyExpMetaMem,3.2.3,Win32,60
,,,,,,,,,,,,,,,,,,,,5,6.032000065,5,0.245999813,1,0,1200,447,1,1199,dishes,11122,2019-10-21_16h48.19.752,SurveyExpMetaMem,3.2.3,Win32,60
,,,,,,,,,,,,,,,,,,,,4,10.3440001,5,1.788999796,1,0,1200,131,1,1199,treat,11122,2019-10-21_16h48.19.752,SurveyExpMetaMem,3.2.3,Win32,60
,,,,,,,,,,,,,,,,,,,,3,2.133999825,6,0.288999796,1,0,1200,826,1,1199,poem,11122,2019-10-21_16h48.19.752,SurveyExpMetaMem,3.2.3,Win32,60
,,,,,,,,,,,,,,,,,,,,9,1.38499999,3,0.529000044,1,0,1200,1012,1,1199,gunshot,11122,2019-10-21_16h48.19.752,SurveyExpMetaMem,3.2.3,Win32,60
,,,,,,,,,,,,,,,,,,,,8,1.369999886,7,0.539999962,1,0,1200,112,1,1199,jaguar,11122,2019-10-21_16h48.19.752,SurveyExpMetaMem,3.2.3,Win32,60
,,,,,,,,,,,,,,,,,,,,6,1.767999887,7,0.373999834,1,0,1200,433,1,1199,uninteresting,11122,2019-10-21_16h48.19.752,SurveyExpMetaMem,3.2.3,Win32,60
,,,,,,,,,,,,,,,,,,,,5,1.15899992,6,0.342000008,1,0,1200,345,1,1199,unfortunate,11122,2019-10-21_16h48.19.752,SurveyExpMetaMem,3.2.3,Win32,60
,,,,,,,,,,,,,,,,,,,,2,2.524999857,3,0.304000139,1,0,1200,302,1,1199,loneliness,11122,2019-10-21_16h48.19.752,SurveyExpMetaMem,3.2.3,Win32,60
,,,,,,,,,,,,,,,,,,,,5,1.277999878,5,0.322999716,1,0,1200,698,1,1199,oven,11122,2019-10-21_16h48.19.752,SurveyExpMetaMem,3.2.3,Win32,60
,,,,,,,,,,,,,,,,,,,,5,2.103999853,4,0.355999947,1,0,1200,246,1,1199,complete,11122,2019-10-21_16h48.19.752,SurveyExpMetaMem,3.2.3,Win32,60
,,,,,,,,,,,,,,,,,,,,3,22.6639998,7,0.402999878,1,0,1200,717,1,1199,modest,11122,2019-10-21_16h48.19.752,SurveyExpMetaMem,3.2.3,Win32,60
,,,,,,,,,,,,,,,,,,,,3,1.919999838,3,0.338999748,1,0,1200,735,1,1199,tea,11122,2019-10-21_16h48.19.752,SurveyExpMetaMem,3.2.3,Win32,60
,,,,,,,,,,,,,,,,,,,,3,2.484999895,2,3.052999973,1,0,1200,160,1,1199,reunion,11122,2019-10-21_16h48.19.752,SurveyExpMetaMem,3.2.3,Win32,60
,,,,,,,,,,,,,,,,,,,,7,1.806999922,3,0.539999723,1,0,1200,384,1,1199,idiot,11122,2019-10-21_16h48.19.752,SurveyExpMetaMem,3.2.3,Win32,60
,,,,,,,,,,,,,,,,,,,,8,1.216999769,4,0.488999844,1,0,1200,355,1,1199,graveyard,11122,2019-10-21_16h48.19.752,SurveyExpMetaMem,3.2.3,Win32,60
,,,,,,,,,,,,,,,,,,,,8,1.438999891,8,0.671000004,1,0,1200,217,1,1199,bravery,11122,2019-10-21_16h48.19.752,SurveyExpMetaMem,3.2.3,Win32,60
,,,,,,,,,,,,,,,,,,,,7,1.307999849,7,0.50999999,1,0,1200,1131,1,1199,envious,11122,2019-10-21_16h48.19.752,SurveyExpMetaMem,3.2.3,Win32,60
,,,,,,,,,,,,,,,,,,,,4,2.907999754,7,0.329999924,1,0,1200,409,1,1199,old,11122,2019-10-21_16h48.19.752,SurveyExpMetaMem,3.2.3,Win32,60
,,,,,,,,,,,,,,,,,,,,7,1.553999901,7,0.31099987,1,0,1200,198,1,1199,comedy,11122,2019-10-21_16h48.19.752,SurveyExpMetaMem,3.2.3,Win32,60
,,,,,,,,,,,,,,,,,,,,7,1.951999903,8,0.956999779,1,0,1200,109,1,1199,new,11122,2019-10-21_16h48.19.752,SurveyExpMetaMem,3.2.3,Win32,60
,,,,,,,,,,,,,,,,,,,,8,1.325999975,4,1.404000044,1,0,1200,999,1,1199,burdened,11122,2019-10-21_16h48.19.752,SurveyExpMetaMem,3.2.3,Win32,60
,,,,,,,,,,,,,,,,,,,,5,2.63499999,3,0.588999987,1,0,1200,372,1,1199,inferior,11122,2019-10-21_16h48.19.752,SurveyExpMetaMem,3.2.3,Win32,60
,,,,,,,,,,,,,,,,,,,,8,2.252999783,7,0.524999857,1,0,1200,221,1,1199,sparkle,11122,2019-10-21_16h48.19.752,SurveyExpMetaMem,3.2.3,Win32,60
,,,,,,,,,,,,,,,,,,,,2,2.589999914,5,0.671999693,1,0,1200,579,1,1199,bus,11122,2019-10-21_16h48.19.752,SurveyExpMetaMem,3.2.3,Win32,60
,,,,,,,,,,,,,,,,,,,,4,2.868000031,5,0.539000034,1,0,1200,773,1,1199,rational,11122,2019-10-21_16h48.19.752,SurveyExpMetaMem,3.2.3,Win32,60
,,,,,,,,,,,,,,,,,,,,3,2.210000038,7,0.938999891,1,0,1200,858,1,1199,donate,11122,2019-10-21_16h48.19.752,SurveyExpMetaMem,3.2.3,Win32,60
,,,,,,,,,,,,,,,,,,,,8,1.670999765,3,0.47300005,1,0,1200,929,1,1199,mutilation,11122,2019-10-21_16h48.19.752,SurveyExpMetaMem,3.2.3,Win32,60
,,,,,,,,,,,,,,,,,,,,7,1.722000122,8,1.006999969,1,0,1200,276,1,1199,pastry,11122,2019-10-21_16h48.19.752,SurveyExpMetaMem,3.2.3,Win32,60
,,,,,,,,,,,,,,,,,,,,7,13.09599996,5,1.79399991,1,0,1200,679,1,1199,yellow,11122,2019-10-21_16h48.19.752,SurveyExpMetaMem,3.2.3,Win32,60
,,,,,,,,,,,,,,,,,,,,7,5.197999954,3,1.288999796,1,0,1200,19,1,1199,firefighter,11122,2019-10-21_16h48.19.752,SurveyExpMetaMem,3.2.3,Win32,60
,,,,,,,,,,,,,,,,,,,,5,2.592000008,5,0.356999874,1,0,1200,540,1,1199,derelict,11122,2019-10-21_16h48.19.752,SurveyExpMetaMem,3.2.3,Win32,60
,,,,,,,,,,,,,,,,,,,,2,2.06799984,2,0.857000113,1,0,1200,526,1,1199,dry,11122,2019-10-21_16h48.19.752,SurveyExpMetaMem,3.2.3,Win32,60
,,,,,,,,,,,,,,,,,,,,8,1.768999815,2,0.484999895,1,0,1200,316,1,1199,sorrow,11122,2019-10-21_16h48.19.752,SurveyExpMetaMem,3.2.3,Win32,60
,,,,,,,,,,,,,,,,,,,,7,1.919999838,2,0.805999994,1,0,1200,1027,1,1199,criticism,11122,2019-10-21_16h48.19.752,SurveyExpMetaMem,3.2.3,Win32,60
,,,,,,,,,,,,,,,,,,,,2,1.523999929,3,0.773000002,1,0,1200,554,1,1199,label,11122,2019-10-21_16h48.19.752,SurveyExpMetaMem,3.2.3,Win32,60
,,,,,,,,,,,,,,,,,,,,2,1.786000013,8,1.11199975,1,0,1200,734,1,1199,piano,11122,2019-10-21_16h48.19.752,SurveyExpMetaMem,3.2.3,Win32,60
,,,,,,,,,,,,,,,,,,,,5,1.882999897,6,1.049000025,1,0,1200,399,1,1199,withdrawn,11122,2019-10-21_16h48.19.752,SurveyExpMetaMem,3.2.3,Win32,60
,,,,,,,,,,,,,,,,,,,,4,99.8499999,8,0.328999758,1,0,1200,69,1,1199,special,11122,2019-10-21_16h48.19.752,SurveyExpMetaMem,3.2.3,Win32,60
,,,,,,,,,,,,,,,,,,,,4,4.71999979,4,0.406999826,1,0,1200,535,1,1199,ramble,11122,2019-10-21_16h48.19.752,SurveyExpMetaMem,3.2.3,Win32,60
,,,,,,,,,,,,,,,,,,,,7,2.064999819,3,0.748999834,1,0,1200,964,1,1199,grieve,11122,2019-10-21_16h48.19.752,SurveyExpMetaMem,3.2.3,Win32,60
,,,,,,,,,,,,,,,,,,,,6,1.539999962,6,0.349999905,1,0,1200,380,1,1199,expire,11122,2019-10-21_16h48.19.752,SurveyExpMetaMem,3.2.3,Win32,60
,,,,,,,,,,,,,,,,,,,,8,1.684999943,3,0.335999966,1,0,1200,1144,1,1199,yelp,11122,2019-10-21_16h48.19.752,SurveyExpMetaMem,3.2.3,Win32,60
,,,,,,,,,,,,,,,,,,,,4,1.636000156,7,0.371000051,1,0,1200,839,1,1199,flower,11122,2019-10-21_16h48.19.752,SurveyExpMetaMem,3.2.3,Win32,60
,,,,,,,,,,,,,,,,,,,,8,4.016999722,7,0.491999865,1,0,1200,875,1,1199,fluffy,11122,2019-10-21_16h48.19.752,SurveyExpMetaMem,3.2.3,Win32,60
,,,,,,,,,,,,,,,,,,,,8,1.989000082,3,0.923999786,1,0,1200,441,1,1199,prohibit,11122,2019-10-21_16h48.19.752,SurveyExpMetaMem,3.2.3,Win32,60
,,,,,,,,,,,,,,,,,,,,7,1.802999973,3,0.437999964,1,0,1200,946,1,1199,amputate,11122,2019-10-21_16h48.19.752,SurveyExpMetaMem,3.2.3,Win32,60
,,,,,,,,,,,,,,,,,,,,3,1.483999729,3,0.428999901,1,0,1200,614,1,1199,crossword,11122,2019-10-21_16h48.19.752,SurveyExpMetaMem,3.2.3,Win32,60
,,,,,,,,,,,,,,,,,,,,7,1.670000076,7,0.640000105,1,0,1200,866,1,1199,haven,11122,2019-10-21_16h48.19.752,SurveyExpMetaMem,3.2.3,Win32,60
,,,,,,,,,,,,,,,,,,,,3,2.235999823,7,0.525000095,1,0,1200,603,1,1199,mane,11122,2019-10-21_16h48.19.752,SurveyExpMetaMem,3.2.3,Win32,60
,,,,,,,,,,,,,,,,,,,,2,5.371999979,4,0.822000027,1,0,1200,860,1,1199,silk,11122,2019-10-21_16h48.19.752,SurveyExpMetaMem,3.2.3,Win32,60
,,,,,,,,,,,,,,,,,,,,3,11.03799987,6,0.657999992,1,0,1200,391,1,1199,detach,11122,2019-10-21_16h48.19.752,SurveyExpMetaMem,3.2.3,Win32,60
,,,,,,,,,,,,,,,,,,,,7,2.133999825,2,0.637999773,1,0,1200,364,1,1199,stink,11122,2019-10-21_16h48.19.752,SurveyExpMetaMem,3.2.3,Win32,60
,,,,,,,,,,,,,,,,,,,,3,2.745999813,7,0.757999897,1,0,1200,823,1,1199,nourish,11122,2019-10-21_16h48.19.752,SurveyExpMetaMem,3.2.3,Win32,60
,,,,,,,,,,,,,,,,,,,,6,6.420000076,3,2.003999949,1,0,1200,989,1,1199,banish,11122,2019-10-21_16h48.19.752,SurveyExpMetaMem,3.2.3,Win32,60
,,,,,,,,,,,,,,,,,,,,7,15.93400002,3,0.546000004,1,0,1200,906,1,1199,syphilis,11122,2019-10-21_16h48.19.752,SurveyExpMetaMem,3.2.3,Win32,60
,,,,,,,,,,,,,,,,,,,,7,5.260999918,3,0.403000116,1,0,1200,358,1,1199,waste,11122,2019-10-21_16h48.19.752,SurveyExpMetaMem,3.2.3,Win32,60
,,,,,,,,,,,,,,,,,,,,7,2.792999983,3,0.309999943,1,0,1200,1091,1,1199,cram,11122,2019-10-21_16h48.19.752,SurveyExpMetaMem,3.2.3,Win32,60
,,,,,,,,,,,,,,,,,,,,7,2.434000015,3,0.275000095,1,0,1200,224,1,1199,strengthen,11122,2019-10-21_16h48.19.752,SurveyExpMetaMem,3.2.3,Win32,60
,,,,,,,,,,,,,,,,,,,,5,1.775999784,5,0.237999916,1,0,1200,560,1,1199,spurn,11122,2019-10-21_16h48.19.752,SurveyExpMetaMem,3.2.3,Win32,60
,,,,,,,,,,,,,,,,,,,,9,7.78399992,9,0.281999826,1,0,1200,291,1,1199,fantastic,11122,2019-10-21_16h48.19.752,SurveyExpMetaMem,3.2.3,Win32,60
,,,,,,,,,,,,,,,,,,,,2,3.316999912,2,1.713000059,1,0,1200,273,1,1199,worthwhile,11122,2019-10-21_16h48.19.752,SurveyExpMetaMem,3.2.3,Win32,60
,,,,,,,,,,,,,,,,,,,,6,8.09499979,2,1.409999847,1,0,1200,1002,1,1199,wounds,11122,2019-10-21_16h48.19.752,SurveyExpMetaMem,3.2.3,Win32,60
,,,,,,,,,,,,,,,,,,,,6,1.968999863,7,1.171000004,1,0,1200,161,1,1199,limousine,11122,2019-10-21_16h48.19.752,SurveyExpMetaMem,3.2.3,Win32,60
,,,,,,,,,,,,,,,,,,,,6,2.10199976,2,0.536000013,1,0,1200,338,1,1199,obesity,11122,2019-10-21_16h48.19.752,SurveyExpMetaMem,3.2.3,Win32,60
,,,,,,,,,,,,,,,,,,,,8,1.457000017,7,1.163000107,1,0,1200,268,1,1199,tickle,11122,2019-10-21_16h48.19.752,SurveyExpMetaMem,3.2.3,Win32,60
,,,,,,,,,,,,,,,,,,,,6,1.975999832,3,0.753999949,1,0,1200,599,1,1199,obstinate,11122,2019-10-21_16h48.19.752,SurveyExpMetaMem,3.2.3,Win32,60
,,,,,,,,,,,,,,,,,,,,2,2.268999815,1,1.836999893,1,0,1200,359,1,1199,bored,11122,2019-10-21_16h48.19.752,SurveyExpMetaMem,3.2.3,Win32,60
,,,,,,,,,,,,,,,,,,,,2,2.924999952,3,0.953999996,1,0,1200,381,1,1199,sloppy,11122,2019-10-21_16h48.19.752,SurveyExpMetaMem,3.2.3,Win32,60
,,,,,,,,,,,,,,,,,,,,5,1.769999981,5,0.655999899,1,0,1200,522,1,1199,cleft,11122,2019-10-21_16h48.19.752,SurveyExpMetaMem,3.2.3,Win32,60
,,,,,,,,,,,,,,,,,,,,4,11.1329999,6,0.404000044,1,0,1200,931,1,1199,overweight,11122,2019-10-21_16h48.19.752,SurveyExpMetaMem,3.2.3,Win32,60
,,,,,,,,,,,,,,,,,,,,3,15.24399996,2,0.472000122,1,0,1200,334,1,1199,trash,11122,2019-10-21_16h48.19.752,SurveyExpMetaMem,3.2.3,Win32,60
,,,,,,,,,,,,,,,,,,,,4,1.868999958,4,1.020999908,1,0,1200,61,1,1199,zoom,11122,2019-10-21_16h48.19.752,SurveyExpMetaMem,3.2.3,Win32,60
,,,,,,,,,,,,,,,,,,,,5,4.166999817,5,0.538999796,1,0,1200,750,1,1199,porpoise,11122,2019-10-21_16h48.19.752,SurveyExpMetaMem,3.2.3,Win32,60
,,,,,,,,,,,,,,,,,,,,7,4.315999746,6,0.575999975,1,0,1200,1140,1,1199,blood,11122,2019-10-21_16h48.19.752,SurveyExpMetaMem,3.2.3,Win32,60
,,,,,,,,,,,,,,,,,,,,5,1.89199996,5,0.530999899,1,0,1200,532,1,1199,recede,11122,2019-10-21_16h48.19.752,SurveyExpMetaMem,3.2.3,Win32,60
,,,,,,,,,,,,,,,,,,,,8,1.90899992,6,1.190999985,1,0,1200,80,1,1199,wonderful,11122,2019-10-21_16h48.19.752,SurveyExpMetaMem,3.2.3,Win32,60
,,,,,,,,,,,,,,,,,,,,2,1.740999699,7,0.737999916,1,0,1200,859,1,1199,serene,11122,2019-10-21_16h48.19.752,SurveyExpMetaMem,3.2.3,Win32,60
,,,,,,,,,,,,,,,,,,,,3,1.671999931,7,0.537999868,1,0,1200,829,1,1199,innocent,11122,2019-10-21_16h48.19.752,SurveyExpMetaMem,3.2.3,Win32,60
,,,,,,,,,,,,,,,,,,,,8,1.356999874,8,0.503999949,1,0,1200,197,1,1199,happy,11122,2019-10-21_16h48.19.752,SurveyExpMetaMem,3.2.3,Win32,60
,,,,,,,,,,,,,,,,,,,,9,1.983999968,9,0.644000053,1,0,1200,143,1,1199,weekend,11122,2019-10-21_16h48.19.752,SurveyExpMetaMem,3.2.3,Win32,60
,,,,,,,,,,,,,,,,,,,,7,1.586999893,7,0.944999933,1,0,1200,1008,1,1199,gang,11122,2019-10-21_16h48.19.752,SurveyExpMetaMem,3.2.3,Win32,60
,,,,,,,,,,,,,,,,,,,,2,1.924999952,7,0.96999979,1,0,1200,624,1,1199,tower,11122,2019-10-21_16h48.19.752,SurveyExpMetaMem,3.2.3,Win32,60
,,,,,,,,,,,,,,,,,,,,7,1.926999807,1,1.188999891,1,0,1200,288,1,1199,tasty,11122,2019-10-21_16h48.19.752,SurveyExpMetaMem,3.2.3,Win32,60
,,,,,,,,,,,,,,,,,,,,6,9.148999929,3,1.152999878,1,0,1200,387,1,1199,tax,11122,2019-10-21_16h48.19.752,SurveyExpMetaMem,3.2.3,Win32,60
,,,,,,,,,,,,,,,,,,,,8,2.001999855,2,0.580999851,1,0,1200,1049,1,1199,electrocute,11122,2019-10-21_16h48.19.752,SurveyExpMetaMem,3.2.3,Win32,60
,,,,,,,,,,,,,,,,,,,,3,3.423999786,6,1.037999868,1,0,1200,861,1,1199,nectar,11122,2019-10-21_16h48.19.752,SurveyExpMetaMem,3.2.3,Win32,60
,,,,,,,,,,,,,,,,,,,,5,2.337999821,4,0.652999878,1,0,1200,424,1,1199,fault,11122,2019-10-21_16h48.19.752,SurveyExpMetaMem,3.2.3,Win32,60
,,,,,,,,,,,,,,,,,,,,7,2.056999922,8,1.306999922,1,0,1200,76,1,1199,midnight,11122,2019-10-21_16h48.19.752,SurveyExpMetaMem,3.2.3,Win32,60
,,,,,,,,,,,,,,,,,,,,7,3.867999792,7,0.320999861,1,0,1200,111,1,1199,band,11122,2019-10-21_16h48.19.752,SurveyExpMetaMem,3.2.3,Win32,60
,,,,,,,,,,,,,,,,,,,,6,1.361999989,7,0.503999949,1,0,1200,633,1,1199,cattle,11122,2019-10-21_16h48.19.752,SurveyExpMetaMem,3.2.3,Win32,60
,,,,,,,,,,,,,,,,,,,,8,3.167000055,6,0.672999859,1,0,1200,208,1,1199,wild,11122,2019-10-21_16h48.19.752,SurveyExpMetaMem,3.2.3,Win32,60
,,,,,,,,,,,,,,,,,,,,3,1.782999754,4,0.595999956,1,0,1200,511,1,1199,slouch,11122,2019-10-21_16h48.19.752,SurveyExpMetaMem,3.2.3,Win32,60
,,,,,,,,,,,,,,,,,,,,7,4.467000008,5,0.628000021,1,0,1200,1105,1,1199,flee,11122,2019-10-21_16h48.19.752,SurveyExpMetaMem,3.2.3,Win32,60
,,,,,,,,,,,,,,,,,,,,5,2.88499999,5,0.388999939,1,0,1200,374,1,1199,sluggish,11122,2019-10-21_16h48.19.752,SurveyExpMetaMem,3.2.3,Win32,60
,,,,,,,,,,,,,,,,,,,,7,5.018000126,7,2.460000038,1,0,1200,708,1,1199,nursery,11122,2019-10-21_16h48.19.752,SurveyExpMetaMem,3.2.3,Win32,60
,,,,,,,,,,,,,,,,,,,,2,1.575999737,6,1.146999836,1,0,1200,630,1,1199,website,11122,2019-10-21_16h48.19.752,SurveyExpMetaMem,3.2.3,Win32,60
,,,,,,,,,,,,,,,,,,,,5,2.080999851,5,0.427999973,1,0,1200,712,1,1199,harvest,11122,2019-10-21_16h48.19.752,SurveyExpMetaMem,3.2.3,Win32,60
,,,,,,,,,,,,,,,,,,,,2,2.842000008,5,0.897000074,1,0,1200,691,1,1199,circle,11122,2019-10-21_16h48.19.752,SurveyExpMetaMem,3.2.3,Win32,60
,,,,,,,,,,,,,,,,,,,,6,1.835000038,6,0.886999846,1,0,1200,29,1,1199,life,11122,2019-10-21_16h48.19.752,SurveyExpMetaMem,3.2.3,Win32,60
,,,,,,,,,,,,,,,,,,,,7,6.388000011,2,0.547999859,1,0,1200,1081,1,1199,damage,11122,2019-10-21_16h48.19.752,SurveyExpMetaMem,3.2.3,Win32,60
,,,,,,,,,,,,,,,,,,,,7,1.644999981,1,0.874999762,1,0,1200,1056,1,1199,crime,11122,2019-10-21_16h48.19.752,SurveyExpMetaMem,3.2.3,Win32,60
,,,,,,,,,,,,,,,,,,,,6,1.761999846,6,1.319999933,1,0,1200,847,1,1199,moon,11122,2019-10-21_16h48.19.752,SurveyExpMetaMem,3.2.3,Win32,60
,,,,,,,,,,,,,,,,,,,,8,9.231999874,3,0.338000059,1,0,1200,351,1,1199,germs,11122,2019-10-21_16h48.19.752,SurveyExpMetaMem,3.2.3,Win32,60
,,,,,,,,,,,,,,,,,,,,7,1.569000006,6,1.095999956,1,0,1200,108,1,1199,naked,11122,2019-10-21_16h48.19.752,SurveyExpMetaMem,3.2.3,Win32,60
,,,,,,,,,,,,,,,,,,,,2,1.669000149,5,1.086999893,1,0,1200,664,1,1199,quiet,11122,2019-10-21_16h48.19.752,SurveyExpMetaMem,3.2.3,Win32,60
,,,,,,,,,,,,,,,,,,,,7,5.072999954,2,0.648000002,1,0,1200,439,1,1199,spit,11122,2019-10-21_16h48.19.752,SurveyExpMetaMem,3.2.3,Win32,60
,,,,,,,,,,,,,,,,,,,,8,2.30099988,7,2.364999771,1,0,1200,800,1,1199,authentic,11122,2019-10-21_16h48.19.752,SurveyExpMetaMem,3.2.3,Win32,60
,,,,,,,,,,,,,,,,,,,,9,1.743999958,9,0.77699995,1,0,1200,292,1,1199,birthday,11122,2019-10-21_16h48.19.752,SurveyExpMetaMem,3.2.3,Win32,60
,,,,,,,,,,,,,,,,,,,,7,2.254999876,7,0.516000032,1,0,1200,1122,1,1199,gossip,11122,2019-10-21_16h48.19.752,SurveyExpMetaMem,3.2.3,Win32,60
