mouse_4.x,mouse_4.y,mouse_4.leftButton,mouse_4.midButton,mouse_4.rightButton,mouse.x,mouse.y,mouse.leftButton,mouse.midButton,mouse.rightButton,mouse_2.x,mouse_2.y,mouse_2.leftButton,mouse_2.midButton,mouse_2.rightButton,mouse_3.x,mouse_3.y,mouse_3.leftButton,mouse_3.midButton,mouse_3.rightButton,A_key_resp.keys,A_key_resp.rt,key_resp.keys,key_resp.rt,trials.thisRepN,trials.thisTrialN,trials.thisN,trials.thisIndex,trials.ran,trials.order,word,ParticipantID,date,expName,psychopyVersion,OS,frameRate
0.005815972,-0.111176215,1,0,0,0.03187934,-0.313250868,1,0,0,0.15796441,-0.105243056,1,0,0,0.048116319,-0.130772569,1,0,0,3,10.7099998,5,6.187999964,1,0,1200,628,1,1199,chess,11123,2019-10-29_11h53.01.879,SurveyExpMetaMem,3.2.3,MacIntel,60
,,,,,,,,,,,,,,,,,,,,7,3.784999847,5,4.587999821,1,0,1200,832,1,1199,candy,11123,2019-10-29_11h53.01.879,SurveyExpMetaMem,3.2.3,MacIntel,60
,,,,,,,,,,,,,,,,,,,,7,5.677999973,1,4.170000076,1,0,1200,1142,1,1199,disturb,11123,2019-10-29_11h53.01.879,SurveyExpMetaMem,3.2.3,MacIntel,60
,,,,,,,,,,,,,,,,,,,,5,5.506999969,8,2.65199995,1,0,1200,782,1,1199,open,11123,2019-10-29_11h53.01.879,SurveyExpMetaMem,3.2.3,MacIntel,60
,,,,,,,,,,,,,,,,,,,,9,7.178999901,9,1.395999908,1,0,1200,235,1,1199,cheery,11123,2019-10-29_11h53.01.879,SurveyExpMetaMem,3.2.3,MacIntel,60
,,,,,,,,,,,,,,,,,,,,5,40.56699991,8,138.8039999,1,0,1200,239,1,1199,compassionate,11123,2019-10-29_11h53.01.879,SurveyExpMetaMem,3.2.3,MacIntel,60
,,,,,,,,,,,,,,,,,,,,1,2.417999983,9,1.779999971,1,0,1200,895,1,1199,peace,11123,2019-10-29_11h53.01.879,SurveyExpMetaMem,3.2.3,MacIntel,60
,,,,,,,,,,,,,,,,,,,,5,9.782000065,9,2.953000069,1,0,1200,149,1,1199,loved,11123,2019-10-29_11h53.01.879,SurveyExpMetaMem,3.2.3,MacIntel,60
,,,,,,,,,,,,,,,,,,,,1,5.619999886,1,2.187000036,1,0,1200,365,1,1199,discouraged,11123,2019-10-29_11h53.01.879,SurveyExpMetaMem,3.2.3,MacIntel,60
,,,,,,,,,,,,,,,,,,,,3,6.421999931,9,2.615999937,1,0,1200,851,1,1199,cool,11123,2019-10-29_11h53.01.879,SurveyExpMetaMem,3.2.3,MacIntel,60
,,,,,,,,,,,,,,,,,,,,5,38.25999999,1,1.836999893,1,0,1200,332,1,1199,sewage,11123,2019-10-29_11h53.01.879,SurveyExpMetaMem,3.2.3,MacIntel,60
,,,,,,,,,,,,,,,,,,,,5,5.119999886,5,1.880999804,1,0,1200,659,1,1199,hair,11123,2019-10-29_11h53.01.879,SurveyExpMetaMem,3.2.3,MacIntel,60
,,,,,,,,,,,,,,,,,,,,7,3.498999834,5,3.364999771,1,0,1200,1188,1,1199,swear,11123,2019-10-29_11h53.01.879,SurveyExpMetaMem,3.2.3,MacIntel,60
,,,,,,,,,,,,,,,,,,,,5,3.319000006,8,1.18599987,1,0,1200,31,1,1199,brownie,11123,2019-10-29_11h53.01.879,SurveyExpMetaMem,3.2.3,MacIntel,60
,,,,,,,,,,,,,,,,,,,,5,2.820999861,5,2.394000053,1,0,1200,137,1,1199,money,11123,2019-10-29_11h53.01.879,SurveyExpMetaMem,3.2.3,MacIntel,60
,,,,,,,,,,,,,,,,,,,,2,3.030999899,8,1.358999968,1,0,1200,756,1,1199,plant,11123,2019-10-29_11h53.01.879,SurveyExpMetaMem,3.2.3,MacIntel,60
,,,,,,,,,,,,,,,,,,,,5,2.096999884,5,0.433000088,1,0,1200,770,1,1199,buffalo,11123,2019-10-29_11h53.01.879,SurveyExpMetaMem,3.2.3,MacIntel,60
,,,,,,,,,,,,,,,,,,,,5,4.068999767,5,0.291999817,1,0,1200,1045,1,1199,scalding,11123,2019-10-29_11h53.01.879,SurveyExpMetaMem,3.2.3,MacIntel,60
,,,,,,,,,,,,,,,,,,,,3,7.809999943,7,1.429999828,1,0,1200,515,1,1199,blues,11123,2019-10-29_11h53.01.879,SurveyExpMetaMem,3.2.3,MacIntel,60
,,,,,,,,,,,,,,,,,,,,5,4.299999952,3,1.696000099,1,0,1200,330,1,1199,sunburn,11123,2019-10-29_11h53.01.879,SurveyExpMetaMem,3.2.3,MacIntel,60
,,,,,,,,,,,,,,,,,,,,5,3.852999926,5,0.611999989,1,0,1200,652,1,1199,tend,11123,2019-10-29_11h53.01.879,SurveyExpMetaMem,3.2.3,MacIntel,60
,,,,,,,,,,,,,,,,,,,,8,4.130999804,2,1.508999825,1,0,1200,1185,1,1199,shotgun,11123,2019-10-29_11h53.01.879,SurveyExpMetaMem,3.2.3,MacIntel,60
,,,,,,,,,,,,,,,,,,,,5,0.944000006,8,3.046999931,1,0,1200,877,1,1199,bless,11123,2019-10-29_11h53.01.879,SurveyExpMetaMem,3.2.3,MacIntel,60
,,,,,,,,,,,,,,,,,,,,5,2.946999788,5,0.332999945,1,0,1200,133,1,1199,prosperous,11123,2019-10-29_11h53.01.879,SurveyExpMetaMem,3.2.3,MacIntel,60
,,,,,,,,,,,,,,,,,,,,9,3.565000057,9,1.294999838,1,0,1200,175,1,1199,playground,11123,2019-10-29_11h53.01.879,SurveyExpMetaMem,3.2.3,MacIntel,60
,,,,,,,,,,,,,,,,,,,,1,2.009999752,9,1.110999823,1,0,1200,735,1,1199,tea,11123,2019-10-29_11h53.01.879,SurveyExpMetaMem,3.2.3,MacIntel,60
,,,,,,,,,,,,,,,,,,,,1,3.078999996,9,1.108999968,1,0,1200,245,1,1199,beach,11123,2019-10-29_11h53.01.879,SurveyExpMetaMem,3.2.3,MacIntel,60
,,,,,,,,,,,,,,,,,,,,5,2.786000013,5,0.342999697,1,0,1200,790,1,1199,binoculars,11123,2019-10-29_11h53.01.879,SurveyExpMetaMem,3.2.3,MacIntel,60
,,,,,,,,,,,,,,,,,,,,3,2.460999966,8,1.041999817,1,0,1200,857,1,1199,thankful,11123,2019-10-29_11h53.01.879,SurveyExpMetaMem,3.2.3,MacIntel,60
,,,,,,,,,,,,,,,,,,,,1,2.379999876,7,1.500999928,1,0,1200,810,1,1199,polite,11123,2019-10-29_11h53.01.879,SurveyExpMetaMem,3.2.3,MacIntel,60
,,,,,,,,,,,,,,,,,,,,5,5.828999996,2,1.328000069,1,0,1200,427,1,1199,doubt,11123,2019-10-29_11h53.01.879,SurveyExpMetaMem,3.2.3,MacIntel,60
,,,,,,,,,,,,,,,,,,,,3,3.865999937,5,1.763000011,1,0,1200,729,1,1199,velvet,11123,2019-10-29_11h53.01.879,SurveyExpMetaMem,3.2.3,MacIntel,60
,,,,,,,,,,,,,,,,,,,,5,159.6930001,5,5.556999922,1,0,1200,672,1,1199,ketchup,11123,2019-10-29_11h53.01.879,SurveyExpMetaMem,3.2.3,MacIntel,60
,,,,,,,,,,,,,,,,,,,,1,241.6900001,9,1.360999823,1,0,1200,246,1,1199,complete,11123,2019-10-29_11h53.01.879,SurveyExpMetaMem,3.2.3,MacIntel,60
,,,,,,,,,,,,,,,,,,,,9,2.484999895,9,0.97699976,1,0,1200,32,1,1199,festival,11123,2019-10-29_11h53.01.879,SurveyExpMetaMem,3.2.3,MacIntel,60
,,,,,,,,,,,,,,,,,,,,5,1.999000072,5,0.223999739,1,0,1200,620,1,1199,spray,11123,2019-10-29_11h53.01.879,SurveyExpMetaMem,3.2.3,MacIntel,60
,,,,,,,,,,,,,,,,,,,,9,1.75999999,9,0.555999994,1,0,1200,275,1,1199,brilliant,11123,2019-10-29_11h53.01.879,SurveyExpMetaMem,3.2.3,MacIntel,60
,,,,,,,,,,,,,,,,,,,,9,0.25999999,9,5.461999893,1,0,1200,202,1,1199,mercy,11123,2019-10-29_11h53.01.879,SurveyExpMetaMem,3.2.3,MacIntel,60
,,,,,,,,,,,,,,,,,,,,5,4.875999928,1,1.047999859,1,0,1200,945,1,1199,demon,11123,2019-10-29_11h53.01.879,SurveyExpMetaMem,3.2.3,MacIntel,60
,,,,,,,,,,,,,,,,,,,,9,2.111999989,1,1.016000032,1,0,1200,956,1,1199,crushed,11123,2019-10-29_11h53.01.879,SurveyExpMetaMem,3.2.3,MacIntel,60
,,,,,,,,,,,,,,,,,,,,5,5.539000034,4,2.521999836,1,0,1200,400,1,1199,urine,11123,2019-10-29_11h53.01.879,SurveyExpMetaMem,3.2.3,MacIntel,60
,,,,,,,,,,,,,,,,,,,,5,5.421999931,5,1.246999979,1,0,1200,479,1,1199,period,11123,2019-10-29_11h53.01.879,SurveyExpMetaMem,3.2.3,MacIntel,60
,,,,,,,,,,,,,,,,,,,,5,7.341999769,1,2.481999874,1,0,1200,487,1,1199,junk,11123,2019-10-29_11h53.01.879,SurveyExpMetaMem,3.2.3,MacIntel,60
,,,,,,,,,,,,,,,,,,,,5,1.757999897,5,0.356999874,1,0,1200,501,1,1199,dustpan,11123,2019-10-29_11h53.01.879,SurveyExpMetaMem,3.2.3,MacIntel,60
,,,,,,,,,,,,,,,,,,,,1,1.729000092,3,1.93599987,1,0,1200,433,1,1199,uninteresting,11123,2019-10-29_11h53.01.879,SurveyExpMetaMem,3.2.3,MacIntel,60
,,,,,,,,,,,,,,,,,,,,5,3.917999744,5,0.325000048,1,0,1200,283,1,1199,elated,11123,2019-10-29_11h53.01.879,SurveyExpMetaMem,3.2.3,MacIntel,60
,,,,,,,,,,,,,,,,,,,,5,1.407000065,5,0.291999817,1,0,1200,514,1,1199,defer,11123,2019-10-29_11h53.01.879,SurveyExpMetaMem,3.2.3,MacIntel,60
,,,,,,,,,,,,,,,,,,,,3,4.575999737,5,1.376999855,1,0,1200,550,1,1199,fart,11123,2019-10-29_11h53.01.879,SurveyExpMetaMem,3.2.3,MacIntel,60
,,,,,,,,,,,,,,,,,,,,5,4.715999842,3,1.264999866,1,0,1200,999,1,1199,burdened,11123,2019-10-29_11h53.01.879,SurveyExpMetaMem,3.2.3,MacIntel,60
,,,,,,,,,,,,,,,,,,,,1,2.404000044,2,2.097000122,1,0,1200,438,1,1199,dull,11123,2019-10-29_11h53.01.879,SurveyExpMetaMem,3.2.3,MacIntel,60
,,,,,,,,,,,,,,,,,,,,8,2.911999941,9,1.647000074,1,0,1200,117,1,1199,powerful,11123,2019-10-29_11h53.01.879,SurveyExpMetaMem,3.2.3,MacIntel,60
,,,,,,,,,,,,,,,,,,,,5,2.434999943,5,0.75999999,1,0,1200,1104,1,1199,avalanche,11123,2019-10-29_11h53.01.879,SurveyExpMetaMem,3.2.3,MacIntel,60
,,,,,,,,,,,,,,,,,,,,5,5.687000036,7,1.81400013,1,0,1200,845,1,1199,honey,11123,2019-10-29_11h53.01.879,SurveyExpMetaMem,3.2.3,MacIntel,60
,,,,,,,,,,,,,,,,,,,,3,12.56100011,2,2.419999838,1,0,1200,1064,1,1199,sinful,11123,2019-10-29_11h53.01.879,SurveyExpMetaMem,3.2.3,MacIntel,60
,,,,,,,,,,,,,,,,,,,,3,2.363999844,8,4.517999887,1,0,1200,841,1,1199,bathtub,11123,2019-10-29_11h53.01.879,SurveyExpMetaMem,3.2.3,MacIntel,60
,,,,,,,,,,,,,,,,,,,,5,39.78299999,1,1.200999975,1,0,1200,916,1,1199,starvation,11123,2019-10-29_11h53.01.879,SurveyExpMetaMem,3.2.3,MacIntel,60
,,,,,,,,,,,,,,,,,,,,2,10.8599999,7,1.519999981,1,0,1200,811,1,1199,tenderness,11123,2019-10-29_11h53.01.879,SurveyExpMetaMem,3.2.3,MacIntel,60
,,,,,,,,,,,,,,,,,,,,5,2.882999897,1,0.89199996,1,0,1200,1081,1,1199,damage,11123,2019-10-29_11h53.01.879,SurveyExpMetaMem,3.2.3,MacIntel,60
,,,,,,,,,,,,,,,,,,,,5,7.311999798,5,0.384000063,1,0,1200,582,1,1199,cling,11123,2019-10-29_11h53.01.879,SurveyExpMetaMem,3.2.3,MacIntel,60
,,,,,,,,,,,,,,,,,,,,5,7.422999859,1,1.309999943,1,0,1200,972,1,1199,homicide,11123,2019-10-29_11h53.01.879,SurveyExpMetaMem,3.2.3,MacIntel,60
,,,,,,,,,,,,,,,,,,,,5,3.26699996,5,0.325999975,1,0,1200,690,1,1199,similar,11123,2019-10-29_11h53.01.879,SurveyExpMetaMem,3.2.3,MacIntel,60
,,,,,,,,,,,,,,,,,,,,3,22.28499985,5,1.879999876,1,0,1200,263,1,1199,answer,11123,2019-10-29_11h53.01.879,SurveyExpMetaMem,3.2.3,MacIntel,60
,,,,,,,,,,,,,,,,,,,,8,99.7249999,6,4.486999989,1,0,1200,254,1,1199,crush,11123,2019-10-29_11h53.01.879,SurveyExpMetaMem,3.2.3,MacIntel,60
,,,,,,,,,,,,,,,,,,,,7,7.720999956,3,1.441999912,1,0,1200,383,1,1199,messy,11123,2019-10-29_11h53.01.879,SurveyExpMetaMem,3.2.3,MacIntel,60
,,,,,,,,,,,,,,,,,,,,5,4.224999905,1,1.213999987,1,0,1200,1130,1,1199,slut,11123,2019-10-29_11h53.01.879,SurveyExpMetaMem,3.2.3,MacIntel,60
,,,,,,,,,,,,,,,,,,,,5,4.222000122,5,0.94299984,1,0,1200,584,1,1199,anus,11123,2019-10-29_11h53.01.879,SurveyExpMetaMem,3.2.3,MacIntel,60
,,,,,,,,,,,,,,,,,,,,5,4.483999968,5,0.382999897,1,0,1200,830,1,1199,pear,11123,2019-10-29_11h53.01.879,SurveyExpMetaMem,3.2.3,MacIntel,60
,,,,,,,,,,,,,,,,,,,,2,22.13100004,7,6.724999905,1,0,1200,836,1,1199,lounge,11123,2019-10-29_11h53.01.879,SurveyExpMetaMem,3.2.3,MacIntel,60
,,,,,,,,,,,,,,,,,,,,1,2.409999847,9,1.96999979,1,0,1200,737,1,1199,lamb,11123,2019-10-29_11h53.01.879,SurveyExpMetaMem,3.2.3,MacIntel,60
,,,,,,,,,,,,,,,,,,,,3,9.061999798,7,8.951999903,1,0,1200,609,1,1199,candlestick,11123,2019-10-29_11h53.01.879,SurveyExpMetaMem,3.2.3,MacIntel,60
,,,,,,,,,,,,,,,,,,,,5,35.55299997,5,0.157999992,1,0,1200,579,1,1199,bus,11123,2019-10-29_11h53.01.879,SurveyExpMetaMem,3.2.3,MacIntel,60
,,,,,,,,,,,,,,,,,,,,5,1.657999754,5,0.15899992,1,0,1200,625,1,1199,hat,11123,2019-10-29_11h53.01.879,SurveyExpMetaMem,3.2.3,MacIntel,60
,,,,,,,,,,,,,,,,,,,,5,2.143999815,5,0.205999851,1,0,1200,504,1,1199,cane,11123,2019-10-29_11h53.01.879,SurveyExpMetaMem,3.2.3,MacIntel,60
,,,,,,,,,,,,,,,,,,,,5,3.785000086,5,0.182999849,1,0,1200,715,1,1199,sheltered,11123,2019-10-29_11h53.01.879,SurveyExpMetaMem,3.2.3,MacIntel,60
,,,,,,,,,,,,,,,,,,,,9,2.213999987,1,1.161999941,1,0,1200,912,1,1199,rabies,11123,2019-10-29_11h53.01.879,SurveyExpMetaMem,3.2.3,MacIntel,60
,,,,,,,,,,,,,,,,,,,,9,1.733999968,5,0.910999775,1,0,1200,1166,1,1199,compulsive,11123,2019-10-29_11h53.01.879,SurveyExpMetaMem,3.2.3,MacIntel,60
,,,,,,,,,,,,,,,,,,,,9,1.765999794,2,1.32799983,1,0,1200,1065,1,1199,slap,11123,2019-10-29_11h53.01.879,SurveyExpMetaMem,3.2.3,MacIntel,60
,,,,,,,,,,,,,,,,,,,,5,2.653999805,5,0.174000025,1,0,1200,629,1,1199,barn,11123,2019-10-29_11h53.01.879,SurveyExpMetaMem,3.2.3,MacIntel,60
,,,,,,,,,,,,,,,,,,,,5,2.615999937,2,1.059000015,1,0,1200,1022,1,1199,creepy,11123,2019-10-29_11h53.01.879,SurveyExpMetaMem,3.2.3,MacIntel,60
,,,,,,,,,,,,,,,,,,,,3,3.669999838,6,2.128000021,1,0,1200,674,1,1199,fitting,11123,2019-10-29_11h53.01.879,SurveyExpMetaMem,3.2.3,MacIntel,60
,,,,,,,,,,,,,,,,,,,,8,2.726999998,3,1.921000004,1,0,1200,1040,1,1199,communism,11123,2019-10-29_11h53.01.879,SurveyExpMetaMem,3.2.3,MacIntel,60
,,,,,,,,,,,,,,,,,,,,1,37.92400002,9,1.53399992,1,0,1200,899,1,1199,relax,11123,2019-10-29_11h53.01.879,SurveyExpMetaMem,3.2.3,MacIntel,60
,,,,,,,,,,,,,,,,,,,,5,5.277999878,5,0.389999866,1,0,1200,279,1,1199,bargain,11123,2019-10-29_11h53.01.879,SurveyExpMetaMem,3.2.3,MacIntel,60
,,,,,,,,,,,,,,,,,,,,5,3.930999994,5,0.174000025,1,0,1200,791,1,1199,shoes,11123,2019-10-29_11h53.01.879,SurveyExpMetaMem,3.2.3,MacIntel,60
,,,,,,,,,,,,,,,,,,,,5,1.277999878,5,0.226999998,1,0,1200,612,1,1199,propeller,11123,2019-10-29_11h53.01.879,SurveyExpMetaMem,3.2.3,MacIntel,60
,,,,,,,,,,,,,,,,,,,,5,4.184999943,8,1.076999903,1,0,1200,162,1,1199,royalty,11123,2019-10-29_11h53.01.879,SurveyExpMetaMem,3.2.3,MacIntel,60
,,,,,,,,,,,,,,,,,,,,8,5.679999828,3,1.40899992,1,0,1200,431,1,1199,itch,11123,2019-10-29_11h53.01.879,SurveyExpMetaMem,3.2.3,MacIntel,60
,,,,,,,,,,,,,,,,,,,,3,147.5509999,8,1.041999817,1,0,1200,191,1,1199,compassion,11123,2019-10-29_11h53.01.879,SurveyExpMetaMem,3.2.3,MacIntel,60
,,,,,,,,,,,,,,,,,,,,5,2.400000095,5,0.835000038,1,0,1200,1180,1,1199,heat,11123,2019-10-29_11h53.01.879,SurveyExpMetaMem,3.2.3,MacIntel,60
,,,,,,,,,,,,,,,,,,,,5,3.635999918,1,1.109999895,1,0,1200,310,1,1199,lonely,11123,2019-10-29_11h53.01.879,SurveyExpMetaMem,3.2.3,MacIntel,60
,,,,,,,,,,,,,,,,,,,,5,3.488999844,5,0.45600009,1,0,1200,750,1,1199,porpoise,11123,2019-10-29_11h53.01.879,SurveyExpMetaMem,3.2.3,MacIntel,60
,,,,,,,,,,,,,,,,,,,,5,19.32899976,3,1.127000093,1,0,1200,453,1,1199,prude,11123,2019-10-29_11h53.01.879,SurveyExpMetaMem,3.2.3,MacIntel,60
,,,,,,,,,,,,,,,,,,,,7,9.515999794,5,2.650999784,1,0,1200,72,1,1199,attract,11123,2019-10-29_11h53.01.879,SurveyExpMetaMem,3.2.3,MacIntel,60
,,,,,,,,,,,,,,,,,,,,5,1.573999882,5,0.243000031,1,0,1200,815,1,1199,apple,11123,2019-10-29_11h53.01.879,SurveyExpMetaMem,3.2.3,MacIntel,60
,,,,,,,,,,,,,,,,,,,,5,2.847999811,5,0.205999851,1,0,1200,596,1,1199,factory,11123,2019-10-29_11h53.01.879,SurveyExpMetaMem,3.2.3,MacIntel,60
,,,,,,,,,,,,,,,,,,,,9,2.032999992,9,0.957999945,1,0,1200,242,1,1199,triumph,11123,2019-10-29_11h53.01.879,SurveyExpMetaMem,3.2.3,MacIntel,60
,,,,,,,,,,,,,,,,,,,,5,6.967000008,5,0.230999947,1,0,1200,220,1,1199,reef,11123,2019-10-29_11h53.01.879,SurveyExpMetaMem,3.2.3,MacIntel,60
,,,,,,,,,,,,,,,,,,,,3,3.420999765,5,1.616999865,1,0,1200,847,1,1199,moon,11123,2019-10-29_11h53.01.879,SurveyExpMetaMem,3.2.3,MacIntel,60
,,,,,,,,,,,,,,,,,,,,5,1.514999866,5,0.259000063,1,0,1200,522,1,1199,cleft,11123,2019-10-29_11h53.01.879,SurveyExpMetaMem,3.2.3,MacIntel,60
,,,,,,,,,,,,,,,,,,,,3,2.079999924,5,1.561999798,1,0,1200,794,1,1199,pray,11123,2019-10-29_11h53.01.879,SurveyExpMetaMem,3.2.3,MacIntel,60
,,,,,,,,,,,,,,,,,,,,7,4.467000008,2,3.926000118,1,0,1200,906,1,1199,syphilis,11123,2019-10-29_11h53.01.879,SurveyExpMetaMem,3.2.3,MacIntel,60
,,,,,,,,,,,,,,,,,,,,5,1.657999992,5,1.125999928,1,0,1200,1181,1,1199,blade,11123,2019-10-29_11h53.01.879,SurveyExpMetaMem,3.2.3,MacIntel,60
,,,,,,,,,,,,,,,,,,,,9,3.246000051,1,1.057999849,1,0,1200,969,1,1199,whore,11123,2019-10-29_11h53.01.879,SurveyExpMetaMem,3.2.3,MacIntel,60
,,,,,,,,,,,,,,,,,,,,5,1.90899992,5,0.282999992,1,0,1200,699,1,1199,leg,11123,2019-10-29_11h53.01.879,SurveyExpMetaMem,3.2.3,MacIntel,60
,,,,,,,,,,,,,,,,,,,,8,2.655999899,7,1.710999966,1,0,1200,17,1,1199,outgoing,11123,2019-10-29_11h53.01.879,SurveyExpMetaMem,3.2.3,MacIntel,60
,,,,,,,,,,,,,,,,,,,,9,2.860999823,5,2.267999887,1,0,1200,100,1,1199,intense,11123,2019-10-29_11h53.01.879,SurveyExpMetaMem,3.2.3,MacIntel,60
,,,,,,,,,,,,,,,,,,,,3,5.118999958,4,1.07799983,1,0,1200,470,1,1199,cynical,11123,2019-10-29_11h53.01.879,SurveyExpMetaMem,3.2.3,MacIntel,60
,,,,,,,,,,,,,,,,,,,,9,1.934999943,1,0.893999815,1,0,1200,1125,1,1199,outrage,11123,2019-10-29_11h53.01.879,SurveyExpMetaMem,3.2.3,MacIntel,60
,,,,,,,,,,,,,,,,,,,,5,2.370000124,5,0.346999884,1,0,1200,622,1,1199,revere,11123,2019-10-29_11h53.01.879,SurveyExpMetaMem,3.2.3,MacIntel,60
,,,,,,,,,,,,,,,,,,,,5,2.982999802,5,0.214999914,1,0,1200,448,1,1199,depart,11123,2019-10-29_11h53.01.879,SurveyExpMetaMem,3.2.3,MacIntel,60
,,,,,,,,,,,,,,,,,,,,3,4.557999849,3,1.062999964,1,0,1200,363,1,1199,dumb,11123,2019-10-29_11h53.01.879,SurveyExpMetaMem,3.2.3,MacIntel,60
,,,,,,,,,,,,,,,,,,,,5,5.166999817,5,0.53399992,1,0,1200,974,1,1199,roach,11123,2019-10-29_11h53.01.879,SurveyExpMetaMem,3.2.3,MacIntel,60
,,,,,,,,,,,,,,,,,,,,7,2.86500001,1,1.141999722,1,0,1200,441,1,1199,prohibit,11123,2019-10-29_11h53.01.879,SurveyExpMetaMem,3.2.3,MacIntel,60
,,,,,,,,,,,,,,,,,,,,5,17.74399996,5,0.190999985,1,0,1200,714,1,1199,courtyard,11123,2019-10-29_11h53.01.879,SurveyExpMetaMem,3.2.3,MacIntel,60
,,,,,,,,,,,,,,,,,,,,9,15.50399971,1,1.558000088,1,0,1200,1031,1,1199,fear,11123,2019-10-29_11h53.01.879,SurveyExpMetaMem,3.2.3,MacIntel,60
,,,,,,,,,,,,,,,,,,,,7,2.998999834,3,1.098999977,1,0,1200,357,1,1199,whine,11123,2019-10-29_11h53.01.879,SurveyExpMetaMem,3.2.3,MacIntel,60
,,,,,,,,,,,,,,,,,,,,8,6.662999868,4,0.893999815,1,0,1200,1144,1,1199,yelp,11123,2019-10-29_11h53.01.879,SurveyExpMetaMem,3.2.3,MacIntel,60
,,,,,,,,,,,,,,,,,,,,3,2.484999895,5,0.706999779,1,0,1200,492,1,1199,naive,11123,2019-10-29_11h53.01.879,SurveyExpMetaMem,3.2.3,MacIntel,60
,,,,,,,,,,,,,,,,,,,,3,7.329999924,8,2.411999941,1,0,1200,83,1,1199,appreciative,11123,2019-10-29_11h53.01.879,SurveyExpMetaMem,3.2.3,MacIntel,60
,,,,,,,,,,,,,,,,,,,,9,1.890999794,1,0.823999882,1,0,1200,1152,1,1199,scream,11123,2019-10-29_11h53.01.879,SurveyExpMetaMem,3.2.3,MacIntel,60
,,,,,,,,,,,,,,,,,,,,7,4.48699975,1,1.006999731,1,0,1200,923,1,1199,punish,11123,2019-10-29_11h53.01.879,SurveyExpMetaMem,3.2.3,MacIntel,60
,,,,,,,,,,,,,,,,,,,,5,1.24000001,5,0.389999866,1,0,1200,742,1,1199,window,11123,2019-10-29_11h53.01.879,SurveyExpMetaMem,3.2.3,MacIntel,60
,,,,,,,,,,,,,,,,,,,,3,8.052999973,1,1.057999849,1,0,1200,302,1,1199,loneliness,11123,2019-10-29_11h53.01.879,SurveyExpMetaMem,3.2.3,MacIntel,60
,,,,,,,,,,,,,,,,,,,,9,6.791999817,9,2.496999979,1,0,1200,170,1,1199,entertainment,11123,2019-10-29_11h53.01.879,SurveyExpMetaMem,3.2.3,MacIntel,60
,,,,,,,,,,,,,,,,,,,,5,2.042999983,5,0.256000042,1,0,1200,692,1,1199,medicine,11123,2019-10-29_11h53.01.879,SurveyExpMetaMem,3.2.3,MacIntel,60
,,,,,,,,,,,,,,,,,,,,5,2.042999983,5,0.424999952,1,0,1200,84,1,1199,eat,11123,2019-10-29_11h53.01.879,SurveyExpMetaMem,3.2.3,MacIntel,60
,,,,,,,,,,,,,,,,,,,,9,1.992999792,9,0.647999763,1,0,1200,40,1,1199,kissing,11123,2019-10-29_11h53.01.879,SurveyExpMetaMem,3.2.3,MacIntel,60
,,,,,,,,,,,,,,,,,,,,5,1.980999947,5,0.373999834,1,0,1200,338,1,1199,obesity,11123,2019-10-29_11h53.01.879,SurveyExpMetaMem,3.2.3,MacIntel,60
,,,,,,,,,,,,,,,,,,,,7,3.430000067,7,0.656000137,1,0,1200,602,1,1199,vegetable,11123,2019-10-29_11h53.01.879,SurveyExpMetaMem,3.2.3,MacIntel,60
,,,,,,,,,,,,,,,,,,,,5,1.997999907,5,0.314999819,1,0,1200,607,1,1199,greyhound,11123,2019-10-29_11h53.01.879,SurveyExpMetaMem,3.2.3,MacIntel,60
,,,,,,,,,,,,,,,,,,,,5,1.147999763,5,0.371000051,1,0,1200,114,1,1199,raise,11123,2019-10-29_11h53.01.879,SurveyExpMetaMem,3.2.3,MacIntel,60
,,,,,,,,,,,,,,,,,,,,9,3.715999842,1,2.149999857,1,0,1200,946,1,1199,amputate,11123,2019-10-29_11h53.01.879,SurveyExpMetaMem,3.2.3,MacIntel,60
,,,,,,,,,,,,,,,,,,,,5,5.172999859,1,4.069000006,1,0,1200,355,1,1199,graveyard,11123,2019-10-29_11h53.01.879,SurveyExpMetaMem,3.2.3,MacIntel,60
,,,,,,,,,,,,,,,,,,,,5,6.088000059,5,0.20600009,1,0,1200,372,1,1199,inferior,11123,2019-10-29_11h53.01.879,SurveyExpMetaMem,3.2.3,MacIntel,60
,,,,,,,,,,,,,,,,,,,,5,18.05899978,5,0.195999861,1,0,1200,518,1,1199,report,11123,2019-10-29_11h53.01.879,SurveyExpMetaMem,3.2.3,MacIntel,60
,,,,,,,,,,,,,,,,,,,,5,2.727999926,5,0.197000027,1,0,1200,779,1,1199,shampoo,11123,2019-10-29_11h53.01.879,SurveyExpMetaMem,3.2.3,MacIntel,60
,,,,,,,,,,,,,,,,,,,,8,4.644999743,5,0.891000032,1,0,1200,118,1,1199,conquer,11123,2019-10-29_11h53.01.879,SurveyExpMetaMem,3.2.3,MacIntel,60
,,,,,,,,,,,,,,,,,,,,5,6.24000001,5,0.190999985,1,0,1200,724,1,1199,owl,11123,2019-10-29_11h53.01.879,SurveyExpMetaMem,3.2.3,MacIntel,60
,,,,,,,,,,,,,,,,,,,,5,1.962999821,5,0.157999992,1,0,1200,783,1,1199,sprinkle,11123,2019-10-29_11h53.01.879,SurveyExpMetaMem,3.2.3,MacIntel,60
,,,,,,,,,,,,,,,,,,,,3,3.322999954,5,1.201999903,1,0,1200,276,1,1199,pastry,11123,2019-10-29_11h53.01.879,SurveyExpMetaMem,3.2.3,MacIntel,60
,,,,,,,,,,,,,,,,,,,,5,1.224999905,5,0.281999826,1,0,1200,748,1,1199,town,11123,2019-10-29_11h53.01.879,SurveyExpMetaMem,3.2.3,MacIntel,60
,,,,,,,,,,,,,,,,,,,,3,1.877999783,7,1.225000143,1,0,1200,837,1,1199,responsible,11123,2019-10-29_11h53.01.879,SurveyExpMetaMem,3.2.3,MacIntel,60
,,,,,,,,,,,,,,,,,,,,5,0.828999996,5,0.608999968,1,0,1200,1108,1,1199,spider,11123,2019-10-29_11h53.01.879,SurveyExpMetaMem,3.2.3,MacIntel,60
,,,,,,,,,,,,,,,,,,,,5,1.590999842,5,0.426999807,1,0,1200,689,1,1199,land,11123,2019-10-29_11h53.01.879,SurveyExpMetaMem,3.2.3,MacIntel,60
,,,,,,,,,,,,,,,,,,,,5,0.711999893,5,0.29399991,1,0,1200,557,1,1199,class,11123,2019-10-29_11h53.01.879,SurveyExpMetaMem,3.2.3,MacIntel,60
,,,,,,,,,,,,,,,,,,,,5,0.698999882,5,0.274999857,1,0,1200,749,1,1199,glasses,11123,2019-10-29_11h53.01.879,SurveyExpMetaMem,3.2.3,MacIntel,60
,,,,,,,,,,,,,,,,,,,,5,2.916999817,3,1.000999928,1,0,1200,327,1,1199,misfortune,11123,2019-10-29_11h53.01.879,SurveyExpMetaMem,3.2.3,MacIntel,60
,,,,,,,,,,,,,,,,,,,,5,1.563999891,5,0.434000015,1,0,1200,312,1,1199,stench,11123,2019-10-29_11h53.01.879,SurveyExpMetaMem,3.2.3,MacIntel,60
,,,,,,,,,,,,,,,,,,,,5,0.782999992,5,0.266000032,1,0,1200,232,1,1199,prosper,11123,2019-10-29_11h53.01.879,SurveyExpMetaMem,3.2.3,MacIntel,60
,,,,,,,,,,,,,,,,,,,,5,1.074999809,5,0.34800005,1,0,1200,19,1,1199,firefighter,11123,2019-10-29_11h53.01.879,SurveyExpMetaMem,3.2.3,MacIntel,60
,,,,,,,,,,,,,,,,,,,,3,0.275000095,5,0.776000023,1,0,1200,693,1,1199,key,11123,2019-10-29_11h53.01.879,SurveyExpMetaMem,3.2.3,MacIntel,60
,,,,,,,,,,,,,,,,,,,,5,0.254999876,5,3.736999989,1,0,1200,122,1,1199,prince,11123,2019-10-29_11h53.01.879,SurveyExpMetaMem,3.2.3,MacIntel,60
,,,,,,,,,,,,,,,,,,,,9,20.13499999,1,0.993999958,1,0,1200,924,1,1199,terrible,11123,2019-10-29_11h53.01.879,SurveyExpMetaMem,3.2.3,MacIntel,60
,,,,,,,,,,,,,,,,,,,,9,2.977999926,1,0.646999836,1,0,1200,1171,1,1199,chaos,11123,2019-10-29_11h53.01.879,SurveyExpMetaMem,3.2.3,MacIntel,60
,,,,,,,,,,,,,,,,,,,,9,2.377000093,1,0.618000031,1,0,1200,1095,1,1199,fright,11123,2019-10-29_11h53.01.879,SurveyExpMetaMem,3.2.3,MacIntel,60
,,,,,,,,,,,,,,,,,,,,9,1.493999958,1,0.591999769,1,0,1200,1014,1,1199,destroy,11123,2019-10-29_11h53.01.879,SurveyExpMetaMem,3.2.3,MacIntel,60
,,,,,,,,,,,,,,,,,,,,4,3.949999809,8,1.602999926,1,0,1200,172,1,1199,potential,11123,2019-10-29_11h53.01.879,SurveyExpMetaMem,3.2.3,MacIntel,60
,,,,,,,,,,,,,,,,,,,,5,1.644999981,5,0.409999847,1,0,1200,591,1,1199,bereavement,11123,2019-10-29_11h53.01.879,SurveyExpMetaMem,3.2.3,MacIntel,60
,,,,,,,,,,,,,,,,,,,,9,1.760999918,1,0.524999857,1,0,1200,1051,1,1199,insane,11123,2019-10-29_11h53.01.879,SurveyExpMetaMem,3.2.3,MacIntel,60
,,,,,,,,,,,,,,,,,,,,5,2.762999773,2,1.495000124,1,0,1200,475,1,1199,nameless,11123,2019-10-29_11h53.01.879,SurveyExpMetaMem,3.2.3,MacIntel,60
,,,,,,,,,,,,,,,,,,,,9,2.566999912,1,0.467999935,1,0,1200,340,1,1199,coward,11123,2019-10-29_11h53.01.879,SurveyExpMetaMem,3.2.3,MacIntel,60
,,,,,,,,,,,,,,,,,,,,5,1.157999992,5,0.171999931,1,0,1200,107,1,1199,sandwich,11123,2019-10-29_11h53.01.879,SurveyExpMetaMem,3.2.3,MacIntel,60
,,,,,,,,,,,,,,,,,,,,5,2.25,5,0.174999714,1,0,1200,755,1,1199,soap,11123,2019-10-29_11h53.01.879,SurveyExpMetaMem,3.2.3,MacIntel,60
,,,,,,,,,,,,,,,,,,,,9,21.40799999,1,1.967999935,1,0,1200,469,1,1199,resent,11123,2019-10-29_11h53.01.879,SurveyExpMetaMem,3.2.3,MacIntel,60
,,,,,,,,,,,,,,,,,,,,2,4.351999998,7,4.369999886,1,0,1200,787,1,1199,dawn,11123,2019-10-29_11h53.01.879,SurveyExpMetaMem,3.2.3,MacIntel,60
,,,,,,,,,,,,,,,,,,,,5,1.160999775,5,0.210999966,1,0,1200,793,1,1199,virtue,11123,2019-10-29_11h53.01.879,SurveyExpMetaMem,3.2.3,MacIntel,60
,,,,,,,,,,,,,,,,,,,,8,3.112999916,1,0.842000008,1,0,1200,983,1,1199,demonic,11123,2019-10-29_11h53.01.879,SurveyExpMetaMem,3.2.3,MacIntel,60
,,,,,,,,,,,,,,,,,,,,5,3.150999784,5,0.193000078,1,0,1200,808,1,1199,violinist,11123,2019-10-29_11h53.01.879,SurveyExpMetaMem,3.2.3,MacIntel,60
,,,,,,,,,,,,,,,,,,,,5,0.956999779,5,0.157999754,1,0,1200,434,1,1199,frail,11123,2019-10-29_11h53.01.879,SurveyExpMetaMem,3.2.3,MacIntel,60
,,,,,,,,,,,,,,,,,,,,1,2.044999838,1,0.727999926,1,0,1200,481,1,1199,melancholy,11123,2019-10-29_11h53.01.879,SurveyExpMetaMem,3.2.3,MacIntel,60
,,,,,,,,,,,,,,,,,,,,8,3.616999865,7,1.008999825,1,0,1200,77,1,1199,adore,11123,2019-10-29_11h53.01.879,SurveyExpMetaMem,3.2.3,MacIntel,60
,,,,,,,,,,,,,,,,,,,,5,1.200000048,5,0.388999939,1,0,1200,563,1,1199,stupor,11123,2019-10-29_11h53.01.879,SurveyExpMetaMem,3.2.3,MacIntel,60
,,,,,,,,,,,,,,,,,,,,5,2.945999861,5,0.207999945,1,0,1200,449,1,1199,egotistical,11123,2019-10-29_11h53.01.879,SurveyExpMetaMem,3.2.3,MacIntel,60
,,,,,,,,,,,,,,,,,,,,8,3.055000067,8,1.262000084,1,0,1200,198,1,1199,comedy,11123,2019-10-29_11h53.01.879,SurveyExpMetaMem,3.2.3,MacIntel,60
,,,,,,,,,,,,,,,,,,,,4,28.148,2,1.108999968,1,0,1200,347,1,1199,unpleasant,11123,2019-10-29_11h53.01.879,SurveyExpMetaMem,3.2.3,MacIntel,60
,,,,,,,,,,,,,,,,,,,,5,1.76699996,5,0.213999748,1,0,1200,168,1,1199,mate,11123,2019-10-29_11h53.01.879,SurveyExpMetaMem,3.2.3,MacIntel,60
,,,,,,,,,,,,,,,,,,,,8,1.978999853,2,0.746999979,1,0,1200,960,1,1199,irritated,11123,2019-10-29_11h53.01.879,SurveyExpMetaMem,3.2.3,MacIntel,60
,,,,,,,,,,,,,,,,,,,,5,1.993999958,5,0.239000082,1,0,1200,206,1,1199,comet,11123,2019-10-29_11h53.01.879,SurveyExpMetaMem,3.2.3,MacIntel,60
,,,,,,,,,,,,,,,,,,,,5,3.635999918,5,0.177999973,1,0,1200,764,1,1199,coin,11123,2019-10-29_11h53.01.879,SurveyExpMetaMem,3.2.3,MacIntel,60
,,,,,,,,,,,,,,,,,,,,5,1.451999903,5,0.174999952,1,0,1200,428,1,1199,end,11123,2019-10-29_11h53.01.879,SurveyExpMetaMem,3.2.3,MacIntel,60
,,,,,,,,,,,,,,,,,,,,5,0.955999851,5,0.171999931,1,0,1200,132,1,1199,silly,11123,2019-10-29_11h53.01.879,SurveyExpMetaMem,3.2.3,MacIntel,60
,,,,,,,,,,,,,,,,,,,,5,0.843999863,5,0.173999786,1,0,1200,43,1,1199,diamond,11123,2019-10-29_11h53.01.879,SurveyExpMetaMem,3.2.3,MacIntel,60
,,,,,,,,,,,,,,,,,,,,5,0.790999889,5,0.172999859,1,0,1200,723,1,1199,cinnamon,11123,2019-10-29_11h53.01.879,SurveyExpMetaMem,3.2.3,MacIntel,60
,,,,,,,,,,,,,,,,,,,,8,12.99199986,2,0.633999825,1,0,1200,1016,1,1199,awful,11123,2019-10-29_11h53.01.879,SurveyExpMetaMem,3.2.3,MacIntel,60
,,,,,,,,,,,,,,,,,,,,8,1.597999811,2,0.122999907,1,0,1200,531,1,1199,omit,11123,2019-10-29_11h53.01.879,SurveyExpMetaMem,3.2.3,MacIntel,60
,,,,,,,,,,,,,,,,,,,,5,4.93599987,5,0.124000072,1,0,1200,728,1,1199,patio,11123,2019-10-29_11h53.01.879,SurveyExpMetaMem,3.2.3,MacIntel,60
,,,,,,,,,,,,,,,,,,,,1,2.697000027,1,0.541999817,1,0,1200,900,1,1199,suicide,11123,2019-10-29_11h53.01.879,SurveyExpMetaMem,3.2.3,MacIntel,60
,,,,,,,,,,,,,,,,,,,,5,1.637000084,5,0.224999905,1,0,1200,681,1,1199,fig,11123,2019-10-29_11h53.01.879,SurveyExpMetaMem,3.2.3,MacIntel,60
,,,,,,,,,,,,,,,,,,,,5,5.487999916,4,0.883000135,1,0,1200,325,1,1199,disability,11123,2019-10-29_11h53.01.879,SurveyExpMetaMem,3.2.3,MacIntel,60
,,,,,,,,,,,,,,,,,,,,5,4.087000132,2,1.008999825,1,0,1200,583,1,1199,obey,11123,2019-10-29_11h53.01.879,SurveyExpMetaMem,3.2.3,MacIntel,60
,,,,,,,,,,,,,,,,,,,,5,0.891000032,5,0.195999861,1,0,1200,119,1,1199,stereo,11123,2019-10-29_11h53.01.879,SurveyExpMetaMem,3.2.3,MacIntel,60
,,,,,,,,,,,,,,,,,,,,5,1.006999969,5,0.177999973,1,0,1200,512,1,1199,insect,11123,2019-10-29_11h53.01.879,SurveyExpMetaMem,3.2.3,MacIntel,60
,,,,,,,,,,,,,,,,,,,,9,7.04399991,1,1.184000015,1,0,1200,986,1,1199,mad,11123,2019-10-29_11h53.01.879,SurveyExpMetaMem,3.2.3,MacIntel,60
,,,,,,,,,,,,,,,,,,,,5,1.384000063,5,0.172999859,1,0,1200,455,1,1199,chubby,11123,2019-10-29_11h53.01.879,SurveyExpMetaMem,3.2.3,MacIntel,60
,,,,,,,,,,,,,,,,,,,,5,2.735999823,5,0.246999979,1,0,1200,646,1,1199,wear,11123,2019-10-29_11h53.01.879,SurveyExpMetaMem,3.2.3,MacIntel,60
,,,,,,,,,,,,,,,,,,,,3,5.754999876,2,1.33100009,1,0,1200,975,1,1199,insecure,11123,2019-10-29_11h53.01.879,SurveyExpMetaMem,3.2.3,MacIntel,60
,,,,,,,,,,,,,,,,,,,,5,1.60800004,5,0.156000137,1,0,1200,747,1,1199,furniture,11123,2019-10-29_11h53.01.879,SurveyExpMetaMem,3.2.3,MacIntel,60
,,,,,,,,,,,,,,,,,,,,5,3.303999901,5,0.189999819,1,0,1200,854,1,1199,river,11123,2019-10-29_11h53.01.879,SurveyExpMetaMem,3.2.3,MacIntel,60
,,,,,,,,,,,,,,,,,,,,9,111.0109999,9,0.878999949,1,0,1200,146,1,1199,congratulations,11123,2019-10-29_11h53.01.879,SurveyExpMetaMem,3.2.3,MacIntel,60
,,,,,,,,,,,,,,,,,,,,9,5.552000046,5,2.144000053,1,0,1200,150,1,1199,vodka,11123,2019-10-29_11h53.01.879,SurveyExpMetaMem,3.2.3,MacIntel,60
,,,,,,,,,,,,,,,,,,,,5,2.06799984,5,0.174999952,1,0,1200,549,1,1199,beet,11123,2019-10-29_11h53.01.879,SurveyExpMetaMem,3.2.3,MacIntel,60
,,,,,,,,,,,,,,,,,,,,5,1.74399972,5,0.157000065,1,0,1200,663,1,1199,trout,11123,2019-10-29_11h53.01.879,SurveyExpMetaMem,3.2.3,MacIntel,60
,,,,,,,,,,,,,,,,,,,,1,1.712999821,7,1.477999926,1,0,1200,754,1,1199,reflection,11123,2019-10-29_11h53.01.879,SurveyExpMetaMem,3.2.3,MacIntel,60
,,,,,,,,,,,,,,,,,,,,6,4.099999905,2,0.976999998,1,0,1200,1148,1,1199,suspicious,11123,2019-10-29_11h53.01.879,SurveyExpMetaMem,3.2.3,MacIntel,60
,,,,,,,,,,,,,,,,,,,,5,83.2249999,3,1.152999878,1,0,1200,1066,1,1199,annoy,11123,2019-10-29_11h53.01.879,SurveyExpMetaMem,3.2.3,MacIntel,60
,,,,,,,,,,,,,,,,,,,,5,23.99500012,5,0.457999945,1,0,1200,653,1,1199,detail,11123,2019-10-29_11h53.01.879,SurveyExpMetaMem,3.2.3,MacIntel,60
,,,,,,,,,,,,,,,,,,,,8,2.108999729,3,1.40899992,1,0,1200,1015,1,1199,frighten,11123,2019-10-29_11h53.01.879,SurveyExpMetaMem,3.2.3,MacIntel,60
,,,,,,,,,,,,,,,,,,,,3,2.478999853,1,0.773999929,1,0,1200,1039,1,1199,stalk,11123,2019-10-29_11h53.01.879,SurveyExpMetaMem,3.2.3,MacIntel,60
,,,,,,,,,,,,,,,,,,,,5,1.346999884,5,0.295000076,1,0,1200,713,1,1199,mobile,11123,2019-10-29_11h53.01.879,SurveyExpMetaMem,3.2.3,MacIntel,60
,,,,,,,,,,,,,,,,,,,,5,0.879999876,5,0.378000021,1,0,1200,292,1,1199,birthday,11123,2019-10-29_11h53.01.879,SurveyExpMetaMem,3.2.3,MacIntel,60
,,,,,,,,,,,,,,,,,,,,9,1.759999752,1,1.056999922,1,0,1200,1028,1,1199,terror,11123,2019-10-29_11h53.01.879,SurveyExpMetaMem,3.2.3,MacIntel,60
,,,,,,,,,,,,,,,,,,,,5,1.107999802,5,0.463999987,1,0,1200,270,1,1199,toddler,11123,2019-10-29_11h53.01.879,SurveyExpMetaMem,3.2.3,MacIntel,60
,,,,,,,,,,,,,,,,,,,,5,0.977999926,5,0.256999731,1,0,1200,212,1,1199,belief,11123,2019-10-29_11h53.01.879,SurveyExpMetaMem,3.2.3,MacIntel,60
,,,,,,,,,,,,,,,,,,,,5,0.914000034,5,0.211999893,1,0,1200,807,1,1199,person,11123,2019-10-29_11h53.01.879,SurveyExpMetaMem,3.2.3,MacIntel,60
,,,,,,,,,,,,,,,,,,,,5,2.818999767,1,3.203999996,1,0,1200,1083,1,1199,delayed,11123,2019-10-29_11h53.01.879,SurveyExpMetaMem,3.2.3,MacIntel,60
,,,,,,,,,,,,,,,,,,,,5,1.684999943,5,0.778999805,1,0,1200,423,1,1199,stain,11123,2019-10-29_11h53.01.879,SurveyExpMetaMem,3.2.3,MacIntel,60
,,,,,,,,,,,,,,,,,,,,8,2.600999832,8,0.858999968,1,0,1200,286,1,1199,superstar,11123,2019-10-29_11h53.01.879,SurveyExpMetaMem,3.2.3,MacIntel,60
,,,,,,,,,,,,,,,,,,,,9,1.745999813,5,3.618999958,1,0,1200,141,1,1199,surprise,11123,2019-10-29_11h53.01.879,SurveyExpMetaMem,3.2.3,MacIntel,60
,,,,,,,,,,,,,,,,,,,,8,3.153000116,8,0.89199996,1,0,1200,211,1,1199,surfer,11123,2019-10-29_11h53.01.879,SurveyExpMetaMem,3.2.3,MacIntel,60
,,,,,,,,,,,,,,,,,,,,8,2.444000006,3,0.773999929,1,0,1200,987,1,1199,disgusted,11123,2019-10-29_11h53.01.879,SurveyExpMetaMem,3.2.3,MacIntel,60
,,,,,,,,,,,,,,,,,,,,8,1.710999966,8,0.257999897,1,0,1200,1052,1,1199,angry,11123,2019-10-29_11h53.01.879,SurveyExpMetaMem,3.2.3,MacIntel,60
,,,,,,,,,,,,,,,,,,,,3,0.128999949,5,1.559999943,1,0,1200,447,1,1199,dishes,11123,2019-10-29_11h53.01.879,SurveyExpMetaMem,3.2.3,MacIntel,60
,,,,,,,,,,,,,,,,,,,,3,4.256999969,7,1.549000025,1,0,1200,882,1,1199,gentle,11123,2019-10-29_11h53.01.879,SurveyExpMetaMem,3.2.3,MacIntel,60
,,,,,,,,,,,,,,,,,,,,5,2.638999701,5,0.236999989,1,0,1200,421,1,1199,stale,11123,2019-10-29_11h53.01.879,SurveyExpMetaMem,3.2.3,MacIntel,60
,,,,,,,,,,,,,,,,,,,,5,0.944000006,5,0.208999872,1,0,1200,632,1,1199,avenue,11123,2019-10-29_11h53.01.879,SurveyExpMetaMem,3.2.3,MacIntel,60
,,,,,,,,,,,,,,,,,,,,5,1.127999783,5,0.263999939,1,0,1200,1198,1,1199,lightning,11123,2019-10-29_11h53.01.879,SurveyExpMetaMem,3.2.3,MacIntel,60
,,,,,,,,,,,,,,,,,,,,6,7.307999849,4,1.32799983,1,0,1200,1169,1,1199,enforcement,11123,2019-10-29_11h53.01.879,SurveyExpMetaMem,3.2.3,MacIntel,60
,,,,,,,,,,,,,,,,,,,,5,1.116999865,5,0.207000017,1,0,1200,822,1,1199,clearer,11123,2019-10-29_11h53.01.879,SurveyExpMetaMem,3.2.3,MacIntel,60
,,,,,,,,,,,,,,,,,,,,5,1.005999804,5,0.171000004,1,0,1200,727,1,1199,author,11123,2019-10-29_11h53.01.879,SurveyExpMetaMem,3.2.3,MacIntel,60
,,,,,,,,,,,,,,,,,,,,3,3.415999889,2,0.743999958,1,0,1200,1069,1,1199,defeat,11123,2019-10-29_11h53.01.879,SurveyExpMetaMem,3.2.3,MacIntel,60
,,,,,,,,,,,,,,,,,,,,8,1.540999889,2,1.031999826,1,0,1200,910,1,1199,abusive,11123,2019-10-29_11h53.01.879,SurveyExpMetaMem,3.2.3,MacIntel,60
,,,,,,,,,,,,,,,,,,,,1,1.94299984,1,0.890999794,1,0,1200,359,1,1199,bored,11123,2019-10-29_11h53.01.879,SurveyExpMetaMem,3.2.3,MacIntel,60
,,,,,,,,,,,,,,,,,,,,6,1.357999802,5,5.118999958,1,0,1200,274,1,1199,song,11123,2019-10-29_11h53.01.879,SurveyExpMetaMem,3.2.3,MacIntel,60
,,,,,,,,,,,,,,,,,,,,8,3.649999857,5,1.933000088,1,0,1200,1129,1,1199,spanking,11123,2019-10-29_11h53.01.879,SurveyExpMetaMem,3.2.3,MacIntel,60
,,,,,,,,,,,,,,,,,,,,4,0.125999928,9,7.645999908,1,0,1200,839,1,1199,flower,11123,2019-10-29_11h53.01.879,SurveyExpMetaMem,3.2.3,MacIntel,60
,,,,,,,,,,,,,,,,,,,,5,6.89199996,1,16.79399991,1,0,1200,300,1,1199,unhappy,11123,2019-10-29_11h53.01.879,SurveyExpMetaMem,3.2.3,MacIntel,60
,,,,,,,,,,,,,,,,,,,,9,5.857000113,4,9.865999937,1,0,1200,1137,1,1199,knife,11123,2019-10-29_11h53.01.879,SurveyExpMetaMem,3.2.3,MacIntel,60
,,,,,,,,,,,,,,,,,,,,8,2.484999895,3,2.819999933,1,0,1200,1154,1,1199,politics,11123,2019-10-29_11h53.01.879,SurveyExpMetaMem,3.2.3,MacIntel,60
,,,,,,,,,,,,,,,,,,,,8,6.628000021,3,0.762999773,1,0,1200,994,1,1199,repulsed,11123,2019-10-29_11h53.01.879,SurveyExpMetaMem,3.2.3,MacIntel,60
,,,,,,,,,,,,,,,,,,,,7,2.710999966,2,0.758999825,1,0,1200,995,1,1199,cult,11123,2019-10-29_11h53.01.879,SurveyExpMetaMem,3.2.3,MacIntel,60
,,,,,,,,,,,,,,,,,,,,5,14.43599987,3,1.630999804,1,0,1200,382,1,1199,vulnerable,11123,2019-10-29_11h53.01.879,SurveyExpMetaMem,3.2.3,MacIntel,60
,,,,,,,,,,,,,,,,,,,,8,1.726000071,2,2.613999844,1,0,1200,305,1,1199,frown,11123,2019-10-29_11h53.01.879,SurveyExpMetaMem,3.2.3,MacIntel,60
,,,,,,,,,,,,,,,,,,,,8,5.856999874,8,1.243000031,1,0,1200,163,1,1199,gem,11123,2019-10-29_11h53.01.879,SurveyExpMetaMem,3.2.3,MacIntel,60
,,,,,,,,,,,,,,,,,,,,5,4.234999895,5,0.222999811,1,0,1200,647,1,1199,accord,11123,2019-10-29_11h53.01.879,SurveyExpMetaMem,3.2.3,MacIntel,60
,,,,,,,,,,,,,,,,,,,,3,16.19999981,3,0.689999819,1,0,1200,432,1,1199,resign,11123,2019-10-29_11h53.01.879,SurveyExpMetaMem,3.2.3,MacIntel,60
,,,,,,,,,,,,,,,,,,,,5,25.1789999,5,0.157999992,1,0,1200,1162,1,1199,baffle,11123,2019-10-29_11h53.01.879,SurveyExpMetaMem,3.2.3,MacIntel,60
,,,,,,,,,,,,,,,,,,,,4,10.93799996,4,4.000999928,1,0,1200,46,1,1199,god,11123,2019-10-29_11h53.01.879,SurveyExpMetaMem,3.2.3,MacIntel,60
,,,,,,,,,,,,,,,,,,,,7,2.503999949,2,0.842000008,1,0,1200,566,1,1199,obscure,11123,2019-10-29_11h53.01.879,SurveyExpMetaMem,3.2.3,MacIntel,60
,,,,,,,,,,,,,,,,,,,,1,2.70600009,7,2.227999926,1,0,1200,870,1,1199,safe,11123,2019-10-29_11h53.01.879,SurveyExpMetaMem,3.2.3,MacIntel,60
,,,,,,,,,,,,,,,,,,,,5,1.128999949,5,0.254999876,1,0,1200,751,1,1199,listen,11123,2019-10-29_11h53.01.879,SurveyExpMetaMem,3.2.3,MacIntel,60
,,,,,,,,,,,,,,,,,,,,8,19.69400001,1,2.365999937,1,0,1200,955,1,1199,drown,11123,2019-10-29_11h53.01.879,SurveyExpMetaMem,3.2.3,MacIntel,60
,,,,,,,,,,,,,,,,,,,,5,11.64300013,5,0.228999853,1,0,1200,567,1,1199,folly,11123,2019-10-29_11h53.01.879,SurveyExpMetaMem,3.2.3,MacIntel,60
,,,,,,,,,,,,,,,,,,,,7,16.9519999,2,4.41899991,1,0,1200,962,1,1199,poisonous,11123,2019-10-29_11h53.01.879,SurveyExpMetaMem,3.2.3,MacIntel,60
,,,,,,,,,,,,,,,,,,,,5,1.61199975,5,0.406999826,1,0,1200,517,1,1199,habit,11123,2019-10-29_11h53.01.879,SurveyExpMetaMem,3.2.3,MacIntel,60
,,,,,,,,,,,,,,,,,,,,5,13.17400002,5,1.611999989,1,0,1200,321,1,1199,wart,11123,2019-10-29_11h53.01.879,SurveyExpMetaMem,3.2.3,MacIntel,60
,,,,,,,,,,,,,,,,,,,,9,2.650000095,1,4.996999979,1,0,1200,1018,1,1199,distress,11123,2019-10-29_11h53.01.879,SurveyExpMetaMem,3.2.3,MacIntel,60
,,,,,,,,,,,,,,,,,,,,3,2.028000116,5,1.534999847,1,0,1200,631,1,1199,delicate,11123,2019-10-29_11h53.01.879,SurveyExpMetaMem,3.2.3,MacIntel,60
,,,,,,,,,,,,,,,,,,,,5,1.308000088,5,0.176000118,1,0,1200,498,1,1199,alimony,11123,2019-10-29_11h53.01.879,SurveyExpMetaMem,3.2.3,MacIntel,60
,,,,,,,,,,,,,,,,,,,,5,0.777999878,5,0.17599988,1,0,1200,716,1,1199,blouse,11123,2019-10-29_11h53.01.879,SurveyExpMetaMem,3.2.3,MacIntel,60
,,,,,,,,,,,,,,,,,,,,5,0.746999979,5,0.167000055,1,0,1200,471,1,1199,chump,11123,2019-10-29_11h53.01.879,SurveyExpMetaMem,3.2.3,MacIntel,60
,,,,,,,,,,,,,,,,,,,,9,2.359999895,1,0.782999992,1,0,1200,941,1,1199,leprosy,11123,2019-10-29_11h53.01.879,SurveyExpMetaMem,3.2.3,MacIntel,60
,,,,,,,,,,,,,,,,,,,,7,4.851999998,7,2.450999975,1,0,1200,81,1,1199,best,11123,2019-10-29_11h53.01.879,SurveyExpMetaMem,3.2.3,MacIntel,60
,,,,,,,,,,,,,,,,,,,,8,2.697000027,8,0.823999882,1,0,1200,30,1,1199,impressed,11123,2019-10-29_11h53.01.879,SurveyExpMetaMem,3.2.3,MacIntel,60
,,,,,,,,,,,,,,,,,,,,5,2.276000023,5,0.211999893,1,0,1200,413,1,1199,deficient,11123,2019-10-29_11h53.01.879,SurveyExpMetaMem,3.2.3,MacIntel,60
,,,,,,,,,,,,,,,,,,,,5,1.012000084,5,0.194999933,1,0,1200,805,1,1199,autumn,11123,2019-10-29_11h53.01.879,SurveyExpMetaMem,3.2.3,MacIntel,60
,,,,,,,,,,,,,,,,,,,,1,1.697999954,1,2.264999866,1,0,1200,408,1,1199,bore,11123,2019-10-29_11h53.01.879,SurveyExpMetaMem,3.2.3,MacIntel,60
,,,,,,,,,,,,,,,,,,,,5,3.838000059,5,0.208999872,1,0,1200,605,1,1199,year,11123,2019-10-29_11h53.01.879,SurveyExpMetaMem,3.2.3,MacIntel,60
,,,,,,,,,,,,,,,,,,,,5,3.231999874,5,0.163999796,1,0,1200,694,1,1199,pecan,11123,2019-10-29_11h53.01.879,SurveyExpMetaMem,3.2.3,MacIntel,60
,,,,,,,,,,,,,,,,,,,,8,1.886999846,3,2.297999859,1,0,1200,1059,1,1199,harsh,11123,2019-10-29_11h53.01.879,SurveyExpMetaMem,3.2.3,MacIntel,60
,,,,,,,,,,,,,,,,,,,,5,1.661999941,5,0.412999868,1,0,1200,320,1,1199,deformed,11123,2019-10-29_11h53.01.879,SurveyExpMetaMem,3.2.3,MacIntel,60
,,,,,,,,,,,,,,,,,,,,5,2.463999748,5,0.243999958,1,0,1200,799,1,1199,precise,11123,2019-10-29_11h53.01.879,SurveyExpMetaMem,3.2.3,MacIntel,60
,,,,,,,,,,,,,,,,,,,,5,1.598999977,5,0.257999897,1,0,1200,673,1,1199,bedspread,11123,2019-10-29_11h53.01.879,SurveyExpMetaMem,3.2.3,MacIntel,60
,,,,,,,,,,,,,,,,,,,,3,6.007999897,8,1.058999777,1,0,1200,898,1,1199,kindness,11123,2019-10-29_11h53.01.879,SurveyExpMetaMem,3.2.3,MacIntel,60
,,,,,,,,,,,,,,,,,,,,5,1.174999952,5,0.513999701,1,0,1200,1193,1,1199,damn,11123,2019-10-29_11h53.01.879,SurveyExpMetaMem,3.2.3,MacIntel,60
,,,,,,,,,,,,,,,,,,,,5,6.026000023,5,0.26699996,1,0,1200,87,1,1199,cookie,11123,2019-10-29_11h53.01.879,SurveyExpMetaMem,3.2.3,MacIntel,60
,,,,,,,,,,,,,,,,,,,,5,3.281000137,3,1.467999935,1,0,1200,1167,1,1199,bribe,11123,2019-10-29_11h53.01.879,SurveyExpMetaMem,3.2.3,MacIntel,60
,,,,,,,,,,,,,,,,,,,,1,3.830999851,4,0.638999939,1,0,1200,559,1,1199,lazy,11123,2019-10-29_11h53.01.879,SurveyExpMetaMem,3.2.3,MacIntel,60
,,,,,,,,,,,,,,,,,,,,5,3.261999846,4,1.342000008,1,0,1200,369,1,1199,blind,11123,2019-10-29_11h53.01.879,SurveyExpMetaMem,3.2.3,MacIntel,60
,,,,,,,,,,,,,,,,,,,,5,1.812999964,2,3.432999849,1,0,1200,1048,1,1199,paranoid,11123,2019-10-29_11h53.01.879,SurveyExpMetaMem,3.2.3,MacIntel,60
,,,,,,,,,,,,,,,,,,,,9,2.131999731,1,1.680999756,1,0,1200,958,1,1199,traitor,11123,2019-10-29_11h53.01.879,SurveyExpMetaMem,3.2.3,MacIntel,60
,,,,,,,,,,,,,,,,,,,,9,2.985999823,2,2.883999825,1,0,1200,949,1,1199,thief,11123,2019-10-29_11h53.01.879,SurveyExpMetaMem,3.2.3,MacIntel,60
,,,,,,,,,,,,,,,,,,,,9,2.111999989,1,0.508999825,1,0,1200,1151,1,1199,drama,11123,2019-10-29_11h53.01.879,SurveyExpMetaMem,3.2.3,MacIntel,60
,,,,,,,,,,,,,,,,,,,,9,1.276000023,1,0.474999905,1,0,1200,1019,1,1199,fraud,11123,2019-10-29_11h53.01.879,SurveyExpMetaMem,3.2.3,MacIntel,60
,,,,,,,,,,,,,,,,,,,,5,1.29399991,5,0.358999729,1,0,1200,29,1,1199,life,11123,2019-10-29_11h53.01.879,SurveyExpMetaMem,3.2.3,MacIntel,60
,,,,,,,,,,,,,,,,,,,,5,2.399999857,5,0.257999897,1,0,1200,758,1,1199,camera,11123,2019-10-29_11h53.01.879,SurveyExpMetaMem,3.2.3,MacIntel,60
,,,,,,,,,,,,,,,,,,,,5,2.422999859,5,0.210999966,1,0,1200,670,1,1199,urinate,11123,2019-10-29_11h53.01.879,SurveyExpMetaMem,3.2.3,MacIntel,60
,,,,,,,,,,,,,,,,,,,,5,1.284999847,5,0.188999891,1,0,1200,645,1,1199,telescope,11123,2019-10-29_11h53.01.879,SurveyExpMetaMem,3.2.3,MacIntel,60
,,,,,,,,,,,,,,,,,,,,9,2.56099987,2,1.046000004,1,0,1200,908,1,1199,suffer,11123,2019-10-29_11h53.01.879,SurveyExpMetaMem,3.2.3,MacIntel,60
,,,,,,,,,,,,,,,,,,,,2,5.591999769,5,1.048000097,1,0,1200,856,1,1199,leisurely,11123,2019-10-29_11h53.01.879,SurveyExpMetaMem,3.2.3,MacIntel,60
,,,,,,,,,,,,,,,,,,,,5,0.721999884,5,0.438999891,1,0,1200,53,1,1199,lotion,11123,2019-10-29_11h53.01.879,SurveyExpMetaMem,3.2.3,MacIntel,60
,,,,,,,,,,,,,,,,,,,,8,2.562999964,8,0.545000076,1,0,1200,185,1,1199,flirt,11123,2019-10-29_11h53.01.879,SurveyExpMetaMem,3.2.3,MacIntel,60
,,,,,,,,,,,,,,,,,,,,9,2.513999939,5,1.225999832,1,0,1200,1,1,1199,fuck,11123,2019-10-29_11h53.01.879,SurveyExpMetaMem,3.2.3,MacIntel,60
,,,,,,,,,,,,,,,,,,,,7,2.736000061,3,0.94299984,1,0,1200,1159,1,1199,rifle,11123,2019-10-29_11h53.01.879,SurveyExpMetaMem,3.2.3,MacIntel,60
,,,,,,,,,,,,,,,,,,,,5,2.343999863,5,0.757999897,1,0,1200,401,1,1199,feeble,11123,2019-10-29_11h53.01.879,SurveyExpMetaMem,3.2.3,MacIntel,60
,,,,,,,,,,,,,,,,,,,,8,27.51600003,8,0.84499979,1,0,1200,249,1,1199,award,11123,2019-10-29_11h53.01.879,SurveyExpMetaMem,3.2.3,MacIntel,60
,,,,,,,,,,,,,,,,,,,,5,1.608999968,5,0.246999979,1,0,1200,23,1,1199,earn,11123,2019-10-29_11h53.01.879,SurveyExpMetaMem,3.2.3,MacIntel,60
,,,,,,,,,,,,,,,,,,,,8,2.536000013,2,0.930999994,1,0,1200,542,1,1199,loose,11123,2019-10-29_11h53.01.879,SurveyExpMetaMem,3.2.3,MacIntel,60
,,,,,,,,,,,,,,,,,,,,2,2.252000093,8,1.332000017,1,0,1200,863,1,1199,fireplace,11123,2019-10-29_11h53.01.879,SurveyExpMetaMem,3.2.3,MacIntel,60
,,,,,,,,,,,,,,,,,,,,5,2.212999821,5,0.490999699,1,0,1200,388,1,1199,mildew,11123,2019-10-29_11h53.01.879,SurveyExpMetaMem,3.2.3,MacIntel,60
,,,,,,,,,,,,,,,,,,,,5,1.106999874,5,0.296000004,1,0,1200,474,1,1199,weary,11123,2019-10-29_11h53.01.879,SurveyExpMetaMem,3.2.3,MacIntel,60
,,,,,,,,,,,,,,,,,,,,8,1.708999872,8,0.641000032,1,0,1200,199,1,1199,laughter,11123,2019-10-29_11h53.01.879,SurveyExpMetaMem,3.2.3,MacIntel,60
,,,,,,,,,,,,,,,,,,,,8,2.09499979,8,0.280999899,1,0,1200,99,1,1199,funny,11123,2019-10-29_11h53.01.879,SurveyExpMetaMem,3.2.3,MacIntel,60
,,,,,,,,,,,,,,,,,,,,7,2.769999981,2,0.845999956,1,0,1200,1084,1,1199,uneasy,11123,2019-10-29_11h53.01.879,SurveyExpMetaMem,3.2.3,MacIntel,60
,,,,,,,,,,,,,,,,,,,,5,1.144000053,5,0.141999722,1,0,1200,744,1,1199,village,11123,2019-10-29_11h53.01.879,SurveyExpMetaMem,3.2.3,MacIntel,60
,,,,,,,,,,,,,,,,,,,,8,3.214999914,2,0.693000078,1,0,1200,1114,1,1199,foe,11123,2019-10-29_11h53.01.879,SurveyExpMetaMem,3.2.3,MacIntel,60
,,,,,,,,,,,,,,,,,,,,5,1.673000097,5,0.179999828,1,0,1200,61,1,1199,zoom,11123,2019-10-29_11h53.01.879,SurveyExpMetaMem,3.2.3,MacIntel,60
,,,,,,,,,,,,,,,,,,,,8,2.879999876,8,0.213000059,1,0,1200,88,1,1199,ambitious,11123,2019-10-29_11h53.01.879,SurveyExpMetaMem,3.2.3,MacIntel,60
,,,,,,,,,,,,,,,,,,,,9,4.382999897,9,0.307999849,1,0,1200,222,1,1199,waterskiing,11123,2019-10-29_11h53.01.879,SurveyExpMetaMem,3.2.3,MacIntel,60
,,,,,,,,,,,,,,,,,,,,8,2.545999765,3,1.008999825,1,0,1200,1199,1,1199,expensive,11123,2019-10-29_11h53.01.879,SurveyExpMetaMem,3.2.3,MacIntel,60
,,,,,,,,,,,,,,,,,,,,6,5.424999952,4,1.065999985,1,0,1200,525,1,1199,stagnant,11123,2019-10-29_11h53.01.879,SurveyExpMetaMem,3.2.3,MacIntel,60
,,,,,,,,,,,,,,,,,,,,9,4.020999908,9,0.828999996,1,0,1200,147,1,1199,cure,11123,2019-10-29_11h53.01.879,SurveyExpMetaMem,3.2.3,MacIntel,60
,,,,,,,,,,,,,,,,,,,,3,24.37399983,3,0.763000011,1,0,1200,978,1,1199,starving,11123,2019-10-29_11h53.01.879,SurveyExpMetaMem,3.2.3,MacIntel,60
,,,,,,,,,,,,,,,,,,,,9,1.991999865,9,0.381999969,1,0,1200,296,1,1199,awesome,11123,2019-10-29_11h53.01.879,SurveyExpMetaMem,3.2.3,MacIntel,60
,,,,,,,,,,,,,,,,,,,,9,1.674999952,1,0.475999832,1,0,1200,943,1,1199,trauma,11123,2019-10-29_11h53.01.879,SurveyExpMetaMem,3.2.3,MacIntel,60
,,,,,,,,,,,,,,,,,,,,7,1.980000019,3,0.638999939,1,0,1200,1050,1,1199,scorn,11123,2019-10-29_11h53.01.879,SurveyExpMetaMem,3.2.3,MacIntel,60
,,,,,,,,,,,,,,,,,,,,5,1.17599988,5,0.391000032,1,0,1200,800,1,1199,authentic,11123,2019-10-29_11h53.01.879,SurveyExpMetaMem,3.2.3,MacIntel,60
,,,,,,,,,,,,,,,,,,,,8,2.804000139,3,0.73300004,1,0,1200,1115,1,1199,invade,11123,2019-10-29_11h53.01.879,SurveyExpMetaMem,3.2.3,MacIntel,60
,,,,,,,,,,,,,,,,,,,,5,13.29099989,5,0.188999891,1,0,1200,1075,1,1199,apprehension,11123,2019-10-29_11h53.01.879,SurveyExpMetaMem,3.2.3,MacIntel,60
,,,,,,,,,,,,,,,,,,,,5,1.875999928,5,0.211999893,1,0,1200,539,1,1199,novice,11123,2019-10-29_11h53.01.879,SurveyExpMetaMem,3.2.3,MacIntel,60
,,,,,,,,,,,,,,,,,,,,9,1.574999809,9,0.299999952,1,0,1200,48,1,1199,excellence,11123,2019-10-29_11h53.01.879,SurveyExpMetaMem,3.2.3,MacIntel,60
,,,,,,,,,,,,,,,,,,,,5,1.476000071,5,0.180999994,1,0,1200,1053,1,1199,surgery,11123,2019-10-29_11h53.01.879,SurveyExpMetaMem,3.2.3,MacIntel,60
,,,,,,,,,,,,,,,,,,,,5,1.342000008,5,0.190999985,1,0,1200,480,1,1199,hinder,11123,2019-10-29_11h53.01.879,SurveyExpMetaMem,3.2.3,MacIntel,60
,,,,,,,,,,,,,,,,,,,,8,1.892999887,3,1.111999989,1,0,1200,920,1,1199,hurt,11123,2019-10-29_11h53.01.879,SurveyExpMetaMem,3.2.3,MacIntel,60
,,,,,,,,,,,,,,,,,,,,5,0.995999813,5,0.179000139,1,0,1200,532,1,1199,recede,11123,2019-10-29_11h53.01.879,SurveyExpMetaMem,3.2.3,MacIntel,60
,,,,,,,,,,,,,,,,,,,,7,3.265999794,3,0.539999962,1,0,1200,452,1,1199,scapegoat,11123,2019-10-29_11h53.01.879,SurveyExpMetaMem,3.2.3,MacIntel,60
,,,,,,,,,,,,,,,,,,,,9,2.144000053,5,2.246999979,1,0,1200,792,1,1199,moral,11123,2019-10-29_11h53.01.879,SurveyExpMetaMem,3.2.3,MacIntel,60
,,,,,,,,,,,,,,,,,,,,9,4.944000006,5,0.839999914,1,0,1200,1194,1,1199,obsession,11123,2019-10-29_11h53.01.879,SurveyExpMetaMem,3.2.3,MacIntel,60
,,,,,,,,,,,,,,,,,,,,5,1.74399972,5,0.18900013,1,0,1200,454,1,1199,damp,11123,2019-10-29_11h53.01.879,SurveyExpMetaMem,3.2.3,MacIntel,60
,,,,,,,,,,,,,,,,,,,,5,0.962999821,5,0.196999788,1,0,1200,761,1,1199,corn,11123,2019-10-29_11h53.01.879,SurveyExpMetaMem,3.2.3,MacIntel,60
,,,,,,,,,,,,,,,,,,,,9,1.464999914,9,1.115999937,1,0,1200,139,1,1199,generosity,11123,2019-10-29_11h53.01.879,SurveyExpMetaMem,3.2.3,MacIntel,60
,,,,,,,,,,,,,,,,,,,,9,3.097999811,9,0.577000141,1,0,1200,143,1,1199,weekend,11123,2019-10-29_11h53.01.879,SurveyExpMetaMem,3.2.3,MacIntel,60
,,,,,,,,,,,,,,,,,,,,5,1.598999739,5,0.193000078,1,0,1200,529,1,1199,small,11123,2019-10-29_11h53.01.879,SurveyExpMetaMem,3.2.3,MacIntel,60
,,,,,,,,,,,,,,,,,,,,8,3.917999983,3,1.916999817,1,0,1200,456,1,1199,piss,11123,2019-10-29_11h53.01.879,SurveyExpMetaMem,3.2.3,MacIntel,60
,,,,,,,,,,,,,,,,,,,,5,1.929000139,5,0.289000034,1,0,1200,741,1,1199,wheat,11123,2019-10-29_11h53.01.879,SurveyExpMetaMem,3.2.3,MacIntel,60
,,,,,,,,,,,,,,,,,,,,5,1.181999922,5,0.223999977,1,0,1200,1158,1,1199,dentist,11123,2019-10-29_11h53.01.879,SurveyExpMetaMem,3.2.3,MacIntel,60
,,,,,,,,,,,,,,,,,,,,8,3.730999947,5,1.17599988,1,0,1200,204,1,1199,crazy,11123,2019-10-29_11h53.01.879,SurveyExpMetaMem,3.2.3,MacIntel,60
,,,,,,,,,,,,,,,,,,,,5,4.289000034,5,0.25,1,0,1200,546,1,1199,solemn,11123,2019-10-29_11h53.01.879,SurveyExpMetaMem,3.2.3,MacIntel,60
,,,,,,,,,,,,,,,,,,,,5,1.741999865,5,0.225999832,1,0,1200,460,1,1199,rag,11123,2019-10-29_11h53.01.879,SurveyExpMetaMem,3.2.3,MacIntel,60
,,,,,,,,,,,,,,,,,,,,5,0.980000019,5,0.256999731,1,0,1200,154,1,1199,race,11123,2019-10-29_11h53.01.879,SurveyExpMetaMem,3.2.3,MacIntel,60
,,,,,,,,,,,,,,,,,,,,5,0.873999834,5,0.213999987,1,0,1200,712,1,1199,harvest,11123,2019-10-29_11h53.01.879,SurveyExpMetaMem,3.2.3,MacIntel,60
,,,,,,,,,,,,,,,,,,,,7,1.559000015,4,0.907999992,1,0,1200,537,1,1199,absurd,11123,2019-10-29_11h53.01.879,SurveyExpMetaMem,3.2.3,MacIntel,60
,,,,,,,,,,,,,,,,,,,,7,2.815999746,3,0.846999884,1,0,1200,1061,1,1199,difficult,11123,2019-10-29_11h53.01.879,SurveyExpMetaMem,3.2.3,MacIntel,60
,,,,,,,,,,,,,,,,,,,,5,6.526000023,5,0.592999935,1,0,1200,20,1,1199,climax,11123,2019-10-29_11h53.01.879,SurveyExpMetaMem,3.2.3,MacIntel,60
,,,,,,,,,,,,,,,,,,,,5,1.495999813,5,0.191999912,1,0,1200,65,1,1199,restaurant,11123,2019-10-29_11h53.01.879,SurveyExpMetaMem,3.2.3,MacIntel,60
,,,,,,,,,,,,,,,,,,,,8,1.44900012,2,2.102999926,1,0,1200,316,1,1199,sorrow,11123,2019-10-29_11h53.01.879,SurveyExpMetaMem,3.2.3,MacIntel,60
,,,,,,,,,,,,,,,,,,,,5,1.328000069,5,0.22699976,1,0,1200,203,1,1199,seal,11123,2019-10-29_11h53.01.879,SurveyExpMetaMem,3.2.3,MacIntel,60
,,,,,,,,,,,,,,,,,,,,9,3.289000034,9,0.348999977,1,0,1200,213,1,1199,fair,11123,2019-10-29_11h53.01.879,SurveyExpMetaMem,3.2.3,MacIntel,60
,,,,,,,,,,,,,,,,,,,,9,2.032999992,1,0.49000001,1,0,1200,937,1,1199,prison,11123,2019-10-29_11h53.01.879,SurveyExpMetaMem,3.2.3,MacIntel,60
,,,,,,,,,,,,,,,,,,,,2,3.395999908,2,0.433999777,1,0,1200,696,1,1199,rink,11123,2019-10-29_11h53.01.879,SurveyExpMetaMem,3.2.3,MacIntel,60
,,,,,,,,,,,,,,,,,,,,5,1.993999958,5,0.198999882,1,0,1200,1124,1,1199,seize,11123,2019-10-29_11h53.01.879,SurveyExpMetaMem,3.2.3,MacIntel,60
,,,,,,,,,,,,,,,,,,,,4,3.365999937,4,0.475999832,1,0,1200,398,1,1199,handicapped,11123,2019-10-29_11h53.01.879,SurveyExpMetaMem,3.2.3,MacIntel,60
,,,,,,,,,,,,,,,,,,,,5,1.573999882,5,1.291999817,1,0,1200,259,1,1199,thin,11123,2019-10-29_11h53.01.879,SurveyExpMetaMem,3.2.3,MacIntel,60
,,,,,,,,,,,,,,,,,,,,9,1.609999895,9,0.555999994,1,0,1200,80,1,1199,wonderful,11123,2019-10-29_11h53.01.879,SurveyExpMetaMem,3.2.3,MacIntel,60
,,,,,,,,,,,,,,,,,,,,5,2.299000025,9,0.449999809,1,0,1200,130,1,1199,great,11123,2019-10-29_11h53.01.879,SurveyExpMetaMem,3.2.3,MacIntel,60
,,,,,,,,,,,,,,,,,,,,5,1.760999918,5,0.181999922,1,0,1200,598,1,1199,feet,11123,2019-10-29_11h53.01.879,SurveyExpMetaMem,3.2.3,MacIntel,60
,,,,,,,,,,,,,,,,,,,,5,1.329999924,5,0.173000097,1,0,1200,234,1,1199,redeem,11123,2019-10-29_11h53.01.879,SurveyExpMetaMem,3.2.3,MacIntel,60
,,,,,,,,,,,,,,,,,,,,6,2.411999941,2,0.457999945,1,0,1200,397,1,1199,complaint,11123,2019-10-29_11h53.01.879,SurveyExpMetaMem,3.2.3,MacIntel,60
,,,,,,,,,,,,,,,,,,,,1,2.86500001,9,0.441999912,1,0,1200,890,1,1199,carefree,11123,2019-10-29_11h53.01.879,SurveyExpMetaMem,3.2.3,MacIntel,60
,,,,,,,,,,,,,,,,,,,,5,4.046999931,5,0.148000002,1,0,1200,608,1,1199,carrot,11123,2019-10-29_11h53.01.879,SurveyExpMetaMem,3.2.3,MacIntel,60
,,,,,,,,,,,,,,,,,,,,5,16.33800006,3,1.052999973,1,0,1200,1122,1,1199,gossip,11123,2019-10-29_11h53.01.879,SurveyExpMetaMem,3.2.3,MacIntel,60
,,,,,,,,,,,,,,,,,,,,5,1.949999809,5,0.174999952,1,0,1200,464,1,1199,tick,11123,2019-10-29_11h53.01.879,SurveyExpMetaMem,3.2.3,MacIntel,60
,,,,,,,,,,,,,,,,,,,,3,3.659999847,8,1.082000017,1,0,1200,35,1,1199,bright,11123,2019-10-29_11h53.01.879,SurveyExpMetaMem,3.2.3,MacIntel,60
,,,,,,,,,,,,,,,,,,,,5,1.733999968,5,0.194999933,1,0,1200,535,1,1199,ramble,11123,2019-10-29_11h53.01.879,SurveyExpMetaMem,3.2.3,MacIntel,60
,,,,,,,,,,,,,,,,,,,,5,0.981999874,5,0.210000038,1,0,1200,374,1,1199,sluggish,11123,2019-10-29_11h53.01.879,SurveyExpMetaMem,3.2.3,MacIntel,60
,,,,,,,,,,,,,,,,,,,,8,4.470000029,8,2.243999958,1,0,1200,179,1,1199,star,11123,2019-10-29_11h53.01.879,SurveyExpMetaMem,3.2.3,MacIntel,60
,,,,,,,,,,,,,,,,,,,,5,21.10199976,9,0.4599998,1,0,1200,378,1,1199,dislike,11123,2019-10-29_11h53.01.879,SurveyExpMetaMem,3.2.3,MacIntel,60
,,,,,,,,,,,,,,,,,,,,5,6.073999882,3,0.994999886,1,0,1200,334,1,1199,trash,11123,2019-10-29_11h53.01.879,SurveyExpMetaMem,3.2.3,MacIntel,60
,,,,,,,,,,,,,,,,,,,,7,3.269000053,2,0.558999777,1,0,1200,919,1,1199,loss,11123,2019-10-29_11h53.01.879,SurveyExpMetaMem,3.2.3,MacIntel,60
,,,,,,,,,,,,,,,,,,,,5,2.280999899,5,0.231999874,1,0,1200,868,1,1199,grace,11123,2019-10-29_11h53.01.879,SurveyExpMetaMem,3.2.3,MacIntel,60
,,,,,,,,,,,,,,,,,,,,5,33.11899996,5,0.178999901,1,0,1200,342,1,1199,alienation,11123,2019-10-29_11h53.01.879,SurveyExpMetaMem,3.2.3,MacIntel,60
,,,,,,,,,,,,,,,,,,,,8,3.298000097,3,0.97699976,1,0,1200,395,1,1199,lack,11123,2019-10-29_11h53.01.879,SurveyExpMetaMem,3.2.3,MacIntel,60
,,,,,,,,,,,,,,,,,,,,5,2.54399991,2,0.44299984,1,0,1200,380,1,1199,expire,11123,2019-10-29_11h53.01.879,SurveyExpMetaMem,3.2.3,MacIntel,60
,,,,,,,,,,,,,,,,,,,,5,7.980999947,5,0.301999807,1,0,1200,825,1,1199,swan,11123,2019-10-29_11h53.01.879,SurveyExpMetaMem,3.2.3,MacIntel,60
,,,,,,,,,,,,,,,,,,,,5,2.895999908,5,0.160000086,1,0,1200,267,1,1199,bold,11123,2019-10-29_11h53.01.879,SurveyExpMetaMem,3.2.3,MacIntel,60
,,,,,,,,,,,,,,,,,,,,5,0.590999842,5,0.165999889,1,0,1200,21,1,1199,game,11123,2019-10-29_11h53.01.879,SurveyExpMetaMem,3.2.3,MacIntel,60
,,,,,,,,,,,,,,,,,,,,8,3.312999964,3,0.394999981,1,0,1200,1011,1,1199,robber,11123,2019-10-29_11h53.01.879,SurveyExpMetaMem,3.2.3,MacIntel,60
,,,,,,,,,,,,,,,,,,,,1,3.412999868,9,0.446999788,1,0,1200,875,1,1199,fluffy,11123,2019-10-29_11h53.01.879,SurveyExpMetaMem,3.2.3,MacIntel,60
,,,,,,,,,,,,,,,,,,,,5,2.463999987,5,0.166999817,1,0,1200,56,1,1199,spice,11123,2019-10-29_11h53.01.879,SurveyExpMetaMem,3.2.3,MacIntel,60
,,,,,,,,,,,,,,,,,,,,5,62.57899976,5,0.144000053,1,0,1200,717,1,1199,modest,11123,2019-10-29_11h53.01.879,SurveyExpMetaMem,3.2.3,MacIntel,60
,,,,,,,,,,,,,,,,,,,,2,3.134000063,5,0.378999949,1,0,1200,229,1,1199,heaven,11123,2019-10-29_11h53.01.879,SurveyExpMetaMem,3.2.3,MacIntel,60
,,,,,,,,,,,,,,,,,,,,5,3.582000017,9,1.029000044,1,0,1200,125,1,1199,dancing,11123,2019-10-29_11h53.01.879,SurveyExpMetaMem,3.2.3,MacIntel,60
,,,,,,,,,,,,,,,,,,,,8,57.29699993,8,1.078999996,1,0,1200,281,1,1199,summer,11123,2019-10-29_11h53.01.879,SurveyExpMetaMem,3.2.3,MacIntel,60
,,,,,,,,,,,,,,,,,,,,3,9.753999949,8,2.055000067,1,0,1200,145,1,1199,me,11123,2019-10-29_11h53.01.879,SurveyExpMetaMem,3.2.3,MacIntel,60
,,,,,,,,,,,,,,,,,,,,5,1.574999809,5,0.147999763,1,0,1200,429,1,1199,cough,11123,2019-10-29_11h53.01.879,SurveyExpMetaMem,3.2.3,MacIntel,60
,,,,,,,,,,,,,,,,,,,,5,1.612999916,5,0.145999908,1,0,1200,252,1,1199,infatuated,11123,2019-10-29_11h53.01.879,SurveyExpMetaMem,3.2.3,MacIntel,60
,,,,,,,,,,,,,,,,,,,,7,80.81200004,2,1.226999998,1,0,1200,394,1,1199,dump,11123,2019-10-29_11h53.01.879,SurveyExpMetaMem,3.2.3,MacIntel,60
,,,,,,,,,,,,,,,,,,,,3,15.11399984,2,0.708999872,1,0,1200,411,1,1199,bitter,11123,2019-10-29_11h53.01.879,SurveyExpMetaMem,3.2.3,MacIntel,60
,,,,,,,,,,,,,,,,,,,,9,8.044999838,1,0.962999821,1,0,1200,1186,1,1199,goddamn,11123,2019-10-29_11h53.01.879,SurveyExpMetaMem,3.2.3,MacIntel,60
,,,,,,,,,,,,,,,,,,,,5,40.54399991,5,0.204999924,1,0,1200,740,1,1199,groceries,11123,2019-10-29_11h53.01.879,SurveyExpMetaMem,3.2.3,MacIntel,60
,,,,,,,,,,,,,,,,,,,,5,9.030999899,1,4.371999979,1,0,1200,346,1,1199,alcoholism,11123,2019-10-29_11h53.01.879,SurveyExpMetaMem,3.2.3,MacIntel,60
,,,,,,,,,,,,,,,,,,,,5,7.076999903,5,0.379999876,1,0,1200,768,1,1199,trait,11123,2019-10-29_11h53.01.879,SurveyExpMetaMem,3.2.3,MacIntel,60
,,,,,,,,,,,,,,,,,,,,9,2.34800005,7,1.245999813,1,0,1200,44,1,1199,diploma,11123,2019-10-29_11h53.01.879,SurveyExpMetaMem,3.2.3,MacIntel,60
,,,,,,,,,,,,,,,,,,,,5,2.264999866,5,0.22699976,1,0,1200,587,1,1199,dissolve,11123,2019-10-29_11h53.01.879,SurveyExpMetaMem,3.2.3,MacIntel,60
,,,,,,,,,,,,,,,,,,,,1,55.89400005,5,0.507999897,1,0,1200,860,1,1199,silk,11123,2019-10-29_11h53.01.879,SurveyExpMetaMem,3.2.3,MacIntel,60
,,,,,,,,,,,,,,,,,,,,5,45.71700001,1,2.766000032,1,0,1200,288,1,1199,tasty,11123,2019-10-29_11h53.01.879,SurveyExpMetaMem,3.2.3,MacIntel,60
,,,,,,,,,,,,,,,,,,,,1,2.997999907,9,39.93400002,1,0,1200,568,1,1199,therapy,11123,2019-10-29_11h53.01.879,SurveyExpMetaMem,3.2.3,MacIntel,60
,,,,,,,,,,,,,,,,,,,,5,2.562999964,5,0.411999941,1,0,1200,265,1,1199,invent,11123,2019-10-29_11h53.01.879,SurveyExpMetaMem,3.2.3,MacIntel,60
,,,,,,,,,,,,,,,,,,,,8,18.01299977,2,1.062000036,1,0,1200,1131,1,1199,envious,11123,2019-10-29_11h53.01.879,SurveyExpMetaMem,3.2.3,MacIntel,60
,,,,,,,,,,,,,,,,,,,,4,26.99599981,2,1.832000017,1,0,1200,876,1,1199,politeness,11123,2019-10-29_11h53.01.879,SurveyExpMetaMem,3.2.3,MacIntel,60
,,,,,,,,,,,,,,,,,,,,7,27.52199984,7,1.881999969,1,0,1200,69,1,1199,special,11123,2019-10-29_11h53.01.879,SurveyExpMetaMem,3.2.3,MacIntel,60
,,,,,,,,,,,,,,,,,,,,5,27.68199992,5,0.182999849,1,0,1200,39,1,1199,birth,11123,2019-10-29_11h53.01.879,SurveyExpMetaMem,3.2.3,MacIntel,60
,,,,,,,,,,,,,,,,,,,,1,8.229000092,5,2.24000001,1,0,1200,527,1,1199,passive,11123,2019-10-29_11h53.01.879,SurveyExpMetaMem,3.2.3,MacIntel,60
,,,,,,,,,,,,,,,,,,,,5,8.470000029,5,0.263999939,1,0,1200,589,1,1199,coarse,11123,2019-10-29_11h53.01.879,SurveyExpMetaMem,3.2.3,MacIntel,60
,,,,,,,,,,,,,,,,,,,,5,1.742999792,5,0.17599988,1,0,1200,781,1,1199,emerald,11123,2019-10-29_11h53.01.879,SurveyExpMetaMem,3.2.3,MacIntel,60
,,,,,,,,,,,,,,,,,,,,1,3.966999769,8,2.948999882,1,0,1200,894,1,1199,sunset,11123,2019-10-29_11h53.01.879,SurveyExpMetaMem,3.2.3,MacIntel,60
,,,,,,,,,,,,,,,,,,,,9,2.211999893,9,0.841999769,1,0,1200,289,1,1199,concert,11123,2019-10-29_11h53.01.879,SurveyExpMetaMem,3.2.3,MacIntel,60
,,,,,,,,,,,,,,,,,,,,3,10.40600014,5,1.312999964,1,0,1200,795,1,1199,soup,11123,2019-10-29_11h53.01.879,SurveyExpMetaMem,3.2.3,MacIntel,60
,,,,,,,,,,,,,,,,,,,,5,1.294999838,5,0.157999992,1,0,1200,345,1,1199,unfortunate,11123,2019-10-29_11h53.01.879,SurveyExpMetaMem,3.2.3,MacIntel,60
,,,,,,,,,,,,,,,,,,,,1,3.321999788,4,4.170000076,1,0,1200,478,1,1199,numb,11123,2019-10-29_11h53.01.879,SurveyExpMetaMem,3.2.3,MacIntel,60
,,,,,,,,,,,,,,,,,,,,5,1.632999897,5,0.431999922,1,0,1200,1155,1,1199,tangle,11123,2019-10-29_11h53.01.879,SurveyExpMetaMem,3.2.3,MacIntel,60
,,,,,,,,,,,,,,,,,,,,7,22.0389998,4,1.032999992,1,0,1200,1078,1,1199,trouble,11123,2019-10-29_11h53.01.879,SurveyExpMetaMem,3.2.3,MacIntel,60
,,,,,,,,,,,,,,,,,,,,5,2.245999813,5,0.193000078,1,0,1200,6,1,1199,chest,11123,2019-10-29_11h53.01.879,SurveyExpMetaMem,3.2.3,MacIntel,60
,,,,,,,,,,,,,,,,,,,,5,1.447999954,5,0.161000013,1,0,1200,215,1,1199,salary,11123,2019-10-29_11h53.01.879,SurveyExpMetaMem,3.2.3,MacIntel,60
,,,,,,,,,,,,,,,,,,,,8,2.298000097,2,1.099999905,1,0,1200,216,1,1199,vigorous,11123,2019-10-29_11h53.01.879,SurveyExpMetaMem,3.2.3,MacIntel,60
,,,,,,,,,,,,,,,,,,,,8,14.19899988,7,3.868999958,1,0,1200,158,1,1199,engage,11123,2019-10-29_11h53.01.879,SurveyExpMetaMem,3.2.3,MacIntel,60
,,,,,,,,,,,,,,,,,,,,5,2.010999918,5,0.276000023,1,0,1200,718,1,1199,flow,11123,2019-10-29_11h53.01.879,SurveyExpMetaMem,3.2.3,MacIntel,60
,,,,,,,,,,,,,,,,,,,,5,1.632999897,5,0.157000065,1,0,1200,66,1,1199,zest,11123,2019-10-29_11h53.01.879,SurveyExpMetaMem,3.2.3,MacIntel,60
,,,,,,,,,,,,,,,,,,,,5,13.73000002,2,0.459000111,1,0,1200,1071,1,1199,uncomfortable,11123,2019-10-29_11h53.01.879,SurveyExpMetaMem,3.2.3,MacIntel,60
,,,,,,,,,,,,,,,,,,,,5,1.513999939,5,0.174999952,1,0,1200,633,1,1199,cattle,11123,2019-10-29_11h53.01.879,SurveyExpMetaMem,3.2.3,MacIntel,60
,,,,,,,,,,,,,,,,,,,,5,5.736000061,5,0.136999846,1,0,1200,873,1,1199,useful,11123,2019-10-29_11h53.01.879,SurveyExpMetaMem,3.2.3,MacIntel,60
,,,,,,,,,,,,,,,,,,,,5,1.660000086,5,0.160999775,1,0,1200,250,1,1199,erupt,11123,2019-10-29_11h53.01.879,SurveyExpMetaMem,3.2.3,MacIntel,60
,,,,,,,,,,,,,,,,,,,,8,7.559999943,2,0.813999891,1,0,1200,982,1,1199,robbery,11123,2019-10-29_11h53.01.879,SurveyExpMetaMem,3.2.3,MacIntel,60
,,,,,,,,,,,,,,,,,,,,3,4.767999887,8,0.492000103,1,0,1200,90,1,1199,satisfaction,11123,2019-10-29_11h53.01.879,SurveyExpMetaMem,3.2.3,MacIntel,60
,,,,,,,,,,,,,,,,,,,,5,3.061999798,5,0.141000032,1,0,1200,657,1,1199,peanut,11123,2019-10-29_11h53.01.879,SurveyExpMetaMem,3.2.3,MacIntel,60
,,,,,,,,,,,,,,,,,,,,5,1.092999935,5,0.144999981,1,0,1200,472,1,1199,bald,11123,2019-10-29_11h53.01.879,SurveyExpMetaMem,3.2.3,MacIntel,60
,,,,,,,,,,,,,,,,,,,,5,2.109999895,5,0.137999773,1,0,1200,309,1,1199,homeless,11123,2019-10-29_11h53.01.879,SurveyExpMetaMem,3.2.3,MacIntel,60
,,,,,,,,,,,,,,,,,,,,5,1.073999882,5,0.173999786,1,0,1200,389,1,1199,gloomy,11123,2019-10-29_11h53.01.879,SurveyExpMetaMem,3.2.3,MacIntel,60
,,,,,,,,,,,,,,,,,,,,1,1.53399992,5,0.375,1,0,1200,496,1,1199,slow,11123,2019-10-29_11h53.01.879,SurveyExpMetaMem,3.2.3,MacIntel,60
,,,,,,,,,,,,,,,,,,,,5,25.09500003,5,0.131999969,1,0,1200,636,1,1199,refine,11123,2019-10-29_11h53.01.879,SurveyExpMetaMem,3.2.3,MacIntel,60
,,,,,,,,,,,,,,,,,,,,5,7.546999931,5,0.154999971,1,0,1200,112,1,1199,jaguar,11123,2019-10-29_11h53.01.879,SurveyExpMetaMem,3.2.3,MacIntel,60
,,,,,,,,,,,,,,,,,,,,8,1.896999836,8,0.325999975,1,0,1200,182,1,1199,genius,11123,2019-10-29_11h53.01.879,SurveyExpMetaMem,3.2.3,MacIntel,60
,,,,,,,,,,,,,,,,,,,,5,1.125999928,5,0.15899992,1,0,1200,585,1,1199,tatter,11123,2019-10-29_11h53.01.879,SurveyExpMetaMem,3.2.3,MacIntel,60
,,,,,,,,,,,,,,,,,,,,5,1.277999878,5,0.190999985,1,0,1200,935,1,1199,despise,11123,2019-10-29_11h53.01.879,SurveyExpMetaMem,3.2.3,MacIntel,60
,,,,,,,,,,,,,,,,,,,,5,5.732000113,5,0.177999735,1,0,1200,247,1,1199,graduate,11123,2019-10-29_11h53.01.879,SurveyExpMetaMem,3.2.3,MacIntel,60
,,,,,,,,,,,,,,,,,,,,5,4.289999962,5,0.173000097,1,0,1200,610,1,1199,miniature,11123,2019-10-29_11h53.01.879,SurveyExpMetaMem,3.2.3,MacIntel,60
,,,,,,,,,,,,,,,,,,,,5,1.194999695,5,0.174999952,1,0,1200,581,1,1199,dork,11123,2019-10-29_11h53.01.879,SurveyExpMetaMem,3.2.3,MacIntel,60
,,,,,,,,,,,,,,,,,,,,1,1.809999943,9,1.092999935,1,0,1200,284,1,1199,delight,11123,2019-10-29_11h53.01.879,SurveyExpMetaMem,3.2.3,MacIntel,60
,,,,,,,,,,,,,,,,,,,,5,1.075999737,5,0.177000046,1,0,1200,640,1,1199,cabin,11123,2019-10-29_11h53.01.879,SurveyExpMetaMem,3.2.3,MacIntel,60
,,,,,,,,,,,,,,,,,,,,7,2.519000053,3,1.280999899,1,0,1200,1062,1,1199,shoplifter,11123,2019-10-29_11h53.01.879,SurveyExpMetaMem,3.2.3,MacIntel,60
,,,,,,,,,,,,,,,,,,,,5,1.90199995,5,0.172999859,1,0,1200,617,1,1199,tomato,11123,2019-10-29_11h53.01.879,SurveyExpMetaMem,3.2.3,MacIntel,60
,,,,,,,,,,,,,,,,,,,,5,1.227999926,5,0.194000006,1,0,1200,660,1,1199,rock,11123,2019-10-29_11h53.01.879,SurveyExpMetaMem,3.2.3,MacIntel,60
,,,,,,,,,,,,,,,,,,,,3,2.797999859,1,1.216999769,1,0,1200,933,1,1199,afraid,11123,2019-10-29_11h53.01.879,SurveyExpMetaMem,3.2.3,MacIntel,60
,,,,,,,,,,,,,,,,,,,,5,1.450000048,5,0.375999928,1,0,1200,280,1,1199,cookout,11123,2019-10-29_11h53.01.879,SurveyExpMetaMem,3.2.3,MacIntel,60
,,,,,,,,,,,,,,,,,,,,5,2.638000011,5,0.162999868,1,0,1200,462,1,1199,shallow,11123,2019-10-29_11h53.01.879,SurveyExpMetaMem,3.2.3,MacIntel,60
,,,,,,,,,,,,,,,,,,,,7,2.260999918,5,1.894000053,1,0,1200,419,1,1199,immature,11123,2019-10-29_11h53.01.879,SurveyExpMetaMem,3.2.3,MacIntel,60
,,,,,,,,,,,,,,,,,,,,5,3.573999882,5,0.193000078,1,0,1200,571,1,1199,marrow,11123,2019-10-29_11h53.01.879,SurveyExpMetaMem,3.2.3,MacIntel,60
,,,,,,,,,,,,,,,,,,,,8,1.821999788,5,0.171999931,1,0,1200,57,1,1199,important,11123,2019-10-29_11h53.01.879,SurveyExpMetaMem,3.2.3,MacIntel,60
,,,,,,,,,,,,,,,,,,,,5,1.748999834,5,0.423999786,1,0,1200,506,1,1199,lower,11123,2019-10-29_11h53.01.879,SurveyExpMetaMem,3.2.3,MacIntel,60
,,,,,,,,,,,,,,,,,,,,5,1.963999987,1,1.444000006,1,0,1200,301,1,1199,sad,11123,2019-10-29_11h53.01.879,SurveyExpMetaMem,3.2.3,MacIntel,60
,,,,,,,,,,,,,,,,,,,,8,6.914999962,5,2.93900013,1,0,1200,1099,1,1199,fire,11123,2019-10-29_11h53.01.879,SurveyExpMetaMem,3.2.3,MacIntel,60
,,,,,,,,,,,,,,,,,,,,5,2.601999998,5,0.189999819,1,0,1200,110,1,1199,animal,11123,2019-10-29_11h53.01.879,SurveyExpMetaMem,3.2.3,MacIntel,60
,,,,,,,,,,,,,,,,,,,,5,2.17599988,5,0.190999746,1,0,1200,1044,1,1199,lost,11123,2019-10-29_11h53.01.879,SurveyExpMetaMem,3.2.3,MacIntel,60
,,,,,,,,,,,,,,,,,,,,5,2.604999781,5,0.164999962,1,0,1200,458,1,1199,refuse,11123,2019-10-29_11h53.01.879,SurveyExpMetaMem,3.2.3,MacIntel,60
,,,,,,,,,,,,,,,,,,,,7,2.186999798,3,1.279000044,1,0,1200,494,1,1199,butcher,11123,2019-10-29_11h53.01.879,SurveyExpMetaMem,3.2.3,MacIntel,60
,,,,,,,,,,,,,,,,,,,,1,5.898000002,1,0.270999908,1,0,1200,3,1,1199,nudist,11123,2019-10-29_11h53.01.879,SurveyExpMetaMem,3.2.3,MacIntel,60
,,,,,,,,,,,,,,,,,,,,5,25.85800004,5,0.131000042,1,0,1200,1178,1,1199,weight,11123,2019-10-29_11h53.01.879,SurveyExpMetaMem,3.2.3,MacIntel,60
,,,,,,,,,,,,,,,,,,,,9,1.711999893,3,1.375,1,0,1200,1007,1,1199,tornado,11123,2019-10-29_11h53.01.879,SurveyExpMetaMem,3.2.3,MacIntel,60
,,,,,,,,,,,,,,,,,,,,5,11.3579998,5,0.130999804,1,0,1200,809,1,1199,boy,11123,2019-10-29_11h53.01.879,SurveyExpMetaMem,3.2.3,MacIntel,60
,,,,,,,,,,,,,,,,,,,,8,10.71899986,8,1.095000029,1,0,1200,27,1,1199,gourmet,11123,2019-10-29_11h53.01.879,SurveyExpMetaMem,3.2.3,MacIntel,60
,,,,,,,,,,,,,,,,,,,,5,2.125999928,5,0.171999931,1,0,1200,819,1,1199,sheep,11123,2019-10-29_11h53.01.879,SurveyExpMetaMem,3.2.3,MacIntel,60
,,,,,,,,,,,,,,,,,,,,5,8.161999941,5,0.194000006,1,0,1200,418,1,1199,cheapskate,11123,2019-10-29_11h53.01.879,SurveyExpMetaMem,3.2.3,MacIntel,60
,,,,,,,,,,,,,,,,,,,,7,6.694999695,7,0.825999975,1,0,1200,869,1,1199,assure,11123,2019-10-29_11h53.01.879,SurveyExpMetaMem,3.2.3,MacIntel,60
,,,,,,,,,,,,,,,,,,,,7,17.45099998,4,0.774999857,1,0,1200,1127,1,1199,spank,11123,2019-10-29_11h53.01.879,SurveyExpMetaMem,3.2.3,MacIntel,60
,,,,,,,,,,,,,,,,,,,,5,1.342999935,5,0.25999999,1,0,1200,251,1,1199,meteor,11123,2019-10-29_11h53.01.879,SurveyExpMetaMem,3.2.3,MacIntel,60
,,,,,,,,,,,,,,,,,,,,9,5.059000015,8,2.063999891,1,0,1200,70,1,1199,cartoon,11123,2019-10-29_11h53.01.879,SurveyExpMetaMem,3.2.3,MacIntel,60
,,,,,,,,,,,,,,,,,,,,1,3.613999844,8,1.177000046,1,0,1200,843,1,1199,garden,11123,2019-10-29_11h53.01.879,SurveyExpMetaMem,3.2.3,MacIntel,60
,,,,,,,,,,,,,,,,,,,,5,6.927000046,5,0.15899992,1,0,1200,75,1,1199,actor,11123,2019-10-29_11h53.01.879,SurveyExpMetaMem,3.2.3,MacIntel,60
,,,,,,,,,,,,,,,,,,,,8,2.667000055,9,1.131999969,1,0,1200,13,1,1199,mingle,11123,2019-10-29_11h53.01.879,SurveyExpMetaMem,3.2.3,MacIntel,60
,,,,,,,,,,,,,,,,,,,,9,3.953000069,1,0.395999908,1,0,1200,859,1,1199,serene,11123,2019-10-29_11h53.01.879,SurveyExpMetaMem,3.2.3,MacIntel,60
,,,,,,,,,,,,,,,,,,,,5,0.957999945,5,0.572999716,1,0,1200,560,1,1199,spurn,11123,2019-10-29_11h53.01.879,SurveyExpMetaMem,3.2.3,MacIntel,60
,,,,,,,,,,,,,,,,,,,,5,14.48300004,5,0.161999941,1,0,1200,255,1,1199,ass,11123,2019-10-29_11h53.01.879,SurveyExpMetaMem,3.2.3,MacIntel,60
,,,,,,,,,,,,,,,,,,,,1,2.447000027,5,1.835000038,1,0,1200,350,1,1199,inadequate,11123,2019-10-29_11h53.01.879,SurveyExpMetaMem,3.2.3,MacIntel,60
,,,,,,,,,,,,,,,,,,,,6,2.316999912,6,1.947999954,1,0,1200,157,1,1199,reveal,11123,2019-10-29_11h53.01.879,SurveyExpMetaMem,3.2.3,MacIntel,60
,,,,,,,,,,,,,,,,,,,,9,3.581999779,5,0.411999941,1,0,1200,151,1,1199,react,11123,2019-10-29_11h53.01.879,SurveyExpMetaMem,3.2.3,MacIntel,60
,,,,,,,,,,,,,,,,,,,,1,1.642999887,5,1.501999855,1,0,1200,664,1,1199,quiet,11123,2019-10-29_11h53.01.879,SurveyExpMetaMem,3.2.3,MacIntel,60
,,,,,,,,,,,,,,,,,,,,5,1.564999819,5,0.35800004,1,0,1200,668,1,1199,unit,11123,2019-10-29_11h53.01.879,SurveyExpMetaMem,3.2.3,MacIntel,60
,,,,,,,,,,,,,,,,,,,,9,3.01699996,1,0.861999989,1,0,1200,981,1,1199,rage,11123,2019-10-29_11h53.01.879,SurveyExpMetaMem,3.2.3,MacIntel,60
,,,,,,,,,,,,,,,,,,,,9,1.198999882,5,0.592999935,1,0,1200,167,1,1199,casino,11123,2019-10-29_11h53.01.879,SurveyExpMetaMem,3.2.3,MacIntel,60
,,,,,,,,,,,,,,,,,,,,9,1.561999798,9,0.834000111,1,0,1200,164,1,1199,marry,11123,2019-10-29_11h53.01.879,SurveyExpMetaMem,3.2.3,MacIntel,60
,,,,,,,,,,,,,,,,,,,,5,6.759000063,5,0.207999945,1,0,1200,54,1,1199,alcohol,11123,2019-10-29_11h53.01.879,SurveyExpMetaMem,3.2.3,MacIntel,60
,,,,,,,,,,,,,,,,,,,,8,6.157999992,8,0.170000076,1,0,1200,42,1,1199,accomplish,11123,2019-10-29_11h53.01.879,SurveyExpMetaMem,3.2.3,MacIntel,60
,,,,,,,,,,,,,,,,,,,,5,2.226999998,5,0.171000004,1,0,1200,769,1,1199,relate,11123,2019-10-29_11h53.01.879,SurveyExpMetaMem,3.2.3,MacIntel,60
,,,,,,,,,,,,,,,,,,,,6,7.431999922,4,1.125999928,1,0,1200,1176,1,1199,vampire,11123,2019-10-29_11h53.01.879,SurveyExpMetaMem,3.2.3,MacIntel,60
,,,,,,,,,,,,,,,,,,,,9,2.214999914,5,0.271999836,1,0,1200,533,1,1199,busy,11123,2019-10-29_11h53.01.879,SurveyExpMetaMem,3.2.3,MacIntel,60
,,,,,,,,,,,,,,,,,,,,4,3.61500001,9,3.05099988,1,0,1200,86,1,1199,talent,11123,2019-10-29_11h53.01.879,SurveyExpMetaMem,3.2.3,MacIntel,60
,,,,,,,,,,,,,,,,,,,,6,6.709000111,3,0.226000071,1,0,1200,1080,1,1199,broken,11123,2019-10-29_11h53.01.879,SurveyExpMetaMem,3.2.3,MacIntel,60
,,,,,,,,,,,,,,,,,,,,5,4.523000002,5,0.165999889,1,0,1200,776,1,1199,doll,11123,2019-10-29_11h53.01.879,SurveyExpMetaMem,3.2.3,MacIntel,60
,,,,,,,,,,,,,,,,,,,,1,1.92599988,9,1.659999847,1,0,1200,897,1,1199,peaceful,11123,2019-10-29_11h53.01.879,SurveyExpMetaMem,3.2.3,MacIntel,60
,,,,,,,,,,,,,,,,,,,,2,6.135999918,8,1.226999998,1,0,1200,734,1,1199,piano,11123,2019-10-29_11h53.01.879,SurveyExpMetaMem,3.2.3,MacIntel,60
,,,,,,,,,,,,,,,,,,,,5,4.667000055,8,1.082000017,1,0,1200,828,1,1199,cooperative,11123,2019-10-29_11h53.01.879,SurveyExpMetaMem,3.2.3,MacIntel,60
,,,,,,,,,,,,,,,,,,,,9,5.322999954,9,0.809999943,1,0,1200,775,1,1199,pancakes,11123,2019-10-29_11h53.01.879,SurveyExpMetaMem,3.2.3,MacIntel,60
,,,,,,,,,,,,,,,,,,,,5,2.871999741,5,0.187000036,1,0,1200,1191,1,1199,evade,11123,2019-10-29_11h53.01.879,SurveyExpMetaMem,3.2.3,MacIntel,60
,,,,,,,,,,,,,,,,,,,,4,2.679000139,1,0.898999929,1,0,1200,308,1,1199,worthless,11123,2019-10-29_11h53.01.879,SurveyExpMetaMem,3.2.3,MacIntel,60
,,,,,,,,,,,,,,,,,,,,5,36.77199984,5,0.126999855,1,0,1200,1177,1,1199,pang,11123,2019-10-29_11h53.01.879,SurveyExpMetaMem,3.2.3,MacIntel,60
,,,,,,,,,,,,,,,,,,,,4,1.480000019,4,0.161999941,1,0,1200,702,1,1199,den,11123,2019-10-29_11h53.01.879,SurveyExpMetaMem,3.2.3,MacIntel,60
,,,,,,,,,,,,,,,,,,,,1,431.4449999,7,4.667000055,1,0,1200,883,1,1199,sky,11123,2019-10-29_11h53.01.879,SurveyExpMetaMem,3.2.3,MacIntel,60
,,,,,,,,,,,,,,,,,,,,5,3.362999916,5,1.28399992,1,0,1200,403,1,1199,wither,11123,2019-10-29_11h53.01.879,SurveyExpMetaMem,3.2.3,MacIntel,60
,,,,,,,,,,,,,,,,,,,,8,7.012999773,3,1.095000029,1,0,1200,918,1,1199,gunpoint,11123,2019-10-29_11h53.01.879,SurveyExpMetaMem,3.2.3,MacIntel,60
,,,,,,,,,,,,,,,,,,,,9,3.02699995,8,2.754999876,1,0,1200,97,1,1199,enthusiastic,11123,2019-10-29_11h53.01.879,SurveyExpMetaMem,3.2.3,MacIntel,60
,,,,,,,,,,,,,,,,,,,,5,1.479000092,5,0.146999836,1,0,1200,675,1,1199,golfer,11123,2019-10-29_11h53.01.879,SurveyExpMetaMem,3.2.3,MacIntel,60
,,,,,,,,,,,,,,,,,,,,5,1.362999916,5,0.131999969,1,0,1200,266,1,1199,juice,11123,2019-10-29_11h53.01.879,SurveyExpMetaMem,3.2.3,MacIntel,60
,,,,,,,,,,,,,,,,,,,,5,2.632999897,5,0.131999969,1,0,1200,834,1,1199,crown,11123,2019-10-29_11h53.01.879,SurveyExpMetaMem,3.2.3,MacIntel,60
,,,,,,,,,,,,,,,,,,,,9,25.49299979,5,1.705999851,1,0,1200,243,1,1199,fame,11123,2019-10-29_11h53.01.879,SurveyExpMetaMem,3.2.3,MacIntel,60
,,,,,,,,,,,,,,,,,,,,5,5.22300005,5,0.204999924,1,0,1200,371,1,1199,weakness,11123,2019-10-29_11h53.01.879,SurveyExpMetaMem,3.2.3,MacIntel,60
,,,,,,,,,,,,,,,,,,,,9,7.52699995,1,1.628999949,1,0,1200,1033,1,1199,horror,11123,2019-10-29_11h53.01.879,SurveyExpMetaMem,3.2.3,MacIntel,60
,,,,,,,,,,,,,,,,,,,,5,5.20299983,5,0.138999939,1,0,1200,553,1,1199,corner,11123,2019-10-29_11h53.01.879,SurveyExpMetaMem,3.2.3,MacIntel,60
,,,,,,,,,,,,,,,,,,,,5,0.90899992,5,0.222999811,1,0,1200,1190,1,1199,clench,11123,2019-10-29_11h53.01.879,SurveyExpMetaMem,3.2.3,MacIntel,60
,,,,,,,,,,,,,,,,,,,,9,8.713999987,5,1.194999933,1,0,1200,126,1,1199,rich,11123,2019-10-29_11h53.01.879,SurveyExpMetaMem,3.2.3,MacIntel,60
,,,,,,,,,,,,,,,,,,,,5,1.114999771,5,0.347999811,1,0,1200,842,1,1199,breathe,11123,2019-10-29_11h53.01.879,SurveyExpMetaMem,3.2.3,MacIntel,60
,,,,,,,,,,,,,,,,,,,,9,1.845999956,9,0.9599998,1,0,1200,178,1,1199,alive,11123,2019-10-29_11h53.01.879,SurveyExpMetaMem,3.2.3,MacIntel,60
,,,,,,,,,,,,,,,,,,,,8,4.892999887,3,1.070999861,1,0,1200,1063,1,1199,quarrel,11123,2019-10-29_11h53.01.879,SurveyExpMetaMem,3.2.3,MacIntel,60
,,,,,,,,,,,,,,,,,,,,9,2.414999962,1,1.159999847,1,0,1200,1024,1,1199,burn,11123,2019-10-29_11h53.01.879,SurveyExpMetaMem,3.2.3,MacIntel,60
,,,,,,,,,,,,,,,,,,,,5,9.807999849,5,0.161999941,1,0,1200,508,1,1199,haphazard,11123,2019-10-29_11h53.01.879,SurveyExpMetaMem,3.2.3,MacIntel,60
,,,,,,,,,,,,,,,,,,,,5,1.849999905,5,0.181999922,1,0,1200,209,1,1199,husband,11123,2019-10-29_11h53.01.879,SurveyExpMetaMem,3.2.3,MacIntel,60
,,,,,,,,,,,,,,,,,,,,5,2.009999752,5,0.204999924,1,0,1200,1147,1,1199,demand,11123,2019-10-29_11h53.01.879,SurveyExpMetaMem,3.2.3,MacIntel,60
,,,,,,,,,,,,,,,,,,,,5,2.200000048,5,0.188999891,1,0,1200,818,1,1199,priest,11123,2019-10-29_11h53.01.879,SurveyExpMetaMem,3.2.3,MacIntel,60
,,,,,,,,,,,,,,,,,,,,5,7.167000055,5,0.187999964,1,0,1200,121,1,1199,self,11123,2019-10-29_11h53.01.879,SurveyExpMetaMem,3.2.3,MacIntel,60
,,,,,,,,,,,,,,,,,,,,9,1.745999813,7,1.535000086,1,0,1200,268,1,1199,tickle,11123,2019-10-29_11h53.01.879,SurveyExpMetaMem,3.2.3,MacIntel,60
,,,,,,,,,,,,,,,,,,,,5,2.930000067,5,0.212000132,1,0,1200,541,1,1199,apathy,11123,2019-10-29_11h53.01.879,SurveyExpMetaMem,3.2.3,MacIntel,60
,,,,,,,,,,,,,,,,,,,,5,1.395999908,5,0.221999884,1,0,1200,778,1,1199,adorn,11123,2019-10-29_11h53.01.879,SurveyExpMetaMem,3.2.3,MacIntel,60
,,,,,,,,,,,,,,,,,,,,8,2.05099988,4,0.986000061,1,0,1200,1067,1,1199,wicked,11123,2019-10-29_11h53.01.879,SurveyExpMetaMem,3.2.3,MacIntel,60
,,,,,,,,,,,,,,,,,,,,8,4,3,0.746999979,1,0,1200,929,1,1199,mutilation,11123,2019-10-29_11h53.01.879,SurveyExpMetaMem,3.2.3,MacIntel,60
,,,,,,,,,,,,,,,,,,,,1,2.527999878,3,2.013999939,1,0,1200,303,1,1199,death,11123,2019-10-29_11h53.01.879,SurveyExpMetaMem,3.2.3,MacIntel,60
,,,,,,,,,,,,,,,,,,,,5,3.620999813,5,0.15899992,1,0,1200,1195,1,1199,speech,11123,2019-10-29_11h53.01.879,SurveyExpMetaMem,3.2.3,MacIntel,60
,,,,,,,,,,,,,,,,,,,,5,1.361999989,5,0.173999786,1,0,1200,803,1,1199,tidy,11123,2019-10-29_11h53.01.879,SurveyExpMetaMem,3.2.3,MacIntel,60
,,,,,,,,,,,,,,,,,,,,5,3.696999788,5,0.190999985,1,0,1200,420,1,1199,smoke,11123,2019-10-29_11h53.01.879,SurveyExpMetaMem,3.2.3,MacIntel,60
,,,,,,,,,,,,,,,,,,,,2,2.545000076,7,1.18599987,1,0,1200,881,1,1199,protected,11123,2019-10-29_11h53.01.879,SurveyExpMetaMem,3.2.3,MacIntel,60
,,,,,,,,,,,,,,,,,,,,5,4.182999849,1,0.398999929,1,0,1200,938,1,1199,seasick,11123,2019-10-29_11h53.01.879,SurveyExpMetaMem,3.2.3,MacIntel,60
,,,,,,,,,,,,,,,,,,,,8,3.795999765,3,0.593999863,1,0,1200,1123,1,1199,haunt,11123,2019-10-29_11h53.01.879,SurveyExpMetaMem,3.2.3,MacIntel,60
,,,,,,,,,,,,,,,,,,,,5,2.566999912,5,0.226000071,1,0,1200,465,1,1199,void,11123,2019-10-29_11h53.01.879,SurveyExpMetaMem,3.2.3,MacIntel,60
,,,,,,,,,,,,,,,,,,,,8,2.109999895,2,0.991999865,1,0,1200,190,1,1199,rescue,11123,2019-10-29_11h53.01.879,SurveyExpMetaMem,3.2.3,MacIntel,60
,,,,,,,,,,,,,,,,,,,,8,4.77699995,2,0.878999949,1,0,1200,984,1,1199,despairing,11123,2019-10-29_11h53.01.879,SurveyExpMetaMem,3.2.3,MacIntel,60
,,,,,,,,,,,,,,,,,,,,5,1.36199975,5,0.205999851,1,0,1200,489,1,1199,timid,11123,2019-10-29_11h53.01.879,SurveyExpMetaMem,3.2.3,MacIntel,60
,,,,,,,,,,,,,,,,,,,,2,5.904000044,5,2.680999756,1,0,1200,676,1,1199,straighten,11123,2019-10-29_11h53.01.879,SurveyExpMetaMem,3.2.3,MacIntel,60
,,,,,,,,,,,,,,,,,,,,5,4.065999746,5,0.148999929,1,0,1200,262,1,1199,athletics,11123,2019-10-29_11h53.01.879,SurveyExpMetaMem,3.2.3,MacIntel,60
,,,,,,,,,,,,,,,,,,,,5,0.711999893,5,0.213000059,1,0,1200,18,1,1199,mail,11123,2019-10-29_11h53.01.879,SurveyExpMetaMem,3.2.3,MacIntel,60
,,,,,,,,,,,,,,,,,,,,8,2.044999838,9,1.313999891,1,0,1200,11,1,1199,astonished,11123,2019-10-29_11h53.01.879,SurveyExpMetaMem,3.2.3,MacIntel,60
,,,,,,,,,,,,,,,,,,,,3,3.897999763,5,0.796999931,1,0,1200,294,1,1199,confident,11123,2019-10-29_11h53.01.879,SurveyExpMetaMem,3.2.3,MacIntel,60
,,,,,,,,,,,,,,,,,,,,9,3.053999901,9,1.367000103,1,0,1200,231,1,1199,cherish,11123,2019-10-29_11h53.01.879,SurveyExpMetaMem,3.2.3,MacIntel,60
,,,,,,,,,,,,,,,,,,,,2,2.04399991,7,0.928999901,1,0,1200,806,1,1199,tree,11123,2019-10-29_11h53.01.879,SurveyExpMetaMem,3.2.3,MacIntel,60
,,,,,,,,,,,,,,,,,,,,9,3.684999943,2,0.865999937,1,0,1200,376,1,1199,incompetent,11123,2019-10-29_11h53.01.879,SurveyExpMetaMem,3.2.3,MacIntel,60
,,,,,,,,,,,,,,,,,,,,9,2.394999981,5,0.9599998,1,0,1200,5,1,1199,drunk,11123,2019-10-29_11h53.01.879,SurveyExpMetaMem,3.2.3,MacIntel,60
,,,,,,,,,,,,,,,,,,,,5,2.351999998,5,0.256000042,1,0,1200,379,1,1199,slob,11123,2019-10-29_11h53.01.879,SurveyExpMetaMem,3.2.3,MacIntel,60
,,,,,,,,,,,,,,,,,,,,5,1.042999983,5,0.190999746,1,0,1200,104,1,1199,freeway,11123,2019-10-29_11h53.01.879,SurveyExpMetaMem,3.2.3,MacIntel,60
,,,,,,,,,,,,,,,,,,,,5,1.544999838,5,0.195999861,1,0,1200,613,1,1199,cup,11123,2019-10-29_11h53.01.879,SurveyExpMetaMem,3.2.3,MacIntel,60
,,,,,,,,,,,,,,,,,,,,9,1.826999903,9,0.590999842,1,0,1200,123,1,1199,favorite,11123,2019-10-29_11h53.01.879,SurveyExpMetaMem,3.2.3,MacIntel,60
,,,,,,,,,,,,,,,,,,,,5,2.078999996,5,0.210000038,1,0,1200,370,1,1199,rodent,11123,2019-10-29_11h53.01.879,SurveyExpMetaMem,3.2.3,MacIntel,60
,,,,,,,,,,,,,,,,,,,,7,2.648000002,3,0.371000051,1,0,1200,446,1,1199,greedy,11123,2019-10-29_11h53.01.879,SurveyExpMetaMem,3.2.3,MacIntel,60
,,,,,,,,,,,,,,,,,,,,7,1.911999941,5,0.022000074,1,0,1200,160,1,1199,reunion,11123,2019-10-29_11h53.01.879,SurveyExpMetaMem,3.2.3,MacIntel,60
,,,,,,,,,,,,,,,,,,,,7,0.238999844,5,1.701999903,1,0,1200,103,1,1199,conquest,11123,2019-10-29_11h53.01.879,SurveyExpMetaMem,3.2.3,MacIntel,60
,,,,,,,,,,,,,,,,,,,,5,1.207999945,5,0.214999914,1,0,1200,649,1,1199,donkey,11123,2019-10-29_11h53.01.879,SurveyExpMetaMem,3.2.3,MacIntel,60
,,,,,,,,,,,,,,,,,,,,8,1.92599988,8,0.40899992,1,0,1200,115,1,1199,sexual,11123,2019-10-29_11h53.01.879,SurveyExpMetaMem,3.2.3,MacIntel,60
,,,,,,,,,,,,,,,,,,,,9,1.710999727,9,0.191999912,1,0,1200,116,1,1199,carnival,11123,2019-10-29_11h53.01.879,SurveyExpMetaMem,3.2.3,MacIntel,60
,,,,,,,,,,,,,,,,,,,,5,1.491999865,5,0.207999945,1,0,1200,666,1,1199,verify,11123,2019-10-29_11h53.01.879,SurveyExpMetaMem,3.2.3,MacIntel,60
,,,,,,,,,,,,,,,,,,,,8,2.905999899,8,0.547999859,1,0,1200,977,1,1199,choke,11123,2019-10-29_11h53.01.879,SurveyExpMetaMem,3.2.3,MacIntel,60
,,,,,,,,,,,,,,,,,,,,5,9.562999964,2,0.758999825,1,0,1200,367,1,1199,pathetic,11123,2019-10-29_11h53.01.879,SurveyExpMetaMem,3.2.3,MacIntel,60
,,,,,,,,,,,,,,,,,,,,5,2.326999903,5,0.173999786,1,0,1200,177,1,1199,frosting,11123,2019-10-29_11h53.01.879,SurveyExpMetaMem,3.2.3,MacIntel,60
,,,,,,,,,,,,,,,,,,,,2,1.257999897,6,1.591999769,1,0,1200,680,1,1199,candle,11123,2019-10-29_11h53.01.879,SurveyExpMetaMem,3.2.3,MacIntel,60
,,,,,,,,,,,,,,,,,,,,9,1.998999834,9,0.210999966,1,0,1200,96,1,1199,joke,11123,2019-10-29_11h53.01.879,SurveyExpMetaMem,3.2.3,MacIntel,60
,,,,,,,,,,,,,,,,,,,,5,2.164999962,5,0.177999973,1,0,1200,593,1,1199,errand,11123,2019-10-29_11h53.01.879,SurveyExpMetaMem,3.2.3,MacIntel,60
,,,,,,,,,,,,,,,,,,,,5,1.115999937,5,0.194999933,1,0,1200,709,1,1199,ancestor,11123,2019-10-29_11h53.01.879,SurveyExpMetaMem,3.2.3,MacIntel,60
,,,,,,,,,,,,,,,,,,,,5,1.309999943,5,0.190999746,1,0,1200,603,1,1199,mane,11123,2019-10-29_11h53.01.879,SurveyExpMetaMem,3.2.3,MacIntel,60
,,,,,,,,,,,,,,,,,,,,5,1.076999903,5,0.173999786,1,0,1200,759,1,1199,prefer,11123,2019-10-29_11h53.01.879,SurveyExpMetaMem,3.2.3,MacIntel,60
,,,,,,,,,,,,,,,,,,,,5,0.799999952,5,0.190999985,1,0,1200,700,1,1199,frog,11123,2019-10-29_11h53.01.879,SurveyExpMetaMem,3.2.3,MacIntel,60
,,,,,,,,,,,,,,,,,,,,2,1.559999943,5,1.947999954,1,0,1200,189,1,1199,thoughtful,11123,2019-10-29_11h53.01.879,SurveyExpMetaMem,3.2.3,MacIntel,60
,,,,,,,,,,,,,,,,,,,,5,1.75999999,5,0.157999992,1,0,1200,152,1,1199,hire,11123,2019-10-29_11h53.01.879,SurveyExpMetaMem,3.2.3,MacIntel,60
,,,,,,,,,,,,,,,,,,,,5,0.81400013,5,0.173999786,1,0,1200,1060,1,1199,dent,11123,2019-10-29_11h53.01.879,SurveyExpMetaMem,3.2.3,MacIntel,60
,,,,,,,,,,,,,,,,,,,,5,1.467999935,5,0.174999952,1,0,1200,1107,1,1199,snake,11123,2019-10-29_11h53.01.879,SurveyExpMetaMem,3.2.3,MacIntel,60
,,,,,,,,,,,,,,,,,,,,8,3.582999945,2,0.440000057,1,0,1200,1030,1,1199,offend,11123,2019-10-29_11h53.01.879,SurveyExpMetaMem,3.2.3,MacIntel,60
,,,,,,,,,,,,,,,,,,,,2,2.263999939,2,0.195999861,1,0,1200,417,1,1199,dummy,11123,2019-10-29_11h53.01.879,SurveyExpMetaMem,3.2.3,MacIntel,60
,,,,,,,,,,,,,,,,,,,,5,1.376999855,5,0.198999882,1,0,1200,14,1,1199,attain,11123,2019-10-29_11h53.01.879,SurveyExpMetaMem,3.2.3,MacIntel,60
,,,,,,,,,,,,,,,,,,,,8,5.121000051,8,1.798999786,1,0,1200,82,1,1199,stunning,11123,2019-10-29_11h53.01.879,SurveyExpMetaMem,3.2.3,MacIntel,60
,,,,,,,,,,,,,,,,,,,,9,3.296999931,1,1.562000036,1,0,1200,971,1,1199,crash,11123,2019-10-29_11h53.01.879,SurveyExpMetaMem,3.2.3,MacIntel,60
,,,,,,,,,,,,,,,,,,,,8,1.728999853,2,2.261999846,1,0,1200,1087,1,1199,affair,11123,2019-10-29_11h53.01.879,SurveyExpMetaMem,3.2.3,MacIntel,60
,,,,,,,,,,,,,,,,,,,,1,176.135,9,1.055999994,1,0,1200,192,1,1199,pleased,11123,2019-10-29_11h53.01.879,SurveyExpMetaMem,3.2.3,MacIntel,60
,,,,,,,,,,,,,,,,,,,,5,1.858999968,5,0.177999973,1,0,1200,1153,1,1199,mangle,11123,2019-10-29_11h53.01.879,SurveyExpMetaMem,3.2.3,MacIntel,60
,,,,,,,,,,,,,,,,,,,,9,2.083999872,9,0.730999947,1,0,1200,10,1,1199,cheerleader,11123,2019-10-29_11h53.01.879,SurveyExpMetaMem,3.2.3,MacIntel,60
,,,,,,,,,,,,,,,,,,,,1,1.725000143,1,0.40199995,1,0,1200,406,1,1199,tired,11123,2019-10-29_11h53.01.879,SurveyExpMetaMem,3.2.3,MacIntel,60
,,,,,,,,,,,,,,,,,,,,5,2.110999823,5,0.173000097,1,0,1200,1140,1,1199,blood,11123,2019-10-29_11h53.01.879,SurveyExpMetaMem,3.2.3,MacIntel,60
,,,,,,,,,,,,,,,,,,,,5,1.31799984,5,0.177999973,1,0,1200,695,1,1199,teacher,11123,2019-10-29_11h53.01.879,SurveyExpMetaMem,3.2.3,MacIntel,60
,,,,,,,,,,,,,,,,,,,,5,1.318999767,5,0.189999819,1,0,1200,523,1,1199,witch,11123,2019-10-29_11h53.01.879,SurveyExpMetaMem,3.2.3,MacIntel,60
,,,,,,,,,,,,,,,,,,,,5,1.290999889,5,0.194999933,1,0,1200,1029,1,1199,abduction,11123,2019-10-29_11h53.01.879,SurveyExpMetaMem,3.2.3,MacIntel,60
,,,,,,,,,,,,,,,,,,,,8,2.129999876,2,1.200999975,1,0,1200,973,1,1199,anger,11123,2019-10-29_11h53.01.879,SurveyExpMetaMem,3.2.3,MacIntel,60
,,,,,,,,,,,,,,,,,,,,2,2.183999777,8,0.962999821,1,0,1200,833,1,1199,nice,11123,2019-10-29_11h53.01.879,SurveyExpMetaMem,3.2.3,MacIntel,60
,,,,,,,,,,,,,,,,,,,,5,2.145999908,5,0.270999908,1,0,1200,1085,1,1199,sever,11123,2019-10-29_11h53.01.879,SurveyExpMetaMem,3.2.3,MacIntel,60
,,,,,,,,,,,,,,,,,,,,5,42.40199995,5,0.121999979,1,0,1200,1145,1,1199,officer,11123,2019-10-29_11h53.01.879,SurveyExpMetaMem,3.2.3,MacIntel,60
,,,,,,,,,,,,,,,,,,,,7,7.694000006,1,1.193999767,1,0,1200,934,1,1199,sob,11123,2019-10-29_11h53.01.879,SurveyExpMetaMem,3.2.3,MacIntel,60
,,,,,,,,,,,,,,,,,,,,7,2.092999935,5,1.315999746,1,0,1200,62,1,1199,interested,11123,2019-10-29_11h53.01.879,SurveyExpMetaMem,3.2.3,MacIntel,60
,,,,,,,,,,,,,,,,,,,,5,1.575999975,5,0.356999874,1,0,1200,476,1,1199,warden,11123,2019-10-29_11h53.01.879,SurveyExpMetaMem,3.2.3,MacIntel,60
,,,,,,,,,,,,,,,,,,,,5,1.208999872,5,0.160999775,1,0,1200,425,1,1199,crutch,11123,2019-10-29_11h53.01.879,SurveyExpMetaMem,3.2.3,MacIntel,60
,,,,,,,,,,,,,,,,,,,,5,0.905999899,5,0.172999859,1,0,1200,644,1,1199,farm,11123,2019-10-29_11h53.01.879,SurveyExpMetaMem,3.2.3,MacIntel,60
,,,,,,,,,,,,,,,,,,,,5,0.688999891,5,0.174999714,1,0,1200,671,1,1199,windmill,11123,2019-10-29_11h53.01.879,SurveyExpMetaMem,3.2.3,MacIntel,60
,,,,,,,,,,,,,,,,,,,,5,2.178999901,5,0.210999966,1,0,1200,574,1,1199,distracted,11123,2019-10-29_11h53.01.879,SurveyExpMetaMem,3.2.3,MacIntel,60
,,,,,,,,,,,,,,,,,,,,5,0.941999912,5,0.239999771,1,0,1200,1093,1,1199,hive,11123,2019-10-29_11h53.01.879,SurveyExpMetaMem,3.2.3,MacIntel,60
,,,,,,,,,,,,,,,,,,,,5,0.722999811,5,0.222999811,1,0,1200,466,1,1199,gnaw,11123,2019-10-29_11h53.01.879,SurveyExpMetaMem,3.2.3,MacIntel,60
,,,,,,,,,,,,,,,,,,,,5,0.824999809,5,0.197999954,1,0,1200,109,1,1199,new,11123,2019-10-29_11h53.01.879,SurveyExpMetaMem,3.2.3,MacIntel,60
,,,,,,,,,,,,,,,,,,,,5,0.746000051,5,0.189999819,1,0,1200,931,1,1199,overweight,11123,2019-10-29_11h53.01.879,SurveyExpMetaMem,3.2.3,MacIntel,60
,,,,,,,,,,,,,,,,,,,,5,0.172999859,5,0.210000038,1,0,1200,642,1,1199,newspaper,11123,2019-10-29_11h53.01.879,SurveyExpMetaMem,3.2.3,MacIntel,60
,,,,,,,,,,,,,,,,,,,,5,0.144999743,5,0.146999836,1,0,1200,1150,1,1199,forceful,11123,2019-10-29_11h53.01.879,SurveyExpMetaMem,3.2.3,MacIntel,60
,,,,,,,,,,,,,,,,,,,,5,0.154999971,5,0.154999733,1,0,1200,404,1,1199,nuisance,11123,2019-10-29_11h53.01.879,SurveyExpMetaMem,3.2.3,MacIntel,60
,,,,,,,,,,,,,,,,,,,,5,0.138000011,5,0.140000105,1,0,1200,299,1,1199,champion,11123,2019-10-29_11h53.01.879,SurveyExpMetaMem,3.2.3,MacIntel,60
,,,,,,,,,,,,,,,,,,,,5,0.139999866,5,0.131000042,1,0,1200,331,1,1199,casket,11123,2019-10-29_11h53.01.879,SurveyExpMetaMem,3.2.3,MacIntel,60
,,,,,,,,,,,,,,,,,,,,5,0.142999887,5,0.140999794,1,0,1200,639,1,1199,outlet,11123,2019-10-29_11h53.01.879,SurveyExpMetaMem,3.2.3,MacIntel,60
,,,,,,,,,,,,,,,,,,,,5,0.146999836,5,0.148999929,1,0,1200,891,1,1199,kind,11123,2019-10-29_11h53.01.879,SurveyExpMetaMem,3.2.3,MacIntel,60
,,,,,,,,,,,,,,,,,,,,5,0.145999908,5,0.138999939,1,0,1200,28,1,1199,energy,11123,2019-10-29_11h53.01.879,SurveyExpMetaMem,3.2.3,MacIntel,60
,,,,,,,,,,,,,,,,,,,,5,0.140000105,5,0.157000065,1,0,1200,520,1,1199,gullible,11123,2019-10-29_11h53.01.879,SurveyExpMetaMem,3.2.3,MacIntel,60
,,,,,,,,,,,,,,,,,,,,5,0.138999939,5,0.142999887,1,0,1200,218,1,1199,charming,11123,2019-10-29_11h53.01.879,SurveyExpMetaMem,3.2.3,MacIntel,60
,,,,,,,,,,,,,,,,,,,,5,0.145999908,5,0.157000065,1,0,1200,495,1,1199,dust,11123,2019-10-29_11h53.01.879,SurveyExpMetaMem,3.2.3,MacIntel,60
,,,,,,,,,,,,,,,,,,,,5,0.163999796,5,0.981999874,1,0,1200,861,1,1199,nectar,11123,2019-10-29_11h53.01.879,SurveyExpMetaMem,3.2.3,MacIntel,60
,,,,,,,,,,,,,,,,,,,,5,0.197999954,5,0.171999931,1,0,1200,726,1,1199,crackers,11123,2019-10-29_11h53.01.879,SurveyExpMetaMem,3.2.3,MacIntel,60
,,,,,,,,,,,,,,,,,,,,5,0.154000044,5,0.962999821,1,0,1200,1010,1,1199,arson,11123,2019-10-29_11h53.01.879,SurveyExpMetaMem,3.2.3,MacIntel,60
,,,,,,,,,,,,,,,,,,,,5,0.187000036,5,0.157000065,1,0,1200,932,1,1199,bankrupt,11123,2019-10-29_11h53.01.879,SurveyExpMetaMem,3.2.3,MacIntel,60
,,,,,,,,,,,,,,,,,,,,5,0.15899992,5,0.174000025,1,0,1200,113,1,1199,bridesmaid,11123,2019-10-29_11h53.01.879,SurveyExpMetaMem,3.2.3,MacIntel,60
,,,,,,,,,,,,,,,,,,,,5,0.154999971,5,0.170000076,1,0,1200,387,1,1199,tax,11123,2019-10-29_11h53.01.879,SurveyExpMetaMem,3.2.3,MacIntel,60
,,,,,,,,,,,,,,,,,,,,5,0.146000147,5,0.260999918,1,0,1200,738,1,1199,horse,11123,2019-10-29_11h53.01.879,SurveyExpMetaMem,3.2.3,MacIntel,60
,,,,,,,,,,,,,,,,,,,,5,0.220000029,5,0.161999941,1,0,1200,1111,1,1199,bruise,11123,2019-10-29_11h53.01.879,SurveyExpMetaMem,3.2.3,MacIntel,60
,,,,,,,,,,,,,,,,,,,,5,0.220999956,5,0.194000006,1,0,1200,530,1,1199,erase,11123,2019-10-29_11h53.01.879,SurveyExpMetaMem,3.2.3,MacIntel,60
,,,,,,,,,,,,,,,,,,,,5,0.167000055,5,0.180000067,1,0,1200,765,1,1199,candid,11123,2019-10-29_11h53.01.879,SurveyExpMetaMem,3.2.3,MacIntel,60
,,,,,,,,,,,,,,,,,,,,5,0.197999954,7,4.066999912,1,0,1200,817,1,1199,countryside,11123,2019-10-29_11h53.01.879,SurveyExpMetaMem,3.2.3,MacIntel,60
,,,,,,,,,,,,,,,,,,,,7,1.458999872,7,0.65899992,1,0,1200,269,1,1199,extravagant,11123,2019-10-29_11h53.01.879,SurveyExpMetaMem,3.2.3,MacIntel,60
,,,,,,,,,,,,,,,,,,,,5,2.244999886,5,0.188999891,1,0,1200,393,1,1199,droop,11123,2019-10-29_11h53.01.879,SurveyExpMetaMem,3.2.3,MacIntel,60
,,,,,,,,,,,,,,,,,,,,7,1.525999784,3,0.74000001,1,0,1200,1113,1,1199,dagger,11123,2019-10-29_11h53.01.879,SurveyExpMetaMem,3.2.3,MacIntel,60
,,,,,,,,,,,,,,,,,,,,8,1.326999903,3,0.639999866,1,0,1200,362,1,1199,despair,11123,2019-10-29_11h53.01.879,SurveyExpMetaMem,3.2.3,MacIntel,60
,,,,,,,,,,,,,,,,,,,,2,3.799999952,5,1.178999901,1,0,1200,731,1,1199,decency,11123,2019-10-29_11h53.01.879,SurveyExpMetaMem,3.2.3,MacIntel,60
,,,,,,,,,,,,,,,,,,,,5,2.460999966,5,0.585999727,1,0,1200,798,1,1199,crystal,11123,2019-10-29_11h53.01.879,SurveyExpMetaMem,3.2.3,MacIntel,60
,,,,,,,,,,,,,,,,,,,,9,1.763000011,3,1.030999899,1,0,1200,1179,1,1199,nerves,11123,2019-10-29_11h53.01.879,SurveyExpMetaMem,3.2.3,MacIntel,60
,,,,,,,,,,,,,,,,,,,,5,2.008999825,5,0.220999956,1,0,1200,33,1,1199,sister,11123,2019-10-29_11h53.01.879,SurveyExpMetaMem,3.2.3,MacIntel,60
,,,,,,,,,,,,,,,,,,,,2,2.013999939,8,1.860999823,1,0,1200,892,1,1199,untroubled,11123,2019-10-29_11h53.01.879,SurveyExpMetaMem,3.2.3,MacIntel,60
,,,,,,,,,,,,,,,,,,,,5,1.681999922,5,0.40899992,1,0,1200,634,1,1199,glacier,11123,2019-10-29_11h53.01.879,SurveyExpMetaMem,3.2.3,MacIntel,60
,,,,,,,,,,,,,,,,,,,,2,1.576999903,5,1.160999775,1,0,1200,838,1,1199,nestle,11123,2019-10-29_11h53.01.879,SurveyExpMetaMem,3.2.3,MacIntel,60
,,,,,,,,,,,,,,,,,,,,5,2.966999769,5,0.667999983,1,0,1200,499,1,1199,stop,11123,2019-10-29_11h53.01.879,SurveyExpMetaMem,3.2.3,MacIntel,60
,,,,,,,,,,,,,,,,,,,,2,1.878000021,9,0.951999903,1,0,1200,893,1,1199,nature,11123,2019-10-29_11h53.01.879,SurveyExpMetaMem,3.2.3,MacIntel,60
,,,,,,,,,,,,,,,,,,,,5,3.463999987,5,0.649999857,1,0,1200,720,1,1199,stable,11123,2019-10-29_11h53.01.879,SurveyExpMetaMem,3.2.3,MacIntel,60
,,,,,,,,,,,,,,,,,,,,5,1.893999815,5,0.241999865,1,0,1200,637,1,1199,flock,11123,2019-10-29_11h53.01.879,SurveyExpMetaMem,3.2.3,MacIntel,60
,,,,,,,,,,,,,,,,,,,,5,1.141000032,5,0.198999882,1,0,1200,293,1,1199,succeed,11123,2019-10-29_11h53.01.879,SurveyExpMetaMem,3.2.3,MacIntel,60
,,,,,,,,,,,,,,,,,,,,5,0.798000097,5,0.172999859,1,0,1200,996,1,1199,sting,11123,2019-10-29_11h53.01.879,SurveyExpMetaMem,3.2.3,MacIntel,60
,,,,,,,,,,,,,,,,,,,,5,0.135999918,5,0.131999969,1,0,1200,1183,1,1199,emotional,11123,2019-10-29_11h53.01.879,SurveyExpMetaMem,3.2.3,MacIntel,60
,,,,,,,,,,,,,,,,,,,,5,0.138999939,5,0.549000025,1,0,1200,921,1,1199,humiliation,11123,2019-10-29_11h53.01.879,SurveyExpMetaMem,3.2.3,MacIntel,60
,,,,,,,,,,,,,,,,,,,,5,0.187999964,5,0.155999899,1,0,1200,463,1,1199,limp,11123,2019-10-29_11h53.01.879,SurveyExpMetaMem,3.2.3,MacIntel,60
,,,,,,,,,,,,,,,,,,,,5,0.144999743,5,0.172999859,1,0,1200,317,1,1199,cry,11123,2019-10-29_11h53.01.879,SurveyExpMetaMem,3.2.3,MacIntel,60
,,,,,,,,,,,,,,,,,,,,5,0.154999971,5,0.164999962,1,0,1200,678,1,1199,lightbulb,11123,2019-10-29_11h53.01.879,SurveyExpMetaMem,3.2.3,MacIntel,60
,,,,,,,,,,,,,,,,,,,,5,0.172999859,5,0.164000034,1,0,1200,1076,1,1199,embarrassed,11123,2019-10-29_11h53.01.879,SurveyExpMetaMem,3.2.3,MacIntel,60
,,,,,,,,,,,,,,,,,,,,5,0.177000046,5,0.309000015,1,0,1200,95,1,1199,giggle,11123,2019-10-29_11h53.01.879,SurveyExpMetaMem,3.2.3,MacIntel,60
,,,,,,,,,,,,,,,,,,,,9,2.201999903,9,0.417000055,1,0,1200,58,1,1199,boost,11123,2019-10-29_11h53.01.879,SurveyExpMetaMem,3.2.3,MacIntel,60
,,,,,,,,,,,,,,,,,,,,1,1.683999777,5,1.167000055,1,0,1200,827,1,1199,saint,11123,2019-10-29_11h53.01.879,SurveyExpMetaMem,3.2.3,MacIntel,60
,,,,,,,,,,,,,,,,,,,,9,2.628999949,5,0.94299984,1,0,1200,1021,1,1199,attack,11123,2019-10-29_11h53.01.879,SurveyExpMetaMem,3.2.3,MacIntel,60
,,,,,,,,,,,,,,,,,,,,5,0.992999792,5,0.224999905,1,0,1200,1192,1,1199,startled,11123,2019-10-29_11h53.01.879,SurveyExpMetaMem,3.2.3,MacIntel,60
,,,,,,,,,,,,,,,,,,,,5,3.832999945,1,0.720000029,1,0,1200,366,1,1199,fatigue,11123,2019-10-29_11h53.01.879,SurveyExpMetaMem,3.2.3,MacIntel,60
,,,,,,,,,,,,,,,,,,,,5,2.108999968,5,0.422999859,1,0,1200,285,1,1199,gold,11123,2019-10-29_11h53.01.879,SurveyExpMetaMem,3.2.3,MacIntel,60
,,,,,,,,,,,,,,,,,,,,5,0.239999771,5,0.970000029,1,0,1200,526,1,1199,dry,11123,2019-10-29_11h53.01.879,SurveyExpMetaMem,3.2.3,MacIntel,60
,,,,,,,,,,,,,,,,,,,,5,0.947999954,5,0.51699996,1,0,1200,38,1,1199,cheeseburger,11123,2019-10-29_11h53.01.879,SurveyExpMetaMem,3.2.3,MacIntel,60
,,,,,,,,,,,,,,,,,,,,5,0.807999849,5,0.205999851,1,0,1200,785,1,1199,pond,11123,2019-10-29_11h53.01.879,SurveyExpMetaMem,3.2.3,MacIntel,60
,,,,,,,,,,,,,,,,,,,,5,0.906999826,5,0.296999931,1,0,1200,888,1,1199,refreshment,11123,2019-10-29_11h53.01.879,SurveyExpMetaMem,3.2.3,MacIntel,60
,,,,,,,,,,,,,,,,,,,,5,0.774999857,5,0.25999999,1,0,1200,497,1,1199,pungent,11123,2019-10-29_11h53.01.879,SurveyExpMetaMem,3.2.3,MacIntel,60
,,,,,,,,,,,,,,,,,,,,5,0.639999866,5,0.265000105,1,0,1200,89,1,1199,cruiseship,11123,2019-10-29_11h53.01.879,SurveyExpMetaMem,3.2.3,MacIntel,60
,,,,,,,,,,,,,,,,,,,,8,2.00999999,3,1.342999935,1,0,1200,959,1,1199,divorce,11123,2019-10-29_11h53.01.879,SurveyExpMetaMem,3.2.3,MacIntel,60
,,,,,,,,,,,,,,,,,,,,5,7.740999937,5,0.151000023,1,0,1200,1006,1,1199,rash,11123,2019-10-29_11h53.01.879,SurveyExpMetaMem,3.2.3,MacIntel,60
,,,,,,,,,,,,,,,,,,,,5,5.069000006,5,0.14199996,1,0,1200,797,1,1199,hamburger,11123,2019-10-29_11h53.01.879,SurveyExpMetaMem,3.2.3,MacIntel,60
,,,,,,,,,,,,,,,,,,,,5,1.393000126,5,0.157999992,1,0,1200,392,1,1199,moody,11123,2019-10-29_11h53.01.879,SurveyExpMetaMem,3.2.3,MacIntel,60
,,,,,,,,,,,,,,,,,,,,5,0.14199996,5,0.147999763,1,0,1200,287,1,1199,optimistic,11123,2019-10-29_11h53.01.879,SurveyExpMetaMem,3.2.3,MacIntel,60
,,,,,,,,,,,,,,,,,,,,5,0.153999805,5,0.140999794,1,0,1200,348,1,1199,impotent,11123,2019-10-29_11h53.01.879,SurveyExpMetaMem,3.2.3,MacIntel,60
,,,,,,,,,,,,,,,,,,,,5,0.133999825,5,0.146999836,1,0,1200,619,1,1199,pulpit,11123,2019-10-29_11h53.01.879,SurveyExpMetaMem,3.2.3,MacIntel,60
,,,,,,,,,,,,,,,,,,,,5,0.146000147,5,0.156999826,1,0,1200,1146,1,1199,bug,11123,2019-10-29_11h53.01.879,SurveyExpMetaMem,3.2.3,MacIntel,60
,,,,,,,,,,,,,,,,,,,,5,0.142999887,5,0.159999847,1,0,1200,880,1,1199,security,11123,2019-10-29_11h53.01.879,SurveyExpMetaMem,3.2.3,MacIntel,60
,,,,,,,,,,,,,,,,,,,,5,0.174999952,5,0.143999815,1,0,1200,757,1,1199,sentiment,11123,2019-10-29_11h53.01.879,SurveyExpMetaMem,3.2.3,MacIntel,60
,,,,,,,,,,,,,,,,,,,,5,0.154999971,5,0.162999868,1,0,1200,1165,1,1199,revolt,11123,2019-10-29_11h53.01.879,SurveyExpMetaMem,3.2.3,MacIntel,60
,,,,,,,,,,,,,,,,,,,,5,0.163999796,5,0.15899992,1,0,1200,686,1,1199,phone,11123,2019-10-29_11h53.01.879,SurveyExpMetaMem,3.2.3,MacIntel,60
,,,,,,,,,,,,,,,,,,,,5,0.14199996,5,0.14199996,1,0,1200,306,1,1199,gloom,11123,2019-10-29_11h53.01.879,SurveyExpMetaMem,3.2.3,MacIntel,60
,,,,,,,,,,,,,,,,,,,,5,0.145999908,5,0.155999899,1,0,1200,1098,1,1199,confused,11123,2019-10-29_11h53.01.879,SurveyExpMetaMem,3.2.3,MacIntel,60
,,,,,,,,,,,,,,,,,,,,5,0.129999876,5,0.144999981,1,0,1200,840,1,1199,cuisine,11123,2019-10-29_11h53.01.879,SurveyExpMetaMem,3.2.3,MacIntel,60
,,,,,,,,,,,,,,,,,,,,5,0.144999743,5,0.156999826,1,0,1200,1090,1,1199,destruction,11123,2019-10-29_11h53.01.879,SurveyExpMetaMem,3.2.3,MacIntel,60
,,,,,,,,,,,,,,,,,,,,5,0.138999939,5,0.157000065,1,0,1200,333,1,1199,weak,11123,2019-10-29_11h53.01.879,SurveyExpMetaMem,3.2.3,MacIntel,60
,,,,,,,,,,,,,,,,,,,,5,0.145999908,5,0.154999733,1,0,1200,1102,1,1199,nuclear,11123,2019-10-29_11h53.01.879,SurveyExpMetaMem,3.2.3,MacIntel,60
,,,,,,,,,,,,,,,,,,,,5,0.139999866,5,0.146999836,1,0,1200,578,1,1199,govern,11123,2019-10-29_11h53.01.879,SurveyExpMetaMem,3.2.3,MacIntel,60
,,,,,,,,,,,,,,,,,,,,5,0.154999733,5,0.160000086,1,0,1200,64,1,1199,brain,11123,2019-10-29_11h53.01.879,SurveyExpMetaMem,3.2.3,MacIntel,60
,,,,,,,,,,,,,,,,,,,,5,0.136999846,5,0.138000011,1,0,1200,341,1,1199,stinky,11123,2019-10-29_11h53.01.879,SurveyExpMetaMem,3.2.3,MacIntel,60
,,,,,,,,,,,,,,,,,,,,5,0.154999971,5,0.161999941,1,0,1200,450,1,1199,overcast,11123,2019-10-29_11h53.01.879,SurveyExpMetaMem,3.2.3,MacIntel,60
,,,,,,,,,,,,,,,,,,,,5,0.164000034,5,0.171999931,1,0,1200,703,1,1199,book,11123,2019-10-29_11h53.01.879,SurveyExpMetaMem,3.2.3,MacIntel,60
,,,,,,,,,,,,,,,,,,,,5,0.157000065,5,0.159999847,1,0,1200,1139,1,1199,scare,11123,2019-10-29_11h53.01.879,SurveyExpMetaMem,3.2.3,MacIntel,60
,,,,,,,,,,,,,,,,,,,,5,0.142999887,5,0.164999962,1,0,1200,558,1,1199,punk,11123,2019-10-29_11h53.01.879,SurveyExpMetaMem,3.2.3,MacIntel,60
,,,,,,,,,,,,,,,,,,,,5,0.190000057,5,0.14199996,1,0,1200,1133,1,1199,slip,11123,2019-10-29_11h53.01.879,SurveyExpMetaMem,3.2.3,MacIntel,60
,,,,,,,,,,,,,,,,,,,,5,0.154999971,5,0.154999733,1,0,1200,49,1,1199,ecstatic,11123,2019-10-29_11h53.01.879,SurveyExpMetaMem,3.2.3,MacIntel,60
,,,,,,,,,,,,,,,,,,,,5,0.167999983,5,0.15899992,1,0,1200,1088,1,1199,forbid,11123,2019-10-29_11h53.01.879,SurveyExpMetaMem,3.2.3,MacIntel,60
,,,,,,,,,,,,,,,,,,,,5,0.171999931,5,0.144999981,1,0,1200,98,1,1199,affection,11123,2019-10-29_11h53.01.879,SurveyExpMetaMem,3.2.3,MacIntel,60
,,,,,,,,,,,,,,,,,,,,5,0.171000004,5,0.156000137,1,0,1200,60,1,1199,bikini,11123,2019-10-29_11h53.01.879,SurveyExpMetaMem,3.2.3,MacIntel,60
,,,,,,,,,,,,,,,,,,,,5,0.146999836,5,0.157999992,1,0,1200,166,1,1199,unite,11123,2019-10-29_11h53.01.879,SurveyExpMetaMem,3.2.3,MacIntel,60
,,,,,,,,,,,,,,,,,,,,5,0.154999971,5,0.159999847,1,0,1200,1143,1,1199,arrogant,11123,2019-10-29_11h53.01.879,SurveyExpMetaMem,3.2.3,MacIntel,60
,,,,,,,,,,,,,,,,,,,,5,0.145999908,5,0.173999786,1,0,1200,540,1,1199,derelict,11123,2019-10-29_11h53.01.879,SurveyExpMetaMem,3.2.3,MacIntel,60
,,,,,,,,,,,,,,,,,,,,5,0.159999847,5,0.163999796,1,0,1200,402,1,1199,dismissive,11123,2019-10-29_11h53.01.879,SurveyExpMetaMem,3.2.3,MacIntel,60
,,,,,,,,,,,,,,,,,,,,5,0.173999786,5,0.137999773,1,0,1200,507,1,1199,smudge,11123,2019-10-29_11h53.01.879,SurveyExpMetaMem,3.2.3,MacIntel,60
,,,,,,,,,,,,,,,,,,,,5,0.140000105,5,0.167000055,1,0,1200,176,1,1199,champ,11123,2019-10-29_11h53.01.879,SurveyExpMetaMem,3.2.3,MacIntel,60
,,,,,,,,,,,,,,,,,,,,5,0.174000025,5,0.157999992,1,0,1200,233,1,1199,exhilaration,11123,2019-10-29_11h53.01.879,SurveyExpMetaMem,3.2.3,MacIntel,60
,,,,,,,,,,,,,,,,,,,,5,0.155999899,5,0.162999868,1,0,1200,745,1,1199,inform,11123,2019-10-29_11h53.01.879,SurveyExpMetaMem,3.2.3,MacIntel,60
,,,,,,,,,,,,,,,,,,,,5,0.148000002,5,0.172999859,1,0,1200,780,1,1199,grass,11123,2019-10-29_11h53.01.879,SurveyExpMetaMem,3.2.3,MacIntel,60
,,,,,,,,,,,,,,,,,,,,5,0.145999908,5,0.31099987,1,0,1200,1027,1,1199,criticism,11123,2019-10-29_11h53.01.879,SurveyExpMetaMem,3.2.3,MacIntel,60
,,,,,,,,,,,,,,,,,,,,5,0.171999931,5,0.156999826,1,0,1200,980,1,1199,liar,11123,2019-10-29_11h53.01.879,SurveyExpMetaMem,3.2.3,MacIntel,60
,,,,,,,,,,,,,,,,,,,,5,0.14199996,5,0.161000013,1,0,1200,739,1,1199,seagull,11123,2019-10-29_11h53.01.879,SurveyExpMetaMem,3.2.3,MacIntel,60
,,,,,,,,,,,,,,,,,,,,5,0.17599988,5,0.166000128,1,0,1200,360,1,1199,dandruff,11123,2019-10-29_11h53.01.879,SurveyExpMetaMem,3.2.3,MacIntel,60
,,,,,,,,,,,,,,,,,,,,5,0.155999899,5,0.173000097,1,0,1200,407,1,1199,handicap,11123,2019-10-29_11h53.01.879,SurveyExpMetaMem,3.2.3,MacIntel,60
,,,,,,,,,,,,,,,,,,,,5,0.147000074,5,0.179000139,1,0,1200,831,1,1199,sofa,11123,2019-10-29_11h53.01.879,SurveyExpMetaMem,3.2.3,MacIntel,60
,,,,,,,,,,,,,,,,,,,,5,0.164999962,5,0.191999912,1,0,1200,41,1,1199,progress,11123,2019-10-29_11h53.01.879,SurveyExpMetaMem,3.2.3,MacIntel,60
,,,,,,,,,,,,,,,,,,,,5,0.178999901,5,0.11500001,1,0,1200,901,1,1199,rape,11123,2019-10-29_11h53.01.879,SurveyExpMetaMem,3.2.3,MacIntel,60
,,,,,,,,,,,,,,,,,,,,5,0.198999882,5,0.188999891,1,0,1200,131,1,1199,treat,11123,2019-10-29_11h53.01.879,SurveyExpMetaMem,3.2.3,MacIntel,60
,,,,,,,,,,,,,,,,,,,,5,0.156999826,5,0.162999868,1,0,1200,68,1,1199,perfect,11123,2019-10-29_11h53.01.879,SurveyExpMetaMem,3.2.3,MacIntel,60
,,,,,,,,,,,,,,,,,,,,5,0.164000034,5,0.193999767,1,0,1200,101,1,1199,alien,11123,2019-10-29_11h53.01.879,SurveyExpMetaMem,3.2.3,MacIntel,60
,,,,,,,,,,,,,,,,,,,,5,0.214999914,5,0.204999924,1,0,1200,1000,1,1199,threat,11123,2019-10-29_11h53.01.879,SurveyExpMetaMem,3.2.3,MacIntel,60
,,,,,,,,,,,,,,,,,,,,5,0.174000025,5,0.189999819,1,0,1200,298,1,1199,success,11123,2019-10-29_11h53.01.879,SurveyExpMetaMem,3.2.3,MacIntel,60
,,,,,,,,,,,,,,,,,,,,5,2.812000036,5,0.345999956,1,0,1200,173,1,1199,hope,11123,2019-10-29_11h53.01.879,SurveyExpMetaMem,3.2.3,MacIntel,60
,,,,,,,,,,,,,,,,,,,,7,1.240999937,3,0.657000065,1,0,1200,377,1,1199,complain,11123,2019-10-29_11h53.01.879,SurveyExpMetaMem,3.2.3,MacIntel,60
