mouse_4.x,mouse_4.y,mouse_4.leftButton,mouse_4.midButton,mouse_4.rightButton,mouse.x,mouse.y,mouse.leftButton,mouse.midButton,mouse.rightButton,mouse_2.x,mouse_2.y,mouse_2.leftButton,mouse_2.midButton,mouse_2.rightButton,mouse_3.x,mouse_3.y,mouse_3.leftButton,mouse_3.midButton,mouse_3.rightButton,A_key_resp.keys,A_key_resp.rt,key_resp.keys,key_resp.rt,trials.thisRepN,trials.thisTrialN,trials.thisN,trials.thisIndex,trials.ran,trials.order,word,ParticipantID,date,expName,psychopyVersion,OS,frameRate
0.078888889,-0.066666667,1,0,0,-0.004444444,-0.337777778,1,0,0,0.174731183,-0.083333333,1,0,0,0.174731183,-0.083333333,1,0,0,5,11.93399978,5,8.815999985,1,0,1200,1096,1,1199,flood,11131,2019-10-23_14h30.52.741,SurveyExpMetaMem,3.2.3,MacIntel,60
,,,,,,,,,,,,,,,,,,,,6,38.70099998,8,4.096999884,1,0,1200,94,1,1199,engaged,11131,2019-10-23_14h30.52.741,SurveyExpMetaMem,3.2.3,MacIntel,60
,,,,,,,,,,,,,,,,,,,,8,8.840999842,3,5.363999844,1,0,1200,1197,1,1199,command,11131,2019-10-23_14h30.52.741,SurveyExpMetaMem,3.2.3,MacIntel,60
,,,,,,,,,,,,,,,,,,,,5,2.353999853,5,1.212000132,1,0,1200,1060,1,1199,dent,11131,2019-10-23_14h30.52.741,SurveyExpMetaMem,3.2.3,MacIntel,60
,,,,,,,,,,,,,,,,,,,,9,3.880000114,9,2.740999937,1,0,1200,142,1,1199,christmas,11131,2019-10-23_14h30.52.741,SurveyExpMetaMem,3.2.3,MacIntel,60
,,,,,,,,,,,,,,,,,,,,8,5.934999943,1,1.964999914,1,0,1200,906,1,1199,syphilis,11131,2019-10-23_14h30.52.741,SurveyExpMetaMem,3.2.3,MacIntel,60
,,,,,,,,,,,,,,,,,,,,5,7.153999805,5,0.981999874,1,0,1200,700,1,1199,frog,11131,2019-10-23_14h30.52.741,SurveyExpMetaMem,3.2.3,MacIntel,60
,,,,,,,,,,,,,,,,,,,,7,3.862999916,9,3.130000114,1,0,1200,98,1,1199,affection,11131,2019-10-23_14h30.52.741,SurveyExpMetaMem,3.2.3,MacIntel,60
,,,,,,,,,,,,,,,,,,,,6,4.535000086,3,1.529000044,1,0,1200,342,1,1199,alienation,11131,2019-10-23_14h30.52.741,SurveyExpMetaMem,3.2.3,MacIntel,60
,,,,,,,,,,,,,,,,,,,,6,4.362999916,9,1.296999931,1,0,1200,885,1,1199,cozy,11131,2019-10-23_14h30.52.741,SurveyExpMetaMem,3.2.3,MacIntel,60
,,,,,,,,,,,,,,,,,,,,7,4.930999994,2,2.006000042,1,0,1200,1001,1,1199,rude,11131,2019-10-23_14h30.52.741,SurveyExpMetaMem,3.2.3,MacIntel,60
,,,,,,,,,,,,,,,,,,,,5,24.10399985,3,1.835000038,1,0,1200,325,1,1199,disability,11131,2019-10-23_14h30.52.741,SurveyExpMetaMem,3.2.3,MacIntel,60
,,,,,,,,,,,,,,,,,,,,6,4.179999828,1,2.309000015,1,0,1200,372,1,1199,inferior,11131,2019-10-23_14h30.52.741,SurveyExpMetaMem,3.2.3,MacIntel,60
,,,,,,,,,,,,,,,,,,,,9,2.743000031,9,0.681999922,1,0,1200,195,1,1199,laughing,11131,2019-10-23_14h30.52.741,SurveyExpMetaMem,3.2.3,MacIntel,60
,,,,,,,,,,,,,,,,,,,,7,2.412999868,1,1.628999949,1,0,1200,940,1,1199,war,11131,2019-10-23_14h30.52.741,SurveyExpMetaMem,3.2.3,MacIntel,60
,,,,,,,,,,,,,,,,,,,,6,3.09499979,7,1.119999886,1,0,1200,129,1,1199,fly,11131,2019-10-23_14h30.52.741,SurveyExpMetaMem,3.2.3,MacIntel,60
,,,,,,,,,,,,,,,,,,,,5,1.454999924,5,0.388999939,1,0,1200,657,1,1199,peanut,11131,2019-10-23_14h30.52.741,SurveyExpMetaMem,3.2.3,MacIntel,60
,,,,,,,,,,,,,,,,,,,,5,1.167999983,5,0.305999756,1,0,1200,498,1,1199,alimony,11131,2019-10-23_14h30.52.741,SurveyExpMetaMem,3.2.3,MacIntel,60
,,,,,,,,,,,,,,,,,,,,7,1.569000006,4,7.93599987,1,0,1200,1134,1,1199,obsessed,11131,2019-10-23_14h30.52.741,SurveyExpMetaMem,3.2.3,MacIntel,60
,,,,,,,,,,,,,,,,,,,,5,1.678999901,5,0.346999884,1,0,1200,626,1,1199,pan,11131,2019-10-23_14h30.52.741,SurveyExpMetaMem,3.2.3,MacIntel,60
,,,,,,,,,,,,,,,,,,,,5,3.822999954,5,0.445999861,1,0,1200,818,1,1199,priest,11131,2019-10-23_14h30.52.741,SurveyExpMetaMem,3.2.3,MacIntel,60
,,,,,,,,,,,,,,,,,,,,8,3.263000011,7,1.305999994,1,0,1200,190,1,1199,rescue,11131,2019-10-23_14h30.52.741,SurveyExpMetaMem,3.2.3,MacIntel,60
,,,,,,,,,,,,,,,,,,,,6,5.278999805,3,0.712999821,1,0,1200,670,1,1199,urinate,11131,2019-10-23_14h30.52.741,SurveyExpMetaMem,3.2.3,MacIntel,60
,,,,,,,,,,,,,,,,,,,,7,3.501999855,2,5.129999876,1,0,1200,330,1,1199,sunburn,11131,2019-10-23_14h30.52.741,SurveyExpMetaMem,3.2.3,MacIntel,60
,,,,,,,,,,,,,,,,,,,,5,6.161999941,6,1.355000019,1,0,1200,794,1,1199,pray,11131,2019-10-23_14h30.52.741,SurveyExpMetaMem,3.2.3,MacIntel,60
,,,,,,,,,,,,,,,,,,,,5,1.184999943,5,0.362999916,1,0,1200,791,1,1199,shoes,11131,2019-10-23_14h30.52.741,SurveyExpMetaMem,3.2.3,MacIntel,60
,,,,,,,,,,,,,,,,,,,,6,1.545000076,4,1.35800004,1,0,1200,1067,1,1199,wicked,11131,2019-10-23_14h30.52.741,SurveyExpMetaMem,3.2.3,MacIntel,60
,,,,,,,,,,,,,,,,,,,,7,2.373999834,7,1.812999964,1,0,1200,272,1,1199,confidence,11131,2019-10-23_14h30.52.741,SurveyExpMetaMem,3.2.3,MacIntel,60
,,,,,,,,,,,,,,,,,,,,6,2.951999903,3,0.947000027,1,0,1200,1041,1,1199,sin,11131,2019-10-23_14h30.52.741,SurveyExpMetaMem,3.2.3,MacIntel,60
,,,,,,,,,,,,,,,,,,,,5,2.223999977,5,0.289999723,1,0,1200,648,1,1199,beads,11131,2019-10-23_14h30.52.741,SurveyExpMetaMem,3.2.3,MacIntel,60
,,,,,,,,,,,,,,,,,,,,5,1.20299983,5,0.289000034,1,0,1200,684,1,1199,send,11131,2019-10-23_14h30.52.741,SurveyExpMetaMem,3.2.3,MacIntel,60
,,,,,,,,,,,,,,,,,,,,5,4.351999998,3,0.680999756,1,0,1200,478,1,1199,numb,11131,2019-10-23_14h30.52.741,SurveyExpMetaMem,3.2.3,MacIntel,60
,,,,,,,,,,,,,,,,,,,,7,2.302999973,3,0.890999794,1,0,1200,301,1,1199,sad,11131,2019-10-23_14h30.52.741,SurveyExpMetaMem,3.2.3,MacIntel,60
,,,,,,,,,,,,,,,,,,,,5,1.249000072,5,0.290999889,1,0,1200,685,1,1199,makeup,11131,2019-10-23_14h30.52.741,SurveyExpMetaMem,3.2.3,MacIntel,60
,,,,,,,,,,,,,,,,,,,,7,2.006999731,2,0.739000082,1,0,1200,1128,1,1199,fighting,11131,2019-10-23_14h30.52.741,SurveyExpMetaMem,3.2.3,MacIntel,60
,,,,,,,,,,,,,,,,,,,,5,1.43599987,5,0.252000093,1,0,1200,552,1,1199,shadow,11131,2019-10-23_14h30.52.741,SurveyExpMetaMem,3.2.3,MacIntel,60
,,,,,,,,,,,,,,,,,,,,8,1.919000149,2,0.855000019,1,0,1200,316,1,1199,sorrow,11131,2019-10-23_14h30.52.741,SurveyExpMetaMem,3.2.3,MacIntel,60
,,,,,,,,,,,,,,,,,,,,5,1.936999798,5,1.213000059,1,0,1200,620,1,1199,spray,11131,2019-10-23_14h30.52.741,SurveyExpMetaMem,3.2.3,MacIntel,60
,,,,,,,,,,,,,,,,,,,,5,0.755999804,5,0.355999947,1,0,1200,50,1,1199,bolt,11131,2019-10-23_14h30.52.741,SurveyExpMetaMem,3.2.3,MacIntel,60
,,,,,,,,,,,,,,,,,,,,7,1.337999821,2,0.57799983,1,0,1200,1030,1,1199,offend,11131,2019-10-23_14h30.52.741,SurveyExpMetaMem,3.2.3,MacIntel,60
,,,,,,,,,,,,,,,,,,,,5,49.80999994,6,0.184999943,1,0,1200,692,1,1199,medicine,11131,2019-10-23_14h30.52.741,SurveyExpMetaMem,3.2.3,MacIntel,60
,,,,,,,,,,,,,,,,,,,,8,3.995999813,9,1.445999861,1,0,1200,73,1,1199,rhythm,11131,2019-10-23_14h30.52.741,SurveyExpMetaMem,3.2.3,MacIntel,60
,,,,,,,,,,,,,,,,,,,,5,2.612999916,5,0.21999979,1,0,1200,212,1,1199,belief,11131,2019-10-23_14h30.52.741,SurveyExpMetaMem,3.2.3,MacIntel,60
,,,,,,,,,,,,,,,,,,,,7,1.767999887,3,0.462999821,1,0,1200,907,1,1199,terrorist,11131,2019-10-23_14h30.52.741,SurveyExpMetaMem,3.2.3,MacIntel,60
,,,,,,,,,,,,,,,,,,,,7,2.612999916,3,0.569999933,1,0,1200,1090,1,1199,destruction,11131,2019-10-23_14h30.52.741,SurveyExpMetaMem,3.2.3,MacIntel,60
,,,,,,,,,,,,,,,,,,,,6,2.921000004,5,1.490999937,1,0,1200,537,1,1199,absurd,11131,2019-10-23_14h30.52.741,SurveyExpMetaMem,3.2.3,MacIntel,60
,,,,,,,,,,,,,,,,,,,,8,2.962999821,8,0.904999971,1,0,1200,39,1,1199,birth,11131,2019-10-23_14h30.52.741,SurveyExpMetaMem,3.2.3,MacIntel,60
,,,,,,,,,,,,,,,,,,,,7,2.45600009,4,0.368999958,1,0,1200,1168,1,1199,financial,11131,2019-10-23_14h30.52.741,SurveyExpMetaMem,3.2.3,MacIntel,60
,,,,,,,,,,,,,,,,,,,,5,1.611999989,5,1.079999924,1,0,1200,697,1,1199,clarinet,11131,2019-10-23_14h30.52.741,SurveyExpMetaMem,3.2.3,MacIntel,60
,,,,,,,,,,,,,,,,,,,,5,0.882999897,5,0.230000019,1,0,1200,830,1,1199,pear,11131,2019-10-23_14h30.52.741,SurveyExpMetaMem,3.2.3,MacIntel,60
,,,,,,,,,,,,,,,,,,,,5,1.269999981,5,0.263000011,1,0,1200,610,1,1199,miniature,11131,2019-10-23_14h30.52.741,SurveyExpMetaMem,3.2.3,MacIntel,60
,,,,,,,,,,,,,,,,,,,,8,1.602999926,8,0.289000034,1,0,1200,295,1,1199,passion,11131,2019-10-23_14h30.52.741,SurveyExpMetaMem,3.2.3,MacIntel,60
,,,,,,,,,,,,,,,,,,,,8,2.730999947,2,0.604000092,1,0,1200,391,1,1199,detach,11131,2019-10-23_14h30.52.741,SurveyExpMetaMem,3.2.3,MacIntel,60
,,,,,,,,,,,,,,,,,,,,5,4.924999952,5,0.18599987,1,0,1200,821,1,1199,cottage,11131,2019-10-23_14h30.52.741,SurveyExpMetaMem,3.2.3,MacIntel,60
,,,,,,,,,,,,,,,,,,,,8,2.284999847,9,0.346999884,1,0,1200,72,1,1199,attract,11131,2019-10-23_14h30.52.741,SurveyExpMetaMem,3.2.3,MacIntel,60
,,,,,,,,,,,,,,,,,,,,6,2.487999916,8,0.396000147,1,0,1200,12,1,1199,mountain,11131,2019-10-23_14h30.52.741,SurveyExpMetaMem,3.2.3,MacIntel,60
,,,,,,,,,,,,,,,,,,,,6,2.194999933,8,0.279999971,1,0,1200,243,1,1199,fame,11131,2019-10-23_14h30.52.741,SurveyExpMetaMem,3.2.3,MacIntel,60
,,,,,,,,,,,,,,,,,,,,5,1.763999939,5,0.204999924,1,0,1200,595,1,1199,vacuum,11131,2019-10-23_14h30.52.741,SurveyExpMetaMem,3.2.3,MacIntel,60
,,,,,,,,,,,,,,,,,,,,7,1.661999941,4,2.680000067,1,0,1200,1152,1,1199,scream,11131,2019-10-23_14h30.52.741,SurveyExpMetaMem,3.2.3,MacIntel,60
,,,,,,,,,,,,,,,,,,,,5,5.815000057,5,0.195999861,1,0,1200,544,1,1199,snail,11131,2019-10-23_14h30.52.741,SurveyExpMetaMem,3.2.3,MacIntel,60
,,,,,,,,,,,,,,,,,,,,7,2.944999933,7,0.270999908,1,0,1200,1174,1,1199,beast,11131,2019-10-23_14h30.52.741,SurveyExpMetaMem,3.2.3,MacIntel,60
,,,,,,,,,,,,,,,,,,,,7,3.019999981,7,0.220000029,1,0,1200,156,1,1199,gym,11131,2019-10-23_14h30.52.741,SurveyExpMetaMem,3.2.3,MacIntel,60
,,,,,,,,,,,,,,,,,,,,7,3.079999924,9,1.60800004,1,0,1200,160,1,1199,reunion,11131,2019-10-23_14h30.52.741,SurveyExpMetaMem,3.2.3,MacIntel,60
,,,,,,,,,,,,,,,,,,,,5,4.305999756,7,0.674000025,1,0,1200,580,1,1199,fur,11131,2019-10-23_14h30.52.741,SurveyExpMetaMem,3.2.3,MacIntel,60
,,,,,,,,,,,,,,,,,,,,7,8.796999931,3,1.012000084,1,0,1200,1105,1,1199,flee,11131,2019-10-23_14h30.52.741,SurveyExpMetaMem,3.2.3,MacIntel,60
,,,,,,,,,,,,,,,,,,,,6,3.280999899,4,0.569000006,1,0,1200,1074,1,1199,detain,11131,2019-10-23_14h30.52.741,SurveyExpMetaMem,3.2.3,MacIntel,60
,,,,,,,,,,,,,,,,,,,,5,1.394999981,5,1.179999828,1,0,1200,838,1,1199,nestle,11131,2019-10-23_14h30.52.741,SurveyExpMetaMem,3.2.3,MacIntel,60
,,,,,,,,,,,,,,,,,,,,5,0.864000082,5,0.298999786,1,0,1200,491,1,1199,meek,11131,2019-10-23_14h30.52.741,SurveyExpMetaMem,3.2.3,MacIntel,60
,,,,,,,,,,,,,,,,,,,,5,3.129999876,9,1.069000006,1,0,1200,884,1,1199,grateful,11131,2019-10-23_14h30.52.741,SurveyExpMetaMem,3.2.3,MacIntel,60
,,,,,,,,,,,,,,,,,,,,6,1.26699996,2,0.621999741,1,0,1200,392,1,1199,moody,11131,2019-10-23_14h30.52.741,SurveyExpMetaMem,3.2.3,MacIntel,60
,,,,,,,,,,,,,,,,,,,,5,1.145999908,5,0.228999853,1,0,1200,415,1,1199,grime,11131,2019-10-23_14h30.52.741,SurveyExpMetaMem,3.2.3,MacIntel,60
,,,,,,,,,,,,,,,,,,,,5,0.934999943,5,0.201999903,1,0,1200,590,1,1199,stool,11131,2019-10-23_14h30.52.741,SurveyExpMetaMem,3.2.3,MacIntel,60
,,,,,,,,,,,,,,,,,,,,5,3.495999813,3,0.3349998,1,0,1200,1109,1,1199,germ,11131,2019-10-23_14h30.52.741,SurveyExpMetaMem,3.2.3,MacIntel,60
,,,,,,,,,,,,,,,,,,,,6,3.214999914,3,0.362999916,1,0,1200,167,1,1199,casino,11131,2019-10-23_14h30.52.741,SurveyExpMetaMem,3.2.3,MacIntel,60
,,,,,,,,,,,,,,,,,,,,5,0.944999933,5,0.219000101,1,0,1200,730,1,1199,slogan,11131,2019-10-23_14h30.52.741,SurveyExpMetaMem,3.2.3,MacIntel,60
,,,,,,,,,,,,,,,,,,,,5,3.096999884,5,0.237999916,1,0,1200,798,1,1199,crystal,11131,2019-10-23_14h30.52.741,SurveyExpMetaMem,3.2.3,MacIntel,60
,,,,,,,,,,,,,,,,,,,,6,3.135999918,8,0.536000013,1,0,1200,236,1,1199,amaze,11131,2019-10-23_14h30.52.741,SurveyExpMetaMem,3.2.3,MacIntel,60
,,,,,,,,,,,,,,,,,,,,5,1.105999947,5,0.252000093,1,0,1200,554,1,1199,label,11131,2019-10-23_14h30.52.741,SurveyExpMetaMem,3.2.3,MacIntel,60
,,,,,,,,,,,,,,,,,,,,6,1.588999987,7,0.846999884,1,0,1200,249,1,1199,award,11131,2019-10-23_14h30.52.741,SurveyExpMetaMem,3.2.3,MacIntel,60
,,,,,,,,,,,,,,,,,,,,5,7.877999783,5,0.578999996,1,0,1200,257,1,1199,cockpit,11131,2019-10-23_14h30.52.741,SurveyExpMetaMem,3.2.3,MacIntel,60
,,,,,,,,,,,,,,,,,,,,5,1.036000013,5,0.263000011,1,0,1200,611,1,1199,herring,11131,2019-10-23_14h30.52.741,SurveyExpMetaMem,3.2.3,MacIntel,60
,,,,,,,,,,,,,,,,,,,,7,1.652999878,9,0.446000099,1,0,1200,124,1,1199,honeymoon,11131,2019-10-23_14h30.52.741,SurveyExpMetaMem,3.2.3,MacIntel,60
,,,,,,,,,,,,,,,,,,,,6,2.782000065,2,0.486000061,1,0,1200,1071,1,1199,uncomfortable,11131,2019-10-23_14h30.52.741,SurveyExpMetaMem,3.2.3,MacIntel,60
,,,,,,,,,,,,,,,,,,,,5,2.430999994,5,0.22300005,1,0,1200,553,1,1199,corner,11131,2019-10-23_14h30.52.741,SurveyExpMetaMem,3.2.3,MacIntel,60
,,,,,,,,,,,,,,,,,,,,6,1.541999817,3,0.579999924,1,0,1200,305,1,1199,frown,11131,2019-10-23_14h30.52.741,SurveyExpMetaMem,3.2.3,MacIntel,60
,,,,,,,,,,,,,,,,,,,,5,1.845999956,2,0.445999861,1,0,1200,628,1,1199,chess,11131,2019-10-23_14h30.52.741,SurveyExpMetaMem,3.2.3,MacIntel,60
,,,,,,,,,,,,,,,,,,,,5,6.520999908,5,0.21600008,1,0,1200,965,1,1199,traffic,11131,2019-10-23_14h30.52.741,SurveyExpMetaMem,3.2.3,MacIntel,60
,,,,,,,,,,,,,,,,,,,,5,1.157000065,5,0.212999821,1,0,1200,232,1,1199,prosper,11131,2019-10-23_14h30.52.741,SurveyExpMetaMem,3.2.3,MacIntel,60
,,,,,,,,,,,,,,,,,,,,6,1.529999971,9,0.654999733,1,0,1200,229,1,1199,heaven,11131,2019-10-23_14h30.52.741,SurveyExpMetaMem,3.2.3,MacIntel,60
,,,,,,,,,,,,,,,,,,,,6,1.355999947,3,0.397999763,1,0,1200,443,1,1199,incorrect,11131,2019-10-23_14h30.52.741,SurveyExpMetaMem,3.2.3,MacIntel,60
,,,,,,,,,,,,,,,,,,,,8,3.828999996,6,1.029999971,1,0,1200,1129,1,1199,spanking,11131,2019-10-23_14h30.52.741,SurveyExpMetaMem,3.2.3,MacIntel,60
,,,,,,,,,,,,,,,,,,,,6,1.986000061,3,0.250999928,1,0,1200,980,1,1199,liar,11131,2019-10-23_14h30.52.741,SurveyExpMetaMem,3.2.3,MacIntel,60
,,,,,,,,,,,,,,,,,,,,6,1.837999821,3,0.471999884,1,0,1200,1107,1,1199,snake,11131,2019-10-23_14h30.52.741,SurveyExpMetaMem,3.2.3,MacIntel,60
,,,,,,,,,,,,,,,,,,,,5,0.940999746,5,0.195999861,1,0,1200,216,1,1199,vigorous,11131,2019-10-23_14h30.52.741,SurveyExpMetaMem,3.2.3,MacIntel,60
,,,,,,,,,,,,,,,,,,,,5,1.145999908,5,0.178999901,1,0,1200,696,1,1199,rink,11131,2019-10-23_14h30.52.741,SurveyExpMetaMem,3.2.3,MacIntel,60
,,,,,,,,,,,,,,,,,,,,5,4.200999975,4,0.780999899,1,0,1200,1077,1,1199,unsure,11131,2019-10-23_14h30.52.741,SurveyExpMetaMem,3.2.3,MacIntel,60
,,,,,,,,,,,,,,,,,,,,6,2.512999773,9,0.684000015,1,0,1200,281,1,1199,summer,11131,2019-10-23_14h30.52.741,SurveyExpMetaMem,3.2.3,MacIntel,60
,,,,,,,,,,,,,,,,,,,,7,1.815999985,7,1.103999853,1,0,1200,187,1,1199,excite,11131,2019-10-23_14h30.52.741,SurveyExpMetaMem,3.2.3,MacIntel,60
,,,,,,,,,,,,,,,,,,,,5,2.20299983,5,0.655999899,1,0,1200,653,1,1199,detail,11131,2019-10-23_14h30.52.741,SurveyExpMetaMem,3.2.3,MacIntel,60
,,,,,,,,,,,,,,,,,,,,5,2.839999914,4,0.262999773,1,0,1200,583,1,1199,obey,11131,2019-10-23_14h30.52.741,SurveyExpMetaMem,3.2.3,MacIntel,60
,,,,,,,,,,,,,,,,,,,,6,3.836999893,4,0.137000084,1,0,1200,1108,1,1199,spider,11131,2019-10-23_14h30.52.741,SurveyExpMetaMem,3.2.3,MacIntel,60
,,,,,,,,,,,,,,,,,,,,6,2.879999876,4,0.322999954,1,0,1200,758,1,1199,camera,11131,2019-10-23_14h30.52.741,SurveyExpMetaMem,3.2.3,MacIntel,60
,,,,,,,,,,,,,,,,,,,,5,0.986999989,5,0.345999956,1,0,1200,564,1,1199,wane,11131,2019-10-23_14h30.52.741,SurveyExpMetaMem,3.2.3,MacIntel,60
,,,,,,,,,,,,,,,,,,,,5,0.565999985,5,0.291000128,1,0,1200,989,1,1199,banish,11131,2019-10-23_14h30.52.741,SurveyExpMetaMem,3.2.3,MacIntel,60
,,,,,,,,,,,,,,,,,,,,5,0.919999838,5,0.25399971,1,0,1200,604,1,1199,lamp,11131,2019-10-23_14h30.52.741,SurveyExpMetaMem,3.2.3,MacIntel,60
,,,,,,,,,,,,,,,,,,,,7,4.179999828,9,0.585999966,1,0,1200,239,1,1199,compassionate,11131,2019-10-23_14h30.52.741,SurveyExpMetaMem,3.2.3,MacIntel,60
,,,,,,,,,,,,,,,,,,,,5,1.220000029,5,0.279999733,1,0,1200,557,1,1199,class,11131,2019-10-23_14h30.52.741,SurveyExpMetaMem,3.2.3,MacIntel,60
,,,,,,,,,,,,,,,,,,,,7,2.861999989,5,0.640000105,1,0,1200,1169,1,1199,enforcement,11131,2019-10-23_14h30.52.741,SurveyExpMetaMem,3.2.3,MacIntel,60
,,,,,,,,,,,,,,,,,,,,7,10.88000011,7,0.230999947,1,0,1200,150,1,1199,vodka,11131,2019-10-23_14h30.52.741,SurveyExpMetaMem,3.2.3,MacIntel,60
,,,,,,,,,,,,,,,,,,,,7,2.087999821,7,1.571000099,1,0,1200,20,1,1199,climax,11131,2019-10-23_14h30.52.741,SurveyExpMetaMem,3.2.3,MacIntel,60
,,,,,,,,,,,,,,,,,,,,5,9.220000029,6,0.286000013,1,0,1200,555,1,1199,school,11131,2019-10-23_14h30.52.741,SurveyExpMetaMem,3.2.3,MacIntel,60
,,,,,,,,,,,,,,,,,,,,5,3.127999783,5,0.190999985,1,0,1200,395,1,1199,lack,11131,2019-10-23_14h30.52.741,SurveyExpMetaMem,3.2.3,MacIntel,60
,,,,,,,,,,,,,,,,,,,,5,1.196999788,5,0.211999893,1,0,1200,569,1,1199,onion,11131,2019-10-23_14h30.52.741,SurveyExpMetaMem,3.2.3,MacIntel,60
,,,,,,,,,,,,,,,,,,,,5,0.994999886,5,0.223999977,1,0,1200,506,1,1199,lower,11131,2019-10-23_14h30.52.741,SurveyExpMetaMem,3.2.3,MacIntel,60
,,,,,,,,,,,,,,,,,,,,5,1.380000114,5,0.229999781,1,0,1200,665,1,1199,read,11131,2019-10-23_14h30.52.741,SurveyExpMetaMem,3.2.3,MacIntel,60
,,,,,,,,,,,,,,,,,,,,5,0.887999773,5,0.275000095,1,0,1200,496,1,1199,slow,11131,2019-10-23_14h30.52.741,SurveyExpMetaMem,3.2.3,MacIntel,60
,,,,,,,,,,,,,,,,,,,,7,2.079999924,3,0.818999767,1,0,1200,1139,1,1199,scare,11131,2019-10-23_14h30.52.741,SurveyExpMetaMem,3.2.3,MacIntel,60
,,,,,,,,,,,,,,,,,,,,5,86.02399993,5,0.188999891,1,0,1200,602,1,1199,vegetable,11131,2019-10-23_14h30.52.741,SurveyExpMetaMem,3.2.3,MacIntel,60
,,,,,,,,,,,,,,,,,,,,5,0.977999926,5,0.188999891,1,0,1200,781,1,1199,emerald,11131,2019-10-23_14h30.52.741,SurveyExpMetaMem,3.2.3,MacIntel,60
,,,,,,,,,,,,,,,,,,,,7,2.161999941,1,0.520999908,1,0,1200,926,1,1199,dead,11131,2019-10-23_14h30.52.741,SurveyExpMetaMem,3.2.3,MacIntel,60
,,,,,,,,,,,,,,,,,,,,5,1.452000141,5,0.506999969,1,0,1200,425,1,1199,crutch,11131,2019-10-23_14h30.52.741,SurveyExpMetaMem,3.2.3,MacIntel,60
,,,,,,,,,,,,,,,,,,,,7,1.951999903,9,0.523999929,1,0,1200,891,1,1199,kind,11131,2019-10-23_14h30.52.741,SurveyExpMetaMem,3.2.3,MacIntel,60
,,,,,,,,,,,,,,,,,,,,7,1.163000107,7,0.178999901,1,0,1200,846,1,1199,able,11131,2019-10-23_14h30.52.741,SurveyExpMetaMem,3.2.3,MacIntel,60
,,,,,,,,,,,,,,,,,,,,6,2.03399992,2,0.497999907,1,0,1200,307,1,1199,sick,11131,2019-10-23_14h30.52.741,SurveyExpMetaMem,3.2.3,MacIntel,60
,,,,,,,,,,,,,,,,,,,,5,1.001999855,5,0.171000004,1,0,1200,504,1,1199,cane,11131,2019-10-23_14h30.52.741,SurveyExpMetaMem,3.2.3,MacIntel,60
,,,,,,,,,,,,,,,,,,,,8,2.279000044,8,1.138000011,1,0,1200,268,1,1199,tickle,11131,2019-10-23_14h30.52.741,SurveyExpMetaMem,3.2.3,MacIntel,60
,,,,,,,,,,,,,,,,,,,,5,1.180999994,5,0.148999929,1,0,1200,526,1,1199,dry,11131,2019-10-23_14h30.52.741,SurveyExpMetaMem,3.2.3,MacIntel,60
,,,,,,,,,,,,,,,,,,,,7,1.671999931,1,0.434999943,1,0,1200,943,1,1199,trauma,11131,2019-10-23_14h30.52.741,SurveyExpMetaMem,3.2.3,MacIntel,60
,,,,,,,,,,,,,,,,,,,,5,1.336999893,5,0.220000029,1,0,1200,436,1,1199,mediocre,11131,2019-10-23_14h30.52.741,SurveyExpMetaMem,3.2.3,MacIntel,60
,,,,,,,,,,,,,,,,,,,,6,1.672999859,7,0.244999886,1,0,1200,164,1,1199,marry,11131,2019-10-23_14h30.52.741,SurveyExpMetaMem,3.2.3,MacIntel,60
,,,,,,,,,,,,,,,,,,,,7,1.878999949,2,0.420999765,1,0,1200,1058,1,1199,bloody,11131,2019-10-23_14h30.52.741,SurveyExpMetaMem,3.2.3,MacIntel,60
,,,,,,,,,,,,,,,,,,,,6,3.062000036,1,0.537999868,1,0,1200,584,1,1199,anus,11131,2019-10-23_14h30.52.741,SurveyExpMetaMem,3.2.3,MacIntel,60
,,,,,,,,,,,,,,,,,,,,6,4.66899991,8,0.330999851,1,0,1200,848,1,1199,graceful,11131,2019-10-23_14h30.52.741,SurveyExpMetaMem,3.2.3,MacIntel,60
,,,,,,,,,,,,,,,,,,,,9,2.559000015,9,0.163000107,1,0,1200,143,1,1199,weekend,11131,2019-10-23_14h30.52.741,SurveyExpMetaMem,3.2.3,MacIntel,60
,,,,,,,,,,,,,,,,,,,,5,1.386999846,5,0.16899991,1,0,1200,1153,1,1199,mangle,11131,2019-10-23_14h30.52.741,SurveyExpMetaMem,3.2.3,MacIntel,60
,,,,,,,,,,,,,,,,,,,,5,1.453999758,5,0.18599987,1,0,1200,418,1,1199,cheapskate,11131,2019-10-23_14h30.52.741,SurveyExpMetaMem,3.2.3,MacIntel,60
,,,,,,,,,,,,,,,,,,,,5,2.439999819,6,0.162999868,1,0,1200,868,1,1199,grace,11131,2019-10-23_14h30.52.741,SurveyExpMetaMem,3.2.3,MacIntel,60
,,,,,,,,,,,,,,,,,,,,5,1.792000055,4,0.105000019,1,0,1200,456,1,1199,piss,11131,2019-10-23_14h30.52.741,SurveyExpMetaMem,3.2.3,MacIntel,60
,,,,,,,,,,,,,,,,,,,,5,1.145999908,5,0.162999868,1,0,1200,1092,1,1199,rattlesnake,11131,2019-10-23_14h30.52.741,SurveyExpMetaMem,3.2.3,MacIntel,60
,,,,,,,,,,,,,,,,,,,,5,1.390999794,5,0.147000074,1,0,1200,270,1,1199,toddler,11131,2019-10-23_14h30.52.741,SurveyExpMetaMem,3.2.3,MacIntel,60
,,,,,,,,,,,,,,,,,,,,6,2.429999828,3,0.221999884,1,0,1200,1081,1,1199,damage,11131,2019-10-23_14h30.52.741,SurveyExpMetaMem,3.2.3,MacIntel,60
,,,,,,,,,,,,,,,,,,,,5,1.062999964,5,0.177999973,1,0,1200,1121,1,1199,ban,11131,2019-10-23_14h30.52.741,SurveyExpMetaMem,3.2.3,MacIntel,60
,,,,,,,,,,,,,,,,,,,,6,2.746999741,2,0.32799983,1,0,1200,997,1,1199,injury,11131,2019-10-23_14h30.52.741,SurveyExpMetaMem,3.2.3,MacIntel,60
,,,,,,,,,,,,,,,,,,,,6,2.362999916,8,0.636000156,1,0,1200,93,1,1199,smiling,11131,2019-10-23_14h30.52.741,SurveyExpMetaMem,3.2.3,MacIntel,60
,,,,,,,,,,,,,,,,,,,,7,2.528000116,9,0.368999958,1,0,1200,298,1,1199,success,11131,2019-10-23_14h30.52.741,SurveyExpMetaMem,3.2.3,MacIntel,60
,,,,,,,,,,,,,,,,,,,,5,1.815000057,5,0.179999828,1,0,1200,623,1,1199,suburban,11131,2019-10-23_14h30.52.741,SurveyExpMetaMem,3.2.3,MacIntel,60
,,,,,,,,,,,,,,,,,,,,5,1.869999886,5,0.229999781,1,0,1200,334,1,1199,trash,11131,2019-10-23_14h30.52.741,SurveyExpMetaMem,3.2.3,MacIntel,60
,,,,,,,,,,,,,,,,,,,,5,0.805000067,5,0.179999828,1,0,1200,698,1,1199,oven,11131,2019-10-23_14h30.52.741,SurveyExpMetaMem,3.2.3,MacIntel,60
,,,,,,,,,,,,,,,,,,,,6,1.745999813,2,0.388000011,1,0,1200,959,1,1199,divorce,11131,2019-10-23_14h30.52.741,SurveyExpMetaMem,3.2.3,MacIntel,60
,,,,,,,,,,,,,,,,,,,,5,1.328999996,3,0.464999914,1,0,1200,119,1,1199,stereo,11131,2019-10-23_14h30.52.741,SurveyExpMetaMem,3.2.3,MacIntel,60
,,,,,,,,,,,,,,,,,,,,7,3.052999973,1,0.444000006,1,0,1200,1048,1,1199,paranoid,11131,2019-10-23_14h30.52.741,SurveyExpMetaMem,3.2.3,MacIntel,60
,,,,,,,,,,,,,,,,,,,,5,1.980000019,6,0.180999756,1,0,1200,815,1,1199,apple,11131,2019-10-23_14h30.52.741,SurveyExpMetaMem,3.2.3,MacIntel,60
,,,,,,,,,,,,,,,,,,,,7,2.780999899,1,0.46999979,1,0,1200,911,1,1199,rejection,11131,2019-10-23_14h30.52.741,SurveyExpMetaMem,3.2.3,MacIntel,60
,,,,,,,,,,,,,,,,,,,,6,3.128999949,4,4.144999743,1,0,1200,568,1,1199,therapy,11131,2019-10-23_14h30.52.741,SurveyExpMetaMem,3.2.3,MacIntel,60
,,,,,,,,,,,,,,,,,,,,6,3.579999924,3,0.210999966,1,0,1200,1006,1,1199,rash,11131,2019-10-23_14h30.52.741,SurveyExpMetaMem,3.2.3,MacIntel,60
,,,,,,,,,,,,,,,,,,,,5,3.278000116,7,0.230000019,1,0,1200,800,1,1199,authentic,11131,2019-10-23_14h30.52.741,SurveyExpMetaMem,3.2.3,MacIntel,60
,,,,,,,,,,,,,,,,,,,,5,1.957999945,7,0.111999989,1,0,1200,1198,1,1199,lightning,11131,2019-10-23_14h30.52.741,SurveyExpMetaMem,3.2.3,MacIntel,60
,,,,,,,,,,,,,,,,,,,,5,4.229999781,4,0.112999916,1,0,1200,159,1,1199,teenager,11131,2019-10-23_14h30.52.741,SurveyExpMetaMem,3.2.3,MacIntel,60
,,,,,,,,,,,,,,,,,,,,5,2.671000004,8,0.112999916,1,0,1200,892,1,1199,untroubled,11131,2019-10-23_14h30.52.741,SurveyExpMetaMem,3.2.3,MacIntel,60
,,,,,,,,,,,,,,,,,,,,5,1.614000082,5,0.152999878,1,0,1200,737,1,1199,lamb,11131,2019-10-23_14h30.52.741,SurveyExpMetaMem,3.2.3,MacIntel,60
,,,,,,,,,,,,,,,,,,,,5,5.271999836,4,0.088999748,1,0,1200,1050,1,1199,scorn,11131,2019-10-23_14h30.52.741,SurveyExpMetaMem,3.2.3,MacIntel,60
,,,,,,,,,,,,,,,,,,,,5,1.427999735,6,0.095999956,1,0,1200,759,1,1199,prefer,11131,2019-10-23_14h30.52.741,SurveyExpMetaMem,3.2.3,MacIntel,60
,,,,,,,,,,,,,,,,,,,,5,2.86899972,4,0.063999891,1,0,1200,464,1,1199,tick,11131,2019-10-23_14h30.52.741,SurveyExpMetaMem,3.2.3,MacIntel,60
,,,,,,,,,,,,,,,,,,,,7,3.095999956,2,0.364999771,1,0,1200,1116,1,1199,emergency,11131,2019-10-23_14h30.52.741,SurveyExpMetaMem,3.2.3,MacIntel,60
,,,,,,,,,,,,,,,,,,,,6,5.536999941,1,0.455999851,1,0,1200,323,1,1199,ungrateful,11131,2019-10-23_14h30.52.741,SurveyExpMetaMem,3.2.3,MacIntel,60
,,,,,,,,,,,,,,,,,,,,8,1.701999903,8,0.437000036,1,0,1200,198,1,1199,comedy,11131,2019-10-23_14h30.52.741,SurveyExpMetaMem,3.2.3,MacIntel,60
,,,,,,,,,,,,,,,,,,,,5,22.03299975,5,0.179999828,1,0,1200,709,1,1199,ancestor,11131,2019-10-23_14h30.52.741,SurveyExpMetaMem,3.2.3,MacIntel,60
,,,,,,,,,,,,,,,,,,,,8,2.836999893,3,0.098999977,1,0,1200,1055,1,1199,alarm,11131,2019-10-23_14h30.52.741,SurveyExpMetaMem,3.2.3,MacIntel,60
,,,,,,,,,,,,,,,,,,,,5,1.998999834,6,0.112999916,1,0,1200,210,1,1199,elephant,11131,2019-10-23_14h30.52.741,SurveyExpMetaMem,3.2.3,MacIntel,60
,,,,,,,,,,,,,,,,,,,,5,0.938999891,6,0.080999851,1,0,1200,461,1,1199,ail,11131,2019-10-23_14h30.52.741,SurveyExpMetaMem,3.2.3,MacIntel,60
,,,,,,,,,,,,,,,,,,,,6,1.887000084,2,0.121000051,1,0,1200,938,1,1199,seasick,11131,2019-10-23_14h30.52.741,SurveyExpMetaMem,3.2.3,MacIntel,60
,,,,,,,,,,,,,,,,,,,,5,0.978999853,5,0.150999784,1,0,1200,599,1,1199,obstinate,11131,2019-10-23_14h30.52.741,SurveyExpMetaMem,3.2.3,MacIntel,60
,,,,,,,,,,,,,,,,,,,,6,2.479000092,2,0.171000004,1,0,1200,351,1,1199,germs,11131,2019-10-23_14h30.52.741,SurveyExpMetaMem,3.2.3,MacIntel,60
,,,,,,,,,,,,,,,,,,,,5,2.807999849,6,0.178999901,1,0,1200,773,1,1199,rational,11131,2019-10-23_14h30.52.741,SurveyExpMetaMem,3.2.3,MacIntel,60
,,,,,,,,,,,,,,,,,,,,7,1.602999926,9,0.195999861,1,0,1200,196,1,1199,smile,11131,2019-10-23_14h30.52.741,SurveyExpMetaMem,3.2.3,MacIntel,60
,,,,,,,,,,,,,,,,,,,,5,2.095999956,4,0.145999908,1,0,1200,366,1,1199,fatigue,11131,2019-10-23_14h30.52.741,SurveyExpMetaMem,3.2.3,MacIntel,60
,,,,,,,,,,,,,,,,,,,,6,1.89199996,2,0.129999876,1,0,1200,340,1,1199,coward,11131,2019-10-23_14h30.52.741,SurveyExpMetaMem,3.2.3,MacIntel,60
,,,,,,,,,,,,,,,,,,,,6,2.390999794,2,0.145999908,1,0,1200,925,1,1199,disloyal,11131,2019-10-23_14h30.52.741,SurveyExpMetaMem,3.2.3,MacIntel,60
,,,,,,,,,,,,,,,,,,,,5,2.487999916,6,0.054999828,1,0,1200,769,1,1199,relate,11131,2019-10-23_14h30.52.741,SurveyExpMetaMem,3.2.3,MacIntel,60
,,,,,,,,,,,,,,,,,,,,5,1.36199975,6,0.103999853,1,0,1200,723,1,1199,cinnamon,11131,2019-10-23_14h30.52.741,SurveyExpMetaMem,3.2.3,MacIntel,60
,,,,,,,,,,,,,,,,,,,,6,2.078999996,8,0.162999868,1,0,1200,828,1,1199,cooperative,11131,2019-10-23_14h30.52.741,SurveyExpMetaMem,3.2.3,MacIntel,60
,,,,,,,,,,,,,,,,,,,,6,13.07599998,3,0.204999924,1,0,1200,1095,1,1199,fright,11131,2019-10-23_14h30.52.741,SurveyExpMetaMem,3.2.3,MacIntel,60
,,,,,,,,,,,,,,,,,,,,6,2.394999981,6,0.446000099,1,0,1200,820,1,1199,oxygen,11131,2019-10-23_14h30.52.741,SurveyExpMetaMem,3.2.3,MacIntel,60
,,,,,,,,,,,,,,,,,,,,5,1.019999981,5,0.246999979,1,0,1200,613,1,1199,cup,11131,2019-10-23_14h30.52.741,SurveyExpMetaMem,3.2.3,MacIntel,60
,,,,,,,,,,,,,,,,,,,,5,0.603999853,6,2.146999836,1,0,1200,188,1,1199,profit,11131,2019-10-23_14h30.52.741,SurveyExpMetaMem,3.2.3,MacIntel,60
,,,,,,,,,,,,,,,,,,,,7,4.312999964,8,0.302999973,1,0,1200,21,1,1199,game,11131,2019-10-23_14h30.52.741,SurveyExpMetaMem,3.2.3,MacIntel,60
,,,,,,,,,,,,,,,,,,,,5,1.721999884,3,0.296999931,1,0,1200,589,1,1199,coarse,11131,2019-10-23_14h30.52.741,SurveyExpMetaMem,3.2.3,MacIntel,60
,,,,,,,,,,,,,,,,,,,,5,2.663999796,7,0.271999836,1,0,1200,805,1,1199,autumn,11131,2019-10-23_14h30.52.741,SurveyExpMetaMem,3.2.3,MacIntel,60
,,,,,,,,,,,,,,,,,,,,6,3.351999998,8,0.296000004,1,0,1200,23,1,1199,earn,11131,2019-10-23_14h30.52.741,SurveyExpMetaMem,3.2.3,MacIntel,60
,,,,,,,,,,,,,,,,,,,,6,1.480000019,8,0.245999813,1,0,1200,41,1,1199,progress,11131,2019-10-23_14h30.52.741,SurveyExpMetaMem,3.2.3,MacIntel,60
,,,,,,,,,,,,,,,,,,,,7,2.128999949,3,0.434999943,1,0,1200,1065,1,1199,slap,11131,2019-10-23_14h30.52.741,SurveyExpMetaMem,3.2.3,MacIntel,60
,,,,,,,,,,,,,,,,,,,,6,2.485999823,2,0.486999989,1,0,1200,1083,1,1199,delayed,11131,2019-10-23_14h30.52.741,SurveyExpMetaMem,3.2.3,MacIntel,60
,,,,,,,,,,,,,,,,,,,,5,5.068999767,6,0.513000011,1,0,1200,883,1,1199,sky,11131,2019-10-23_14h30.52.741,SurveyExpMetaMem,3.2.3,MacIntel,60
,,,,,,,,,,,,,,,,,,,,5,0.945999861,5,0.562000036,1,0,1200,1045,1,1199,scalding,11131,2019-10-23_14h30.52.741,SurveyExpMetaMem,3.2.3,MacIntel,60
,,,,,,,,,,,,,,,,,,,,5,1.585999966,7,0.474999905,1,0,1200,277,1,1199,cupcake,11131,2019-10-23_14h30.52.741,SurveyExpMetaMem,3.2.3,MacIntel,60
,,,,,,,,,,,,,,,,,,,,8,1.596999884,1,0.922999859,1,0,1200,944,1,1199,kill,11131,2019-10-23_14h30.52.741,SurveyExpMetaMem,3.2.3,MacIntel,60
,,,,,,,,,,,,,,,,,,,,8,2.903999805,4,4.161999941,1,0,1200,19,1,1199,firefighter,11131,2019-10-23_14h30.52.741,SurveyExpMetaMem,3.2.3,MacIntel,60
,,,,,,,,,,,,,,,,,,,,6,4.390000105,6,0.213999987,1,0,1200,1097,1,1199,bees,11131,2019-10-23_14h30.52.741,SurveyExpMetaMem,3.2.3,MacIntel,60
,,,,,,,,,,,,,,,,,,,,8,2.789999962,9,0.74399972,1,0,1200,116,1,1199,carnival,11131,2019-10-23_14h30.52.741,SurveyExpMetaMem,3.2.3,MacIntel,60
,,,,,,,,,,,,,,,,,,,,8,2.013999701,3,0.187000036,1,0,1200,950,1,1199,murder,11131,2019-10-23_14h30.52.741,SurveyExpMetaMem,3.2.3,MacIntel,60
,,,,,,,,,,,,,,,,,,,,5,1.361999989,5,0.179999828,1,0,1200,448,1,1199,depart,11131,2019-10-23_14h30.52.741,SurveyExpMetaMem,3.2.3,MacIntel,60
,,,,,,,,,,,,,,,,,,,,5,3.368999958,6,0.217999935,1,0,1200,888,1,1199,refreshment,11131,2019-10-23_14h30.52.741,SurveyExpMetaMem,3.2.3,MacIntel,60
,,,,,,,,,,,,,,,,,,,,5,2.035000086,2,0.213999987,1,0,1200,321,1,1199,wart,11131,2019-10-23_14h30.52.741,SurveyExpMetaMem,3.2.3,MacIntel,60
,,,,,,,,,,,,,,,,,,,,6,1.971999884,2,0.220999956,1,0,1200,1110,1,1199,bastard,11131,2019-10-23_14h30.52.741,SurveyExpMetaMem,3.2.3,MacIntel,60
,,,,,,,,,,,,,,,,,,,,7,2.546999931,3,0.238999844,1,0,1200,1117,1,1199,court,11131,2019-10-23_14h30.52.741,SurveyExpMetaMem,3.2.3,MacIntel,60
,,,,,,,,,,,,,,,,,,,,5,7.471999884,8,0.727999926,1,0,1200,284,1,1199,delight,11131,2019-10-23_14h30.52.741,SurveyExpMetaMem,3.2.3,MacIntel,60
,,,,,,,,,,,,,,,,,,,,8,2.228999853,8,3.582999945,1,0,1200,144,1,1199,aroused,11131,2019-10-23_14h30.52.741,SurveyExpMetaMem,3.2.3,MacIntel,60
,,,,,,,,,,,,,,,,,,,,5,3.270999908,5,0.253000021,1,0,1200,172,1,1199,potential,11131,2019-10-23_14h30.52.741,SurveyExpMetaMem,3.2.3,MacIntel,60
,,,,,,,,,,,,,,,,,,,,5,1.084000111,5,0.21999979,1,0,1200,1133,1,1199,slip,11131,2019-10-23_14h30.52.741,SurveyExpMetaMem,3.2.3,MacIntel,60
,,,,,,,,,,,,,,,,,,,,5,0.874000072,5,0.282000065,1,0,1200,567,1,1199,folly,11131,2019-10-23_14h30.52.741,SurveyExpMetaMem,3.2.3,MacIntel,60
,,,,,,,,,,,,,,,,,,,,8,2.41899991,3,0.386999846,1,0,1200,1179,1,1199,nerves,11131,2019-10-23_14h30.52.741,SurveyExpMetaMem,3.2.3,MacIntel,60
,,,,,,,,,,,,,,,,,,,,5,3.74000001,6,0.129999876,1,0,1200,278,1,1199,king,11131,2019-10-23_14h30.52.741,SurveyExpMetaMem,3.2.3,MacIntel,60
,,,,,,,,,,,,,,,,,,,,5,0.987999916,6,0.072000027,1,0,1200,646,1,1199,wear,11131,2019-10-23_14h30.52.741,SurveyExpMetaMem,3.2.3,MacIntel,60
,,,,,,,,,,,,,,,,,,,,5,0.962999821,4,1.034999847,1,0,1200,447,1,1199,dishes,11131,2019-10-23_14h30.52.741,SurveyExpMetaMem,3.2.3,MacIntel,60
,,,,,,,,,,,,,,,,,,,,5,1.038999796,4,0.203999758,1,0,1200,1146,1,1199,bug,11131,2019-10-23_14h30.52.741,SurveyExpMetaMem,3.2.3,MacIntel,60
,,,,,,,,,,,,,,,,,,,,8,2.586999893,2,0.203999996,1,0,1200,1033,1,1199,horror,11131,2019-10-23_14h30.52.741,SurveyExpMetaMem,3.2.3,MacIntel,60
,,,,,,,,,,,,,,,,,,,,6,2.921999931,2,0.16899991,1,0,1200,467,1,1199,FALSE,11131,2019-10-23_14h30.52.741,SurveyExpMetaMem,3.2.3,MacIntel,60
,,,,,,,,,,,,,,,,,,,,5,24.54900002,9,0.529999971,1,0,1200,880,1,1199,security,11131,2019-10-23_14h30.52.741,SurveyExpMetaMem,3.2.3,MacIntel,60
,,,,,,,,,,,,,,,,,,,,5,1.203999758,5,0.203999758,1,0,1200,551,1,1199,coal,11131,2019-10-23_14h30.52.741,SurveyExpMetaMem,3.2.3,MacIntel,60
,,,,,,,,,,,,,,,,,,,,7,2.262999773,2,0.135999918,1,0,1200,1079,1,1199,critic,11131,2019-10-23_14h30.52.741,SurveyExpMetaMem,3.2.3,MacIntel,60
,,,,,,,,,,,,,,,,,,,,5,1.299000025,5,0.15899992,1,0,1200,252,1,1199,infatuated,11131,2019-10-23_14h30.52.741,SurveyExpMetaMem,3.2.3,MacIntel,60
,,,,,,,,,,,,,,,,,,,,7,2.018000126,7,0.065000057,1,0,1200,994,1,1199,repulsed,11131,2019-10-23_14h30.52.741,SurveyExpMetaMem,3.2.3,MacIntel,60
,,,,,,,,,,,,,,,,,,,,5,15.95499992,2,0.228999853,1,0,1200,322,1,1199,widow,11131,2019-10-23_14h30.52.741,SurveyExpMetaMem,3.2.3,MacIntel,60
,,,,,,,,,,,,,,,,,,,,5,2.963999748,1,0.284999847,1,0,1200,917,1,1199,slave,11131,2019-10-23_14h30.52.741,SurveyExpMetaMem,3.2.3,MacIntel,60
,,,,,,,,,,,,,,,,,,,,8,1.871999979,1,0.31099987,1,0,1200,900,1,1199,suicide,11131,2019-10-23_14h30.52.741,SurveyExpMetaMem,3.2.3,MacIntel,60
,,,,,,,,,,,,,,,,,,,,6,6.555000067,2,0.502000093,1,0,1200,358,1,1199,waste,11131,2019-10-23_14h30.52.741,SurveyExpMetaMem,3.2.3,MacIntel,60
,,,,,,,,,,,,,,,,,,,,6,2.652999878,2,0.41899991,1,0,1200,414,1,1199,pity,11131,2019-10-23_14h30.52.741,SurveyExpMetaMem,3.2.3,MacIntel,60
,,,,,,,,,,,,,,,,,,,,5,1.868999958,5,0.263999939,1,0,1200,749,1,1199,glasses,11131,2019-10-23_14h30.52.741,SurveyExpMetaMem,3.2.3,MacIntel,60
,,,,,,,,,,,,,,,,,,,,6,3.937999964,2,0.135999918,1,0,1200,371,1,1199,weakness,11131,2019-10-23_14h30.52.741,SurveyExpMetaMem,3.2.3,MacIntel,60
,,,,,,,,,,,,,,,,,,,,7,1.801000118,9,0.73699975,1,0,1200,181,1,1199,fascinate,11131,2019-10-23_14h30.52.741,SurveyExpMetaMem,3.2.3,MacIntel,60
,,,,,,,,,,,,,,,,,,,,5,2.419999838,5,0.220999956,1,0,1200,609,1,1199,candlestick,11131,2019-10-23_14h30.52.741,SurveyExpMetaMem,3.2.3,MacIntel,60
,,,,,,,,,,,,,,,,,,,,8,3.148000002,8,0.18599987,1,0,1200,1192,1,1199,startled,11131,2019-10-23_14h30.52.741,SurveyExpMetaMem,3.2.3,MacIntel,60
,,,,,,,,,,,,,,,,,,,,5,8.496999979,5,0.180999994,1,0,1200,579,1,1199,bus,11131,2019-10-23_14h30.52.741,SurveyExpMetaMem,3.2.3,MacIntel,60
,,,,,,,,,,,,,,,,,,,,8,1.655999899,9,0.187000036,1,0,1200,125,1,1199,dancing,11131,2019-10-23_14h30.52.741,SurveyExpMetaMem,3.2.3,MacIntel,60
,,,,,,,,,,,,,,,,,,,,5,2.65199995,5,0.212999821,1,0,1200,650,1,1199,native,11131,2019-10-23_14h30.52.741,SurveyExpMetaMem,3.2.3,MacIntel,60
,,,,,,,,,,,,,,,,,,,,8,2.70299983,9,0.095999956,1,0,1200,185,1,1199,flirt,11131,2019-10-23_14h30.52.741,SurveyExpMetaMem,3.2.3,MacIntel,60
,,,,,,,,,,,,,,,,,,,,7,2.125999928,8,0.090999842,1,0,1200,631,1,1199,delicate,11131,2019-10-23_14h30.52.741,SurveyExpMetaMem,3.2.3,MacIntel,60
,,,,,,,,,,,,,,,,,,,,5,1.240999937,5,0.179000139,1,0,1200,532,1,1199,recede,11131,2019-10-23_14h30.52.741,SurveyExpMetaMem,3.2.3,MacIntel,60
,,,,,,,,,,,,,,,,,,,,5,1.362999916,5,0.18599987,1,0,1200,660,1,1199,rock,11131,2019-10-23_14h30.52.741,SurveyExpMetaMem,3.2.3,MacIntel,60
,,,,,,,,,,,,,,,,,,,,5,0.88499999,5,0.230000019,1,0,1200,594,1,1199,moss,11131,2019-10-23_14h30.52.741,SurveyExpMetaMem,3.2.3,MacIntel,60
,,,,,,,,,,,,,,,,,,,,6,2.763000011,6,0.214999914,1,0,1200,853,1,1199,breeze,11131,2019-10-23_14h30.52.741,SurveyExpMetaMem,3.2.3,MacIntel,60
,,,,,,,,,,,,,,,,,,,,5,1.974999905,5,0.21999979,1,0,1200,527,1,1199,passive,11131,2019-10-23_14h30.52.741,SurveyExpMetaMem,3.2.3,MacIntel,60
,,,,,,,,,,,,,,,,,,,,5,1.437999964,5,0.278999805,1,0,1200,795,1,1199,soup,11131,2019-10-23_14h30.52.741,SurveyExpMetaMem,3.2.3,MacIntel,60
,,,,,,,,,,,,,,,,,,,,6,2.251999855,8,0.986999989,1,0,1200,894,1,1199,sunset,11131,2019-10-23_14h30.52.741,SurveyExpMetaMem,3.2.3,MacIntel,60
,,,,,,,,,,,,,,,,,,,,5,1.467000008,3,0.487999916,1,0,1200,400,1,1199,urine,11131,2019-10-23_14h30.52.741,SurveyExpMetaMem,3.2.3,MacIntel,60
,,,,,,,,,,,,,,,,,,,,5,1.402999878,5,0.295999765,1,0,1200,591,1,1199,bereavement,11131,2019-10-23_14h30.52.741,SurveyExpMetaMem,3.2.3,MacIntel,60
,,,,,,,,,,,,,,,,,,,,5,0.878999949,5,0.230000019,1,0,1200,942,1,1199,aggravation,11131,2019-10-23_14h30.52.741,SurveyExpMetaMem,3.2.3,MacIntel,60
,,,,,,,,,,,,,,,,,,,,5,4.563999891,5,0.19900012,1,0,1200,693,1,1199,key,11131,2019-10-23_14h30.52.741,SurveyExpMetaMem,3.2.3,MacIntel,60
,,,,,,,,,,,,,,,,,,,,5,2.529999971,7,0.196999788,1,0,1200,680,1,1199,candle,11131,2019-10-23_14h30.52.741,SurveyExpMetaMem,3.2.3,MacIntel,60
,,,,,,,,,,,,,,,,,,,,5,2.130999804,3,0.114999771,1,0,1200,338,1,1199,obesity,11131,2019-10-23_14h30.52.741,SurveyExpMetaMem,3.2.3,MacIntel,60
,,,,,,,,,,,,,,,,,,,,5,0.872999907,3,0.112999916,1,0,1200,856,1,1199,leisurely,11131,2019-10-23_14h30.52.741,SurveyExpMetaMem,3.2.3,MacIntel,60
,,,,,,,,,,,,,,,,,,,,5,0.595999956,5,0.195999861,1,0,1200,1118,1,1199,frantic,11131,2019-10-23_14h30.52.741,SurveyExpMetaMem,3.2.3,MacIntel,60
,,,,,,,,,,,,,,,,,,,,5,0.928999901,5,0.282999992,1,0,1200,499,1,1199,stop,11131,2019-10-23_14h30.52.741,SurveyExpMetaMem,3.2.3,MacIntel,60
,,,,,,,,,,,,,,,,,,,,5,0.273999929,5,1.003999949,1,0,1200,389,1,1199,gloomy,11131,2019-10-23_14h30.52.741,SurveyExpMetaMem,3.2.3,MacIntel,60
,,,,,,,,,,,,,,,,,,,,5,2.65199995,9,0.386999846,1,0,1200,218,1,1199,charming,11131,2019-10-23_14h30.52.741,SurveyExpMetaMem,3.2.3,MacIntel,60
,,,,,,,,,,,,,,,,,,,,5,2.779999971,7,0.276000023,1,0,1200,202,1,1199,mercy,11131,2019-10-23_14h30.52.741,SurveyExpMetaMem,3.2.3,MacIntel,60
,,,,,,,,,,,,,,,,,,,,5,1.806999922,4,0.256999969,1,0,1200,419,1,1199,immature,11131,2019-10-23_14h30.52.741,SurveyExpMetaMem,3.2.3,MacIntel,60
,,,,,,,,,,,,,,,,,,,,5,0.977999926,4,0.162999868,1,0,1200,211,1,1199,surfer,11131,2019-10-23_14h30.52.741,SurveyExpMetaMem,3.2.3,MacIntel,60
,,,,,,,,,,,,,,,,,,,,5,1.18599987,5,0.179999828,1,0,1200,535,1,1199,ramble,11131,2019-10-23_14h30.52.741,SurveyExpMetaMem,3.2.3,MacIntel,60
,,,,,,,,,,,,,,,,,,,,5,14.977,5,0.190999985,1,0,1200,562,1,1199,average,11131,2019-10-23_14h30.52.741,SurveyExpMetaMem,3.2.3,MacIntel,60
,,,,,,,,,,,,,,,,,,,,7,1.912999868,3,0.128999949,1,0,1200,362,1,1199,despair,11131,2019-10-23_14h30.52.741,SurveyExpMetaMem,3.2.3,MacIntel,60
,,,,,,,,,,,,,,,,,,,,6,2.484999895,8,0.294999838,1,0,1200,832,1,1199,candy,11131,2019-10-23_14h30.52.741,SurveyExpMetaMem,3.2.3,MacIntel,60
,,,,,,,,,,,,,,,,,,,,6,4.671000004,4,0.095999956,1,0,1200,403,1,1199,wither,11131,2019-10-23_14h30.52.741,SurveyExpMetaMem,3.2.3,MacIntel,60
,,,,,,,,,,,,,,,,,,,,5,3.968999863,3,0.104000092,1,0,1200,588,1,1199,bandage,11131,2019-10-23_14h30.52.741,SurveyExpMetaMem,3.2.3,MacIntel,60
,,,,,,,,,,,,,,,,,,,,9,3.102999926,1,0.171000004,1,0,1200,1102,1,1199,nuclear,11131,2019-10-23_14h30.52.741,SurveyExpMetaMem,3.2.3,MacIntel,60
,,,,,,,,,,,,,,,,,,,,7,3.74000001,3,0.128999949,1,0,1200,1106,1,1199,pushy,11131,2019-10-23_14h30.52.741,SurveyExpMetaMem,3.2.3,MacIntel,60
,,,,,,,,,,,,,,,,,,,,5,2.853999853,5,0.180999994,1,0,1200,744,1,1199,village,11131,2019-10-23_14h30.52.741,SurveyExpMetaMem,3.2.3,MacIntel,60
,,,,,,,,,,,,,,,,,,,,8,2.256999969,2,0.196000099,1,0,1200,916,1,1199,starvation,11131,2019-10-23_14h30.52.741,SurveyExpMetaMem,3.2.3,MacIntel,60
,,,,,,,,,,,,,,,,,,,,6,2.789999962,6,0.184999943,1,0,1200,833,1,1199,nice,11131,2019-10-23_14h30.52.741,SurveyExpMetaMem,3.2.3,MacIntel,60
,,,,,,,,,,,,,,,,,,,,5,1.256999969,5,0.179999828,1,0,1200,716,1,1199,blouse,11131,2019-10-23_14h30.52.741,SurveyExpMetaMem,3.2.3,MacIntel,60
,,,,,,,,,,,,,,,,,,,,5,3.335999966,5,0.152999878,1,0,1200,131,1,1199,treat,11131,2019-10-23_14h30.52.741,SurveyExpMetaMem,3.2.3,MacIntel,60
,,,,,,,,,,,,,,,,,,,,6,2.881999969,7,0.125999928,1,0,1200,152,1,1199,hire,11131,2019-10-23_14h30.52.741,SurveyExpMetaMem,3.2.3,MacIntel,60
,,,,,,,,,,,,,,,,,,,,8,2.430000067,9,0.065000057,1,0,1200,42,1,1199,accomplish,11131,2019-10-23_14h30.52.741,SurveyExpMetaMem,3.2.3,MacIntel,60
,,,,,,,,,,,,,,,,,,,,5,1.68599987,5,0.128999949,1,0,1200,227,1,1199,musician,11131,2019-10-23_14h30.52.741,SurveyExpMetaMem,3.2.3,MacIntel,60
,,,,,,,,,,,,,,,,,,,,5,0.735999823,5,0.145999908,1,0,1200,827,1,1199,saint,11131,2019-10-23_14h30.52.741,SurveyExpMetaMem,3.2.3,MacIntel,60
,,,,,,,,,,,,,,,,,,,,9,3.171000004,3,0.121999979,1,0,1200,1161,1,1199,shock,11131,2019-10-23_14h30.52.741,SurveyExpMetaMem,3.2.3,MacIntel,60
,,,,,,,,,,,,,,,,,,,,5,1.252999783,5,0.136999846,1,0,1200,638,1,1199,quench,11131,2019-10-23_14h30.52.741,SurveyExpMetaMem,3.2.3,MacIntel,60
,,,,,,,,,,,,,,,,,,,,8,4.388999939,3,0.135999918,1,0,1200,477,1,1199,separate,11131,2019-10-23_14h30.52.741,SurveyExpMetaMem,3.2.3,MacIntel,60
,,,,,,,,,,,,,,,,,,,,7,2.046999931,8,0.146999836,1,0,1200,296,1,1199,awesome,11131,2019-10-23_14h30.52.741,SurveyExpMetaMem,3.2.3,MacIntel,60
,,,,,,,,,,,,,,,,,,,,8,2.821000099,8,0.190000057,1,0,1200,109,1,1199,new,11131,2019-10-23_14h30.52.741,SurveyExpMetaMem,3.2.3,MacIntel,60
,,,,,,,,,,,,,,,,,,,,5,1.303999901,5,0.188999891,1,0,1200,702,1,1199,den,11131,2019-10-23_14h30.52.741,SurveyExpMetaMem,3.2.3,MacIntel,60
,,,,,,,,,,,,,,,,,,,,5,1.062999964,5,0.206999779,1,0,1200,770,1,1199,buffalo,11131,2019-10-23_14h30.52.741,SurveyExpMetaMem,3.2.3,MacIntel,60
,,,,,,,,,,,,,,,,,,,,7,7.947000027,7,0.162999868,1,0,1200,224,1,1199,strengthen,11131,2019-10-23_14h30.52.741,SurveyExpMetaMem,3.2.3,MacIntel,60
,,,,,,,,,,,,,,,,,,,,5,1.201999903,5,0.162999868,1,0,1200,427,1,1199,doubt,11131,2019-10-23_14h30.52.741,SurveyExpMetaMem,3.2.3,MacIntel,60
,,,,,,,,,,,,,,,,,,,,7,30.36800003,7,0.172999859,1,0,1200,26,1,1199,inspired,11131,2019-10-23_14h30.52.741,SurveyExpMetaMem,3.2.3,MacIntel,60
,,,,,,,,,,,,,,,,,,,,7,1.503000021,8,0.0849998,1,0,1200,168,1,1199,mate,11131,2019-10-23_14h30.52.741,SurveyExpMetaMem,3.2.3,MacIntel,60
,,,,,,,,,,,,,,,,,,,,6,3.261999846,3,0.115999937,1,0,1200,455,1,1199,chubby,11131,2019-10-23_14h30.52.741,SurveyExpMetaMem,3.2.3,MacIntel,60
,,,,,,,,,,,,,,,,,,,,8,1.496000051,8,0.146000147,1,0,1200,170,1,1199,entertainment,11131,2019-10-23_14h30.52.741,SurveyExpMetaMem,3.2.3,MacIntel,60
,,,,,,,,,,,,,,,,,,,,6,2.535000086,2,0.135999918,1,0,1200,397,1,1199,complaint,11131,2019-10-23_14h30.52.741,SurveyExpMetaMem,3.2.3,MacIntel,60
,,,,,,,,,,,,,,,,,,,,5,1.353999853,5,0.145999908,1,0,1200,733,1,1199,poetry,11131,2019-10-23_14h30.52.741,SurveyExpMetaMem,3.2.3,MacIntel,60
,,,,,,,,,,,,,,,,,,,,5,1.407999992,5,0.146999836,1,0,1200,432,1,1199,resign,11131,2019-10-23_14h30.52.741,SurveyExpMetaMem,3.2.3,MacIntel,60
,,,,,,,,,,,,,,,,,,,,5,0.730999947,5,0.161999702,1,0,1200,728,1,1199,patio,11131,2019-10-23_14h30.52.741,SurveyExpMetaMem,3.2.3,MacIntel,60
,,,,,,,,,,,,,,,,,,,,5,1.114000082,5,0.147000074,1,0,1200,524,1,1199,sigh,11131,2019-10-23_14h30.52.741,SurveyExpMetaMem,3.2.3,MacIntel,60
,,,,,,,,,,,,,,,,,,,,5,2.403000116,5,0.162999868,1,0,1200,655,1,1199,name,11131,2019-10-23_14h30.52.741,SurveyExpMetaMem,3.2.3,MacIntel,60
,,,,,,,,,,,,,,,,,,,,5,0.614999771,5,0.186999798,1,0,1200,996,1,1199,sting,11131,2019-10-23_14h30.52.741,SurveyExpMetaMem,3.2.3,MacIntel,60
,,,,,,,,,,,,,,,,,,,,7,2.236999989,3,0.112999916,1,0,1200,983,1,1199,demonic,11131,2019-10-23_14h30.52.741,SurveyExpMetaMem,3.2.3,MacIntel,60
,,,,,,,,,,,,,,,,,,,,5,1.220999956,5,0.138000011,1,0,1200,654,1,1199,brief,11131,2019-10-23_14h30.52.741,SurveyExpMetaMem,3.2.3,MacIntel,60
,,,,,,,,,,,,,,,,,,,,5,0.914000034,5,0.157999754,1,0,1200,593,1,1199,errand,11131,2019-10-23_14h30.52.741,SurveyExpMetaMem,3.2.3,MacIntel,60
,,,,,,,,,,,,,,,,,,,,5,0.678999901,5,0.152999878,1,0,1200,799,1,1199,precise,11131,2019-10-23_14h30.52.741,SurveyExpMetaMem,3.2.3,MacIntel,60
,,,,,,,,,,,,,,,,,,,,5,1.164999962,5,0.146000147,1,0,1200,528,1,1199,dirt,11131,2019-10-23_14h30.52.741,SurveyExpMetaMem,3.2.3,MacIntel,60
,,,,,,,,,,,,,,,,,,,,5,0.586999893,5,0.163000107,1,0,1200,495,1,1199,dust,11131,2019-10-23_14h30.52.741,SurveyExpMetaMem,3.2.3,MacIntel,60
,,,,,,,,,,,,,,,,,,,,6,4.881999969,3,0.097999811,1,0,1200,234,1,1199,redeem,11131,2019-10-23_14h30.52.741,SurveyExpMetaMem,3.2.3,MacIntel,60
,,,,,,,,,,,,,,,,,,,,7,12.16499996,3,0.113999844,1,0,1200,1112,1,1199,pressure,11131,2019-10-23_14h30.52.741,SurveyExpMetaMem,3.2.3,MacIntel,60
,,,,,,,,,,,,,,,,,,,,5,1.212999821,5,0.161999941,1,0,1200,444,1,1199,mold,11131,2019-10-23_14h30.52.741,SurveyExpMetaMem,3.2.3,MacIntel,60
,,,,,,,,,,,,,,,,,,,,7,8.546000004,3,0.107999802,1,0,1200,384,1,1199,idiot,11131,2019-10-23_14h30.52.741,SurveyExpMetaMem,3.2.3,MacIntel,60
,,,,,,,,,,,,,,,,,,,,5,1.263000011,5,0.151000023,1,0,1200,501,1,1199,dustpan,11131,2019-10-23_14h30.52.741,SurveyExpMetaMem,3.2.3,MacIntel,60
,,,,,,,,,,,,,,,,,,,,5,1.027999878,5,0.155999899,1,0,1200,1155,1,1199,tangle,11131,2019-10-23_14h30.52.741,SurveyExpMetaMem,3.2.3,MacIntel,60
,,,,,,,,,,,,,,,,,,,,7,1.977999926,3,0.169999838,1,0,1200,988,1,1199,deserter,11131,2019-10-23_14h30.52.741,SurveyExpMetaMem,3.2.3,MacIntel,60
,,,,,,,,,,,,,,,,,,,,5,1.511999846,5,0.134999752,1,0,1200,601,1,1199,roof,11131,2019-10-23_14h30.52.741,SurveyExpMetaMem,3.2.3,MacIntel,60
,,,,,,,,,,,,,,,,,,,,8,2.016000032,8,0.170000076,1,0,1200,222,1,1199,waterskiing,11131,2019-10-23_14h30.52.741,SurveyExpMetaMem,3.2.3,MacIntel,60
,,,,,,,,,,,,,,,,,,,,5,1.072999954,5,0.144999743,1,0,1200,1191,1,1199,evade,11131,2019-10-23_14h30.52.741,SurveyExpMetaMem,3.2.3,MacIntel,60
,,,,,,,,,,,,,,,,,,,,7,1.313999891,7,0.170000076,1,0,1200,230,1,1199,eager,11131,2019-10-23_14h30.52.741,SurveyExpMetaMem,3.2.3,MacIntel,60
,,,,,,,,,,,,,,,,,,,,5,0.802000046,5,0.153000116,1,0,1200,582,1,1199,cling,11131,2019-10-23_14h30.52.741,SurveyExpMetaMem,3.2.3,MacIntel,60
,,,,,,,,,,,,,,,,,,,,7,1.973999977,4,0.145999908,1,0,1200,1176,1,1199,vampire,11131,2019-10-23_14h30.52.741,SurveyExpMetaMem,3.2.3,MacIntel,60
,,,,,,,,,,,,,,,,,,,,5,1.218999863,5,0.112999916,1,0,1200,1059,1,1199,harsh,11131,2019-10-23_14h30.52.741,SurveyExpMetaMem,3.2.3,MacIntel,60
,,,,,,,,,,,,,,,,,,,,5,29.17400002,5,0.153000116,1,0,1200,712,1,1199,harvest,11131,2019-10-23_14h30.52.741,SurveyExpMetaMem,3.2.3,MacIntel,60
,,,,,,,,,,,,,,,,,,,,7,1.59499979,2,0.103999853,1,0,1200,992,1,1199,addict,11131,2019-10-23_14h30.52.741,SurveyExpMetaMem,3.2.3,MacIntel,60
,,,,,,,,,,,,,,,,,,,,8,1.285000086,8,0.129999876,1,0,1200,57,1,1199,important,11131,2019-10-23_14h30.52.741,SurveyExpMetaMem,3.2.3,MacIntel,60
,,,,,,,,,,,,,,,,,,,,6,3.074999809,7,0.088000059,1,0,1200,285,1,1199,gold,11131,2019-10-23_14h30.52.741,SurveyExpMetaMem,3.2.3,MacIntel,60
,,,,,,,,,,,,,,,,,,,,5,1.072999954,5,0.129999876,1,0,1200,453,1,1199,prude,11131,2019-10-23_14h30.52.741,SurveyExpMetaMem,3.2.3,MacIntel,60
,,,,,,,,,,,,,,,,,,,,5,0.518999815,5,0.13499999,1,0,1200,785,1,1199,pond,11131,2019-10-23_14h30.52.741,SurveyExpMetaMem,3.2.3,MacIntel,60
,,,,,,,,,,,,,,,,,,,,7,1.311999798,7,0.151999712,1,0,1200,262,1,1199,athletics,11131,2019-10-23_14h30.52.741,SurveyExpMetaMem,3.2.3,MacIntel,60
,,,,,,,,,,,,,,,,,,,,5,2.178999901,5,0.138999939,1,0,1200,468,1,1199,noose,11131,2019-10-23_14h30.52.741,SurveyExpMetaMem,3.2.3,MacIntel,60
,,,,,,,,,,,,,,,,,,,,6,2.296999931,7,0.103999853,1,0,1200,24,1,1199,model,11131,2019-10-23_14h30.52.741,SurveyExpMetaMem,3.2.3,MacIntel,60
,,,,,,,,,,,,,,,,,,,,5,1.696999788,3,0.119999886,1,0,1200,363,1,1199,dumb,11131,2019-10-23_14h30.52.741,SurveyExpMetaMem,3.2.3,MacIntel,60
,,,,,,,,,,,,,,,,,,,,5,1.155999899,5,0.153999805,1,0,1200,772,1,1199,ornament,11131,2019-10-23_14h30.52.741,SurveyExpMetaMem,3.2.3,MacIntel,60
,,,,,,,,,,,,,,,,,,,,5,0.612999916,5,0.155999899,1,0,1200,571,1,1199,marrow,11131,2019-10-23_14h30.52.741,SurveyExpMetaMem,3.2.3,MacIntel,60
,,,,,,,,,,,,,,,,,,,,7,2.673000097,7,0.179000139,1,0,1200,897,1,1199,peaceful,11131,2019-10-23_14h30.52.741,SurveyExpMetaMem,3.2.3,MacIntel,60
,,,,,,,,,,,,,,,,,,,,8,3.480000019,3,0.159999847,1,0,1200,967,1,1199,horrible,11131,2019-10-23_14h30.52.741,SurveyExpMetaMem,3.2.3,MacIntel,60
,,,,,,,,,,,,,,,,,,,,8,1.019999981,3,0.102999926,1,0,1200,1023,1,1199,disorder,11131,2019-10-23_14h30.52.741,SurveyExpMetaMem,3.2.3,MacIntel,60
,,,,,,,,,,,,,,,,,,,,8,1.485999823,3,0.127999783,1,0,1200,1024,1,1199,burn,11131,2019-10-23_14h30.52.741,SurveyExpMetaMem,3.2.3,MacIntel,60
,,,,,,,,,,,,,,,,,,,,8,0.724999905,3,0.097000122,1,0,1200,977,1,1199,choke,11131,2019-10-23_14h30.52.741,SurveyExpMetaMem,3.2.3,MacIntel,60
,,,,,,,,,,,,,,,,,,,,8,1.452000141,8,0.154000044,1,0,1200,254,1,1199,crush,11131,2019-10-23_14h30.52.741,SurveyExpMetaMem,3.2.3,MacIntel,60
,,,,,,,,,,,,,,,,,,,,8,1.078999996,3,0.089999914,1,0,1200,978,1,1199,starving,11131,2019-10-23_14h30.52.741,SurveyExpMetaMem,3.2.3,MacIntel,60
,,,,,,,,,,,,,,,,,,,,6,3.286999941,6,0.221999884,1,0,1200,751,1,1199,listen,11131,2019-10-23_14h30.52.741,SurveyExpMetaMem,3.2.3,MacIntel,60
,,,,,,,,,,,,,,,,,,,,5,4.268999815,5,0.167999983,1,0,1200,807,1,1199,person,11131,2019-10-23_14h30.52.741,SurveyExpMetaMem,3.2.3,MacIntel,60
,,,,,,,,,,,,,,,,,,,,7,1.284999847,3,0.119999886,1,0,1200,320,1,1199,deformed,11131,2019-10-23_14h30.52.741,SurveyExpMetaMem,3.2.3,MacIntel,60
,,,,,,,,,,,,,,,,,,,,9,3.178999901,1,0.112999916,1,0,1200,919,1,1199,loss,11131,2019-10-23_14h30.52.741,SurveyExpMetaMem,3.2.3,MacIntel,60
,,,,,,,,,,,,,,,,,,,,5,1.503000021,5,0.154000044,1,0,1200,790,1,1199,binoculars,11131,2019-10-23_14h30.52.741,SurveyExpMetaMem,3.2.3,MacIntel,60
,,,,,,,,,,,,,,,,,,,,8,2.361999989,2,0.128999949,1,0,1200,1036,1,1199,anxiety,11131,2019-10-23_14h30.52.741,SurveyExpMetaMem,3.2.3,MacIntel,60
,,,,,,,,,,,,,,,,,,,,8,0.922999859,2,0.112999916,1,0,1200,1015,1,1199,frighten,11131,2019-10-23_14h30.52.741,SurveyExpMetaMem,3.2.3,MacIntel,60
,,,,,,,,,,,,,,,,,,,,7,3.128000021,3,0.10199976,1,0,1200,381,1,1199,sloppy,11131,2019-10-23_14h30.52.741,SurveyExpMetaMem,3.2.3,MacIntel,60
,,,,,,,,,,,,,,,,,,,,8,1.996000051,2,0.15199995,1,0,1200,929,1,1199,mutilation,11131,2019-10-23_14h30.52.741,SurveyExpMetaMem,3.2.3,MacIntel,60
,,,,,,,,,,,,,,,,,,,,7,2.097999811,7,0.221999884,1,0,1200,784,1,1199,logical,11131,2019-10-23_14h30.52.741,SurveyExpMetaMem,3.2.3,MacIntel,60
,,,,,,,,,,,,,,,,,,,,7,0.952000141,7,0.203000069,1,0,1200,666,1,1199,verify,11131,2019-10-23_14h30.52.741,SurveyExpMetaMem,3.2.3,MacIntel,60
,,,,,,,,,,,,,,,,,,,,5,3.941999912,9,0.087999821,1,0,1200,68,1,1199,perfect,11131,2019-10-23_14h30.52.741,SurveyExpMetaMem,3.2.3,MacIntel,60
,,,,,,,,,,,,,,,,,,,,7,61.49300003,4,0.069999933,1,0,1200,1099,1,1199,fire,11131,2019-10-23_14h30.52.741,SurveyExpMetaMem,3.2.3,MacIntel,60
,,,,,,,,,,,,,,,,,,,,8,99.60500002,9,0.095999956,1,0,1200,97,1,1199,enthusiastic,11131,2019-10-23_14h30.52.741,SurveyExpMetaMem,3.2.3,MacIntel,60
,,,,,,,,,,,,,,,,,,,,5,1.336999893,5,0.157000065,1,0,1200,560,1,1199,spurn,11131,2019-10-23_14h30.52.741,SurveyExpMetaMem,3.2.3,MacIntel,60
,,,,,,,,,,,,,,,,,,,,5,2.052000046,7,0.102999926,1,0,1200,867,1,1199,relaxed,11131,2019-10-23_14h30.52.741,SurveyExpMetaMem,3.2.3,MacIntel,60
,,,,,,,,,,,,,,,,,,,,7,2.013000011,9,0.09800005,1,0,1200,287,1,1199,optimistic,11131,2019-10-23_14h30.52.741,SurveyExpMetaMem,3.2.3,MacIntel,60
,,,,,,,,,,,,,,,,,,,,5,2.708999872,7,0.138000011,1,0,1200,711,1,1199,sympathetic,11131,2019-10-23_14h30.52.741,SurveyExpMetaMem,3.2.3,MacIntel,60
,,,,,,,,,,,,,,,,,,,,7,1.579999924,3,0.118999958,1,0,1200,1159,1,1199,rifle,11131,2019-10-23_14h30.52.741,SurveyExpMetaMem,3.2.3,MacIntel,60
,,,,,,,,,,,,,,,,,,,,5,2.588999987,4,0.111999989,1,0,1200,1098,1,1199,confused,11131,2019-10-23_14h30.52.741,SurveyExpMetaMem,3.2.3,MacIntel,60
,,,,,,,,,,,,,,,,,,,,5,0.819999933,5,0.194999933,1,0,1200,681,1,1199,fig,11131,2019-10-23_14h30.52.741,SurveyExpMetaMem,3.2.3,MacIntel,60
,,,,,,,,,,,,,,,,,,,,5,1.085999966,5,0.180999994,1,0,1200,619,1,1199,pulpit,11131,2019-10-23_14h30.52.741,SurveyExpMetaMem,3.2.3,MacIntel,60
,,,,,,,,,,,,,,,,,,,,7,2.253000021,3,0.152999878,1,0,1200,1130,1,1199,slut,11131,2019-10-23_14h30.52.741,SurveyExpMetaMem,3.2.3,MacIntel,60
,,,,,,,,,,,,,,,,,,,,5,1.529000044,5,0.187999964,1,0,1200,829,1,1199,innocent,11131,2019-10-23_14h30.52.741,SurveyExpMetaMem,3.2.3,MacIntel,60
,,,,,,,,,,,,,,,,,,,,5,1.497999907,7,0.138000011,1,0,1200,792,1,1199,moral,11131,2019-10-23_14h30.52.741,SurveyExpMetaMem,3.2.3,MacIntel,60
,,,,,,,,,,,,,,,,,,,,5,2.144999981,5,0.246999979,1,0,1200,607,1,1199,greyhound,11131,2019-10-23_14h30.52.741,SurveyExpMetaMem,3.2.3,MacIntel,60
,,,,,,,,,,,,,,,,,,,,7,2.865999937,4,0.138000011,1,0,1200,1072,1,1199,bothered,11131,2019-10-23_14h30.52.741,SurveyExpMetaMem,3.2.3,MacIntel,60
,,,,,,,,,,,,,,,,,,,,5,1.046000004,5,0.234999895,1,0,1200,669,1,1199,plaza,11131,2019-10-23_14h30.52.741,SurveyExpMetaMem,3.2.3,MacIntel,60
,,,,,,,,,,,,,,,,,,,,5,1.529000044,4,0.197000027,1,0,1200,995,1,1199,cult,11131,2019-10-23_14h30.52.741,SurveyExpMetaMem,3.2.3,MacIntel,60
,,,,,,,,,,,,,,,,,,,,5,1.337999821,5,0.417999744,1,0,1200,220,1,1199,reef,11131,2019-10-23_14h30.52.741,SurveyExpMetaMem,3.2.3,MacIntel,60
,,,,,,,,,,,,,,,,,,,,7,1.507999897,8,0.187000036,1,0,1200,135,1,1199,applause,11131,2019-10-23_14h30.52.741,SurveyExpMetaMem,3.2.3,MacIntel,60
,,,,,,,,,,,,,,,,,,,,5,0.987999916,5,0.234999895,1,0,1200,663,1,1199,trout,11131,2019-10-23_14h30.52.741,SurveyExpMetaMem,3.2.3,MacIntel,60
,,,,,,,,,,,,,,,,,,,,5,1.438999891,3,0.496999741,1,0,1200,1064,1,1199,sinful,11131,2019-10-23_14h30.52.741,SurveyExpMetaMem,3.2.3,MacIntel,60
,,,,,,,,,,,,,,,,,,,,6,2.339999914,3,0.186999798,1,0,1200,396,1,1199,unpopular,11131,2019-10-23_14h30.52.741,SurveyExpMetaMem,3.2.3,MacIntel,60
,,,,,,,,,,,,,,,,,,,,5,0.785000086,5,0.288999796,1,0,1200,207,1,1199,erect,11131,2019-10-23_14h30.52.741,SurveyExpMetaMem,3.2.3,MacIntel,60
,,,,,,,,,,,,,,,,,,,,5,3.731999874,5,0.287999868,1,0,1200,209,1,1199,husband,11131,2019-10-23_14h30.52.741,SurveyExpMetaMem,3.2.3,MacIntel,60
,,,,,,,,,,,,,,,,,,,,5,0.950999975,7,0.811999798,1,0,1200,163,1,1199,gem,11131,2019-10-23_14h30.52.741,SurveyExpMetaMem,3.2.3,MacIntel,60
,,,,,,,,,,,,,,,,,,,,8,2.036000013,9,0.915999889,1,0,1200,1,1,1199,fuck,11131,2019-10-23_14h30.52.741,SurveyExpMetaMem,3.2.3,MacIntel,60
,,,,,,,,,,,,,,,,,,,,5,15.23199987,5,0.605000019,1,0,1200,530,1,1199,erase,11131,2019-10-23_14h30.52.741,SurveyExpMetaMem,3.2.3,MacIntel,60
,,,,,,,,,,,,,,,,,,,,5,1.703000069,8,0.335000038,1,0,1200,754,1,1199,reflection,11131,2019-10-23_14h30.52.741,SurveyExpMetaMem,3.2.3,MacIntel,60
,,,,,,,,,,,,,,,,,,,,5,1.096999884,5,0.254999876,1,0,1200,542,1,1199,loose,11131,2019-10-23_14h30.52.741,SurveyExpMetaMem,3.2.3,MacIntel,60
,,,,,,,,,,,,,,,,,,,,5,1.851999998,9,0.15199995,1,0,1200,13,1,1199,mingle,11131,2019-10-23_14h30.52.741,SurveyExpMetaMem,3.2.3,MacIntel,60
,,,,,,,,,,,,,,,,,,,,8,1.571999788,9,0.281000137,1,0,1200,95,1,1199,giggle,11131,2019-10-23_14h30.52.741,SurveyExpMetaMem,3.2.3,MacIntel,60
,,,,,,,,,,,,,,,,,,,,5,1.186000109,3,0.261999846,1,0,1200,319,1,1199,malaria,11131,2019-10-23_14h30.52.741,SurveyExpMetaMem,3.2.3,MacIntel,60
,,,,,,,,,,,,,,,,,,,,5,3.462999821,5,0.273999929,1,0,1200,801,1,1199,noon,11131,2019-10-23_14h30.52.741,SurveyExpMetaMem,3.2.3,MacIntel,60
,,,,,,,,,,,,,,,,,,,,8,1.337999821,3,0.181999922,1,0,1200,1043,1,1199,scold,11131,2019-10-23_14h30.52.741,SurveyExpMetaMem,3.2.3,MacIntel,60
,,,,,,,,,,,,,,,,,,,,7,1.794999838,3,0.16899991,1,0,1200,987,1,1199,disgusted,11131,2019-10-23_14h30.52.741,SurveyExpMetaMem,3.2.3,MacIntel,60
,,,,,,,,,,,,,,,,,,,,5,1.879999876,5,0.246000051,1,0,1200,608,1,1199,carrot,11131,2019-10-23_14h30.52.741,SurveyExpMetaMem,3.2.3,MacIntel,60
,,,,,,,,,,,,,,,,,,,,5,1.845999956,5,0.284999847,1,0,1200,750,1,1199,porpoise,11131,2019-10-23_14h30.52.741,SurveyExpMetaMem,3.2.3,MacIntel,60
,,,,,,,,,,,,,,,,,,,,7,2.046999931,8,0.187999964,1,0,1200,130,1,1199,great,11131,2019-10-23_14h30.52.741,SurveyExpMetaMem,3.2.3,MacIntel,60
,,,,,,,,,,,,,,,,,,,,5,2.213999987,8,0.138000011,1,0,1200,245,1,1199,beach,11131,2019-10-23_14h30.52.741,SurveyExpMetaMem,3.2.3,MacIntel,60
,,,,,,,,,,,,,,,,,,,,7,1.652999878,8,0.153999805,1,0,1200,217,1,1199,bravery,11131,2019-10-23_14h30.52.741,SurveyExpMetaMem,3.2.3,MacIntel,60
,,,,,,,,,,,,,,,,,,,,5,1.654999971,5,0.20299983,1,0,1200,206,1,1199,comet,11131,2019-10-23_14h30.52.741,SurveyExpMetaMem,3.2.3,MacIntel,60
,,,,,,,,,,,,,,,,,,,,6,11.31500006,7,0.085000038,1,0,1200,299,1,1199,champion,11131,2019-10-23_14h30.52.741,SurveyExpMetaMem,3.2.3,MacIntel,60
,,,,,,,,,,,,,,,,,,,,5,1.053999901,5,0.171999931,1,0,1200,706,1,1199,cat,11131,2019-10-23_14h30.52.741,SurveyExpMetaMem,3.2.3,MacIntel,60
,,,,,,,,,,,,,,,,,,,,5,4.972999811,3,0.062000036,1,0,1200,429,1,1199,cough,11131,2019-10-23_14h30.52.741,SurveyExpMetaMem,3.2.3,MacIntel,60
,,,,,,,,,,,,,,,,,,,,7,1.928999901,8,0.063999891,1,0,1200,29,1,1199,life,11131,2019-10-23_14h30.52.741,SurveyExpMetaMem,3.2.3,MacIntel,60
,,,,,,,,,,,,,,,,,,,,7,1.789999962,3,0.097999811,1,0,1200,378,1,1199,dislike,11131,2019-10-23_14h30.52.741,SurveyExpMetaMem,3.2.3,MacIntel,60
,,,,,,,,,,,,,,,,,,,,5,2.187999964,8,0.103999853,1,0,1200,189,1,1199,thoughtful,11131,2019-10-23_14h30.52.741,SurveyExpMetaMem,3.2.3,MacIntel,60
,,,,,,,,,,,,,,,,,,,,7,1.694999933,3,0.131000042,1,0,1200,954,1,1199,hostage,11131,2019-10-23_14h30.52.741,SurveyExpMetaMem,3.2.3,MacIntel,60
,,,,,,,,,,,,,,,,,,,,9,1.773999929,1,0.871999979,1,0,1200,955,1,1199,drown,11131,2019-10-23_14h30.52.741,SurveyExpMetaMem,3.2.3,MacIntel,60
,,,,,,,,,,,,,,,,,,,,5,2.395999908,9,0.537999868,1,0,1200,870,1,1199,safe,11131,2019-10-23_14h30.52.741,SurveyExpMetaMem,3.2.3,MacIntel,60
,,,,,,,,,,,,,,,,,,,,5,1.470999956,5,0.170000076,1,0,1200,809,1,1199,boy,11131,2019-10-23_14h30.52.741,SurveyExpMetaMem,3.2.3,MacIntel,60
,,,,,,,,,,,,,,,,,,,,8,9.562999964,3,0.136999846,1,0,1200,1182,1,1199,pierce,11131,2019-10-23_14h30.52.741,SurveyExpMetaMem,3.2.3,MacIntel,60
,,,,,,,,,,,,,,,,,,,,5,1.112999916,5,0.23699975,1,0,1200,450,1,1199,overcast,11131,2019-10-23_14h30.52.741,SurveyExpMetaMem,3.2.3,MacIntel,60
,,,,,,,,,,,,,,,,,,,,8,1.929999828,2,0.14199996,1,0,1200,946,1,1199,amputate,11131,2019-10-23_14h30.52.741,SurveyExpMetaMem,3.2.3,MacIntel,60
,,,,,,,,,,,,,,,,,,,,5,8.453999996,5,0.144999981,1,0,1200,67,1,1199,penthouse,11131,2019-10-23_14h30.52.741,SurveyExpMetaMem,3.2.3,MacIntel,60
,,,,,,,,,,,,,,,,,,,,5,1.762999773,8,0.107000113,1,0,1200,510,1,1199,excuse,11131,2019-10-23_14h30.52.741,SurveyExpMetaMem,3.2.3,MacIntel,60
,,,,,,,,,,,,,,,,,,,,5,1.552000046,6,0.380000114,1,0,1200,861,1,1199,nectar,11131,2019-10-23_14h30.52.741,SurveyExpMetaMem,3.2.3,MacIntel,60
,,,,,,,,,,,,,,,,,,,,5,1.750999928,3,0.104000092,1,0,1200,405,1,1199,fatigued,11131,2019-10-23_14h30.52.741,SurveyExpMetaMem,3.2.3,MacIntel,60
,,,,,,,,,,,,,,,,,,,,6,2.304999828,8,0.111999989,1,0,1200,79,1,1199,dazzle,11131,2019-10-23_14h30.52.741,SurveyExpMetaMem,3.2.3,MacIntel,60
,,,,,,,,,,,,,,,,,,,,6,2.767999887,9,0.074999809,1,0,1200,36,1,1199,puppy,11131,2019-10-23_14h30.52.741,SurveyExpMetaMem,3.2.3,MacIntel,60
,,,,,,,,,,,,,,,,,,,,5,1.170000076,5,0.179999828,1,0,1200,69,1,1199,special,11131,2019-10-23_14h30.52.741,SurveyExpMetaMem,3.2.3,MacIntel,60
,,,,,,,,,,,,,,,,,,,,5,1.220999956,5,0.178999901,1,0,1200,343,1,1199,fever,11131,2019-10-23_14h30.52.741,SurveyExpMetaMem,3.2.3,MacIntel,60
,,,,,,,,,,,,,,,,,,,,5,0.663000107,5,0.155999899,1,0,1200,219,1,1199,know,11131,2019-10-23_14h30.52.741,SurveyExpMetaMem,3.2.3,MacIntel,60
,,,,,,,,,,,,,,,,,,,,5,1.684999943,3,0.103999853,1,0,1200,451,1,1199,lame,11131,2019-10-23_14h30.52.741,SurveyExpMetaMem,3.2.3,MacIntel,60
,,,,,,,,,,,,,,,,,,,,5,1.119999886,7,0.105999947,1,0,1200,690,1,1199,similar,11131,2019-10-23_14h30.52.741,SurveyExpMetaMem,3.2.3,MacIntel,60
,,,,,,,,,,,,,,,,,,,,5,1.697000027,7,0.078999996,1,0,1200,703,1,1199,book,11131,2019-10-23_14h30.52.741,SurveyExpMetaMem,3.2.3,MacIntel,60
,,,,,,,,,,,,,,,,,,,,5,2.013000011,6,0.13499999,1,0,1200,53,1,1199,lotion,11131,2019-10-23_14h30.52.741,SurveyExpMetaMem,3.2.3,MacIntel,60
,,,,,,,,,,,,,,,,,,,,5,3.136999846,4,0.112999916,1,0,1200,597,1,1199,drool,11131,2019-10-23_14h30.52.741,SurveyExpMetaMem,3.2.3,MacIntel,60
,,,,,,,,,,,,,,,,,,,,6,5.029999971,7,0.139999866,1,0,1200,673,1,1199,bedspread,11131,2019-10-23_14h30.52.741,SurveyExpMetaMem,3.2.3,MacIntel,60
,,,,,,,,,,,,,,,,,,,,5,40.87599993,5,0.164999962,1,0,1200,518,1,1199,report,11131,2019-10-23_14h30.52.741,SurveyExpMetaMem,3.2.3,MacIntel,60
,,,,,,,,,,,,,,,,,,,,5,1.534999847,7,0.068999767,1,0,1200,644,1,1199,farm,11131,2019-10-23_14h30.52.741,SurveyExpMetaMem,3.2.3,MacIntel,60
,,,,,,,,,,,,,,,,,,,,6,2.157999992,6,0.148999929,1,0,1200,60,1,1199,bikini,11131,2019-10-23_14h30.52.741,SurveyExpMetaMem,3.2.3,MacIntel,60
,,,,,,,,,,,,,,,,,,,,7,1.312999964,8,0.052999973,1,0,1200,80,1,1199,wonderful,11131,2019-10-23_14h30.52.741,SurveyExpMetaMem,3.2.3,MacIntel,60
,,,,,,,,,,,,,,,,,,,,7,3.112999916,5,0.093999863,1,0,1200,157,1,1199,reveal,11131,2019-10-23_14h30.52.741,SurveyExpMetaMem,3.2.3,MacIntel,60
,,,,,,,,,,,,,,,,,,,,5,0.818000078,5,0.145999908,1,0,1200,460,1,1199,rag,11131,2019-10-23_14h30.52.741,SurveyExpMetaMem,3.2.3,MacIntel,60
,,,,,,,,,,,,,,,,,,,,5,1.124999762,5,0.188999891,1,0,1200,974,1,1199,roach,11131,2019-10-23_14h30.52.741,SurveyExpMetaMem,3.2.3,MacIntel,60
,,,,,,,,,,,,,,,,,,,,7,1.611999989,3,0.169999838,1,0,1200,1150,1,1199,forceful,11131,2019-10-23_14h30.52.741,SurveyExpMetaMem,3.2.3,MacIntel,60
,,,,,,,,,,,,,,,,,,,,7,1.218999863,7,0.180000067,1,0,1200,789,1,1199,green,11131,2019-10-23_14h30.52.741,SurveyExpMetaMem,3.2.3,MacIntel,60
,,,,,,,,,,,,,,,,,,,,5,3.969000101,8,0.161999941,1,0,1200,837,1,1199,responsible,11131,2019-10-23_14h30.52.741,SurveyExpMetaMem,3.2.3,MacIntel,60
,,,,,,,,,,,,,,,,,,,,5,1.245999813,5,0.353999853,1,0,1200,704,1,1199,flute,11131,2019-10-23_14h30.52.741,SurveyExpMetaMem,3.2.3,MacIntel,60
,,,,,,,,,,,,,,,,,,,,6,1.980999708,2,0.102999926,1,0,1200,324,1,1199,inferiority,11131,2019-10-23_14h30.52.741,SurveyExpMetaMem,3.2.3,MacIntel,60
,,,,,,,,,,,,,,,,,,,,7,1.547999859,3,0.122999907,1,0,1200,494,1,1199,butcher,11131,2019-10-23_14h30.52.741,SurveyExpMetaMem,3.2.3,MacIntel,60
,,,,,,,,,,,,,,,,,,,,7,3.812999964,8,0.190000057,1,0,1200,44,1,1199,diploma,11131,2019-10-23_14h30.52.741,SurveyExpMetaMem,3.2.3,MacIntel,60
,,,,,,,,,,,,,,,,,,,,8,1.696999788,9,0.146999836,1,0,1200,240,1,1199,giggles,11131,2019-10-23_14h30.52.741,SurveyExpMetaMem,3.2.3,MacIntel,60
,,,,,,,,,,,,,,,,,,,,7,2.253999949,8,0.11199975,1,0,1200,105,1,1199,curious,11131,2019-10-23_14h30.52.741,SurveyExpMetaMem,3.2.3,MacIntel,60
,,,,,,,,,,,,,,,,,,,,5,2.155999899,9,0.112999916,1,0,1200,857,1,1199,thankful,11131,2019-10-23_14h30.52.741,SurveyExpMetaMem,3.2.3,MacIntel,60
,,,,,,,,,,,,,,,,,,,,6,4.052999973,8,0.917999744,1,0,1200,806,1,1199,tree,11131,2019-10-23_14h30.52.741,SurveyExpMetaMem,3.2.3,MacIntel,60
,,,,,,,,,,,,,,,,,,,,7,1.414000034,8,0.135999918,1,0,1200,183,1,1199,congratulate,11131,2019-10-23_14h30.52.741,SurveyExpMetaMem,3.2.3,MacIntel,60
,,,,,,,,,,,,,,,,,,,,5,6.796999931,3,0.207999945,1,0,1200,422,1,1199,doubtful,11131,2019-10-23_14h30.52.741,SurveyExpMetaMem,3.2.3,MacIntel,60
,,,,,,,,,,,,,,,,,,,,6,2.617000103,6,0.269999981,1,0,1200,3,1,1199,nudist,11131,2019-10-23_14h30.52.741,SurveyExpMetaMem,3.2.3,MacIntel,60
,,,,,,,,,,,,,,,,,,,,7,1.517999887,8,0.135999918,1,0,1200,15,1,1199,curiosity,11131,2019-10-23_14h30.52.741,SurveyExpMetaMem,3.2.3,MacIntel,60
,,,,,,,,,,,,,,,,,,,,5,14.90299988,6,0.083999872,1,0,1200,874,1,1199,butterfly,11131,2019-10-23_14h30.52.741,SurveyExpMetaMem,3.2.3,MacIntel,60
,,,,,,,,,,,,,,,,,,,,5,0.852999926,5,0.141000032,1,0,1200,860,1,1199,silk,11131,2019-10-23_14h30.52.741,SurveyExpMetaMem,3.2.3,MacIntel,60
,,,,,,,,,,,,,,,,,,,,6,1.622999907,4,0.095999956,1,0,1200,485,1,1199,pinch,11131,2019-10-23_14h30.52.741,SurveyExpMetaMem,3.2.3,MacIntel,60
,,,,,,,,,,,,,,,,,,,,6,1.511999846,7,0.090999842,1,0,1200,107,1,1199,sandwich,11131,2019-10-23_14h30.52.741,SurveyExpMetaMem,3.2.3,MacIntel,60
,,,,,,,,,,,,,,,,,,,,6,2.887999773,7,0.085000038,1,0,1200,65,1,1199,restaurant,11131,2019-10-23_14h30.52.741,SurveyExpMetaMem,3.2.3,MacIntel,60
,,,,,,,,,,,,,,,,,,,,6,1.761999846,7,0.110999823,1,0,1200,76,1,1199,midnight,11131,2019-10-23_14h30.52.741,SurveyExpMetaMem,3.2.3,MacIntel,60
,,,,,,,,,,,,,,,,,,,,7,1.296000004,3,0.112999916,1,0,1200,304,1,1199,depression,11131,2019-10-23_14h30.52.741,SurveyExpMetaMem,3.2.3,MacIntel,60
,,,,,,,,,,,,,,,,,,,,6,1.557999849,7,0.062999964,1,0,1200,5,1,1199,drunk,11131,2019-10-23_14h30.52.741,SurveyExpMetaMem,3.2.3,MacIntel,60
,,,,,,,,,,,,,,,,,,,,8,1.338999748,2,0.112999916,1,0,1200,903,1,1199,cancer,11131,2019-10-23_14h30.52.741,SurveyExpMetaMem,3.2.3,MacIntel,60
,,,,,,,,,,,,,,,,,,,,5,3.777999878,5,0.16899991,1,0,1200,548,1,1199,vague,11131,2019-10-23_14h30.52.741,SurveyExpMetaMem,3.2.3,MacIntel,60
,,,,,,,,,,,,,,,,,,,,6,2.612999916,2,0.114000082,1,0,1200,364,1,1199,stink,11131,2019-10-23_14h30.52.741,SurveyExpMetaMem,3.2.3,MacIntel,60
,,,,,,,,,,,,,,,,,,,,7,1.713999987,8,0.135999918,1,0,1200,27,1,1199,gourmet,11131,2019-10-23_14h30.52.741,SurveyExpMetaMem,3.2.3,MacIntel,60
,,,,,,,,,,,,,,,,,,,,7,1.061999798,8,0.119999886,1,0,1200,137,1,1199,money,11131,2019-10-23_14h30.52.741,SurveyExpMetaMem,3.2.3,MacIntel,60
,,,,,,,,,,,,,,,,,,,,8,1.945999861,2,0.129999876,1,0,1200,986,1,1199,mad,11131,2019-10-23_14h30.52.741,SurveyExpMetaMem,3.2.3,MacIntel,60
,,,,,,,,,,,,,,,,,,,,5,2.288000107,2,0.046000004,1,0,1200,416,1,1199,boring,11131,2019-10-23_14h30.52.741,SurveyExpMetaMem,3.2.3,MacIntel,60
,,,,,,,,,,,,,,,,,,,,5,1.371999741,2,0.078999996,1,0,1200,1068,1,1199,riot,11131,2019-10-23_14h30.52.741,SurveyExpMetaMem,3.2.3,MacIntel,60
,,,,,,,,,,,,,,,,,,,,8,6.131000042,9,0.069999933,1,0,1200,32,1,1199,festival,11131,2019-10-23_14h30.52.741,SurveyExpMetaMem,3.2.3,MacIntel,60
,,,,,,,,,,,,,,,,,,,,8,1.036999941,9,0.073999882,1,0,1200,863,1,1199,fireplace,11131,2019-10-23_14h30.52.741,SurveyExpMetaMem,3.2.3,MacIntel,60
,,,,,,,,,,,,,,,,,,,,6,7.188999891,1,0.145999908,1,0,1200,1087,1,1199,affair,11131,2019-10-23_14h30.52.741,SurveyExpMetaMem,3.2.3,MacIntel,60
,,,,,,,,,,,,,,,,,,,,8,2.446999788,9,0.089999914,1,0,1200,64,1,1199,brain,11131,2019-10-23_14h30.52.741,SurveyExpMetaMem,3.2.3,MacIntel,60
,,,,,,,,,,,,,,,,,,,,8,1.078999996,9,0.095999956,1,0,1200,1162,1,1199,baffle,11131,2019-10-23_14h30.52.741,SurveyExpMetaMem,3.2.3,MacIntel,60
,,,,,,,,,,,,,,,,,,,,5,1.229999781,5,0.135999918,1,0,1200,349,1,1199,mope,11131,2019-10-23_14h30.52.741,SurveyExpMetaMem,3.2.3,MacIntel,60
,,,,,,,,,,,,,,,,,,,,8,1.338000059,9,0.053999901,1,0,1200,74,1,1199,explore,11131,2019-10-23_14h30.52.741,SurveyExpMetaMem,3.2.3,MacIntel,60
,,,,,,,,,,,,,,,,,,,,8,1.437999964,9,0.096999884,1,0,1200,841,1,1199,bathtub,11131,2019-10-23_14h30.52.741,SurveyExpMetaMem,3.2.3,MacIntel,60
,,,,,,,,,,,,,,,,,,,,8,1.68599987,2,0.112999916,1,0,1200,968,1,1199,insult,11131,2019-10-23_14h30.52.741,SurveyExpMetaMem,3.2.3,MacIntel,60
,,,,,,,,,,,,,,,,,,,,6,1.720999956,7,0.068999767,1,0,1200,743,1,1199,herbal,11131,2019-10-23_14h30.52.741,SurveyExpMetaMem,3.2.3,MacIntel,60
,,,,,,,,,,,,,,,,,,,,7,1.386999846,2,0.086999893,1,0,1200,335,1,1199,decay,11131,2019-10-23_14h30.52.741,SurveyExpMetaMem,3.2.3,MacIntel,60
,,,,,,,,,,,,,,,,,,,,5,1.394999981,5,0.148000002,1,0,1200,1177,1,1199,pang,11131,2019-10-23_14h30.52.741,SurveyExpMetaMem,3.2.3,MacIntel,60
,,,,,,,,,,,,,,,,,,,,5,1.304999828,5,0.146999836,1,0,1200,558,1,1199,punk,11131,2019-10-23_14h30.52.741,SurveyExpMetaMem,3.2.3,MacIntel,60
,,,,,,,,,,,,,,,,,,,,5,2.240999937,5,0.161999941,1,0,1200,816,1,1199,hippotamus,11131,2019-10-23_14h30.52.741,SurveyExpMetaMem,3.2.3,MacIntel,60
,,,,,,,,,,,,,,,,,,,,5,1.261999846,5,0.200999975,1,0,1200,409,1,1199,old,11131,2019-10-23_14h30.52.741,SurveyExpMetaMem,3.2.3,MacIntel,60
,,,,,,,,,,,,,,,,,,,,5,1.680999994,4,0.069999933,1,0,1200,336,1,1199,wasteful,11131,2019-10-23_14h30.52.741,SurveyExpMetaMem,3.2.3,MacIntel,60
,,,,,,,,,,,,,,,,,,,,6,2.022000074,7,0.09499979,1,0,1200,117,1,1199,powerful,11131,2019-10-23_14h30.52.741,SurveyExpMetaMem,3.2.3,MacIntel,60
,,,,,,,,,,,,,,,,,,,,8,1.240999937,9,0.068999767,1,0,1200,238,1,1199,sunshine,11131,2019-10-23_14h30.52.741,SurveyExpMetaMem,3.2.3,MacIntel,60
,,,,,,,,,,,,,,,,,,,,8,1.713999987,3,0.074999809,1,0,1200,1014,1,1199,destroy,11131,2019-10-23_14h30.52.741,SurveyExpMetaMem,3.2.3,MacIntel,60
,,,,,,,,,,,,,,,,,,,,7,1.947999954,3,0.079999924,1,0,1200,952,1,1199,troubled,11131,2019-10-23_14h30.52.741,SurveyExpMetaMem,3.2.3,MacIntel,60
,,,,,,,,,,,,,,,,,,,,6,3.141000032,2,0.096999884,1,0,1200,481,1,1199,melancholy,11131,2019-10-23_14h30.52.741,SurveyExpMetaMem,3.2.3,MacIntel,60
,,,,,,,,,,,,,,,,,,,,5,2.182999849,5,0.154999971,1,0,1200,678,1,1199,lightbulb,11131,2019-10-23_14h30.52.741,SurveyExpMetaMem,3.2.3,MacIntel,60
,,,,,,,,,,,,,,,,,,,,6,1.786000013,4,0.079999924,1,0,1200,333,1,1199,weak,11131,2019-10-23_14h30.52.741,SurveyExpMetaMem,3.2.3,MacIntel,60
,,,,,,,,,,,,,,,,,,,,6,1.420999765,4,0.101999998,1,0,1200,337,1,1199,stinks,11131,2019-10-23_14h30.52.741,SurveyExpMetaMem,3.2.3,MacIntel,60
,,,,,,,,,,,,,,,,,,,,5,2.421000004,5,0.16899991,1,0,1200,618,1,1199,ceiling,11131,2019-10-23_14h30.52.741,SurveyExpMetaMem,3.2.3,MacIntel,60
,,,,,,,,,,,,,,,,,,,,5,1.295999765,5,0.173999786,1,0,1200,842,1,1199,breathe,11131,2019-10-23_14h30.52.741,SurveyExpMetaMem,3.2.3,MacIntel,60
,,,,,,,,,,,,,,,,,,,,6,1.603999853,3,0.101999998,1,0,1200,1073,1,1199,bitch,11131,2019-10-23_14h30.52.741,SurveyExpMetaMem,3.2.3,MacIntel,60
,,,,,,,,,,,,,,,,,,,,5,1.825000048,5,0.163999796,1,0,1200,514,1,1199,defer,11131,2019-10-23_14h30.52.741,SurveyExpMetaMem,3.2.3,MacIntel,60
,,,,,,,,,,,,,,,,,,,,8,7.33100009,9,0.070999861,1,0,1200,78,1,1199,energetic,11131,2019-10-23_14h30.52.741,SurveyExpMetaMem,3.2.3,MacIntel,60
,,,,,,,,,,,,,,,,,,,,7,1.622999907,8,0.089999914,1,0,1200,9,1,1199,try,11131,2019-10-23_14h30.52.741,SurveyExpMetaMem,3.2.3,MacIntel,60
,,,,,,,,,,,,,,,,,,,,5,1.127999783,5,0.13499999,1,0,1200,755,1,1199,soap,11131,2019-10-23_14h30.52.741,SurveyExpMetaMem,3.2.3,MacIntel,60
,,,,,,,,,,,,,,,,,,,,7,1.253999949,8,0.070999861,1,0,1200,173,1,1199,hope,11131,2019-10-23_14h30.52.741,SurveyExpMetaMem,3.2.3,MacIntel,60
,,,,,,,,,,,,,,,,,,,,7,1.345999956,3,0.078999758,1,0,1200,914,1,1199,fail,11131,2019-10-23_14h30.52.741,SurveyExpMetaMem,3.2.3,MacIntel,60
,,,,,,,,,,,,,,,,,,,,5,1.287999868,5,0.145999908,1,0,1200,643,1,1199,library,11131,2019-10-23_14h30.52.741,SurveyExpMetaMem,3.2.3,MacIntel,60
,,,,,,,,,,,,,,,,,,,,5,1.328999996,5,0.157000065,1,0,1200,694,1,1199,pecan,11131,2019-10-23_14h30.52.741,SurveyExpMetaMem,3.2.3,MacIntel,60
,,,,,,,,,,,,,,,,,,,,8,1.361999989,2,0.345999956,1,0,1200,969,1,1199,whore,11131,2019-10-23_14h30.52.741,SurveyExpMetaMem,3.2.3,MacIntel,60
,,,,,,,,,,,,,,,,,,,,7,1.602999926,8,0.096999884,1,0,1200,153,1,1199,teach,11131,2019-10-23_14h30.52.741,SurveyExpMetaMem,3.2.3,MacIntel,60
,,,,,,,,,,,,,,,,,,,,5,11.454,8,0.118999958,1,0,1200,895,1,1199,peace,11131,2019-10-23_14h30.52.741,SurveyExpMetaMem,3.2.3,MacIntel,60
,,,,,,,,,,,,,,,,,,,,5,2.907999992,7,0.138999939,1,0,1200,260,1,1199,control,11131,2019-10-23_14h30.52.741,SurveyExpMetaMem,3.2.3,MacIntel,60
,,,,,,,,,,,,,,,,,,,,5,3.053999901,5,0.201999903,1,0,1200,489,1,1199,timid,11131,2019-10-23_14h30.52.741,SurveyExpMetaMem,3.2.3,MacIntel,60
,,,,,,,,,,,,,,,,,,,,5,1.730000019,9,0.118999958,1,0,1200,899,1,1199,relax,11131,2019-10-23_14h30.52.741,SurveyExpMetaMem,3.2.3,MacIntel,60
,,,,,,,,,,,,,,,,,,,,5,1.177999973,2,0.16899991,1,0,1200,1076,1,1199,embarrassed,11131,2019-10-23_14h30.52.741,SurveyExpMetaMem,3.2.3,MacIntel,60
,,,,,,,,,,,,,,,,,,,,5,1.263999939,5,0.256999731,1,0,1200,561,1,1199,plain,11131,2019-10-23_14h30.52.741,SurveyExpMetaMem,3.2.3,MacIntel,60
,,,,,,,,,,,,,,,,,,,,5,1.404000044,8,0.236999989,1,0,1200,273,1,1199,worthwhile,11131,2019-10-23_14h30.52.741,SurveyExpMetaMem,3.2.3,MacIntel,60
,,,,,,,,,,,,,,,,,,,,5,0.937999964,8,0.199999809,1,0,1200,139,1,1199,generosity,11131,2019-10-23_14h30.52.741,SurveyExpMetaMem,3.2.3,MacIntel,60
,,,,,,,,,,,,,,,,,,,,5,1.684999943,5,0.229000092,1,0,1200,814,1,1199,dress,11131,2019-10-23_14h30.52.741,SurveyExpMetaMem,3.2.3,MacIntel,60
,,,,,,,,,,,,,,,,,,,,8,1.832999945,3,0.447000027,1,0,1200,1151,1,1199,drama,11131,2019-10-23_14h30.52.741,SurveyExpMetaMem,3.2.3,MacIntel,60
,,,,,,,,,,,,,,,,,,,,5,1.645999908,5,0.194999933,1,0,1200,55,1,1199,rare,11131,2019-10-23_14h30.52.741,SurveyExpMetaMem,3.2.3,MacIntel,60
,,,,,,,,,,,,,,,,,,,,5,1.051999807,5,0.178999901,1,0,1200,1016,1,1199,awful,11131,2019-10-23_14h30.52.741,SurveyExpMetaMem,3.2.3,MacIntel,60
,,,,,,,,,,,,,,,,,,,,7,1.220999956,3,0.122999907,1,0,1200,982,1,1199,robbery,11131,2019-10-23_14h30.52.741,SurveyExpMetaMem,3.2.3,MacIntel,60
,,,,,,,,,,,,,,,,,,,,5,0.927999973,5,0.184999943,1,0,1200,782,1,1199,open,11131,2019-10-23_14h30.52.741,SurveyExpMetaMem,3.2.3,MacIntel,60
,,,,,,,,,,,,,,,,,,,,8,1.379999876,2,0.122999907,1,0,1200,921,1,1199,humiliation,11131,2019-10-23_14h30.52.741,SurveyExpMetaMem,3.2.3,MacIntel,60
,,,,,,,,,,,,,,,,,,,,8,5.371000051,2,0.144999981,1,0,1200,1140,1,1199,blood,11131,2019-10-23_14h30.52.741,SurveyExpMetaMem,3.2.3,MacIntel,60
,,,,,,,,,,,,,,,,,,,,5,2.678999901,5,0.197000027,1,0,1200,1145,1,1199,officer,11131,2019-10-23_14h30.52.741,SurveyExpMetaMem,3.2.3,MacIntel,60
,,,,,,,,,,,,,,,,,,,,5,1.480999947,7,0.138999939,1,0,1200,182,1,1199,genius,11131,2019-10-23_14h30.52.741,SurveyExpMetaMem,3.2.3,MacIntel,60
,,,,,,,,,,,,,,,,,,,,5,1.295999765,3,0.135999918,1,0,1200,348,1,1199,impotent,11131,2019-10-23_14h30.52.741,SurveyExpMetaMem,3.2.3,MacIntel,60
,,,,,,,,,,,,,,,,,,,,8,1.289000034,3,0.128999949,1,0,1200,902,1,1199,rejected,11131,2019-10-23_14h30.52.741,SurveyExpMetaMem,3.2.3,MacIntel,60
,,,,,,,,,,,,,,,,,,,,5,1.128999949,5,0.206999779,1,0,1200,111,1,1199,band,11131,2019-10-23_14h30.52.741,SurveyExpMetaMem,3.2.3,MacIntel,60
,,,,,,,,,,,,,,,,,,,,8,2.021999836,3,0.172999859,1,0,1200,939,1,1199,vomit,11131,2019-10-23_14h30.52.741,SurveyExpMetaMem,3.2.3,MacIntel,60
,,,,,,,,,,,,,,,,,,,,8,2.035999775,3,0.178999901,1,0,1200,976,1,1199,tumor,11131,2019-10-23_14h30.52.741,SurveyExpMetaMem,3.2.3,MacIntel,60
,,,,,,,,,,,,,,,,,,,,8,2.518999815,9,0.161999941,1,0,1200,193,1,1199,party,11131,2019-10-23_14h30.52.741,SurveyExpMetaMem,3.2.3,MacIntel,60
,,,,,,,,,,,,,,,,,,,,7,2.614000082,7,0.227999926,1,0,1200,787,1,1199,dawn,11131,2019-10-23_14h30.52.741,SurveyExpMetaMem,3.2.3,MacIntel,60
,,,,,,,,,,,,,,,,,,,,7,2.480999947,7,0.313999891,1,0,1200,889,1,1199,wise,11131,2019-10-23_14h30.52.741,SurveyExpMetaMem,3.2.3,MacIntel,60
,,,,,,,,,,,,,,,,,,,,6,13.63499999,7,0.062000036,1,0,1200,174,1,1199,snow,11131,2019-10-23_14h30.52.741,SurveyExpMetaMem,3.2.3,MacIntel,60
,,,,,,,,,,,,,,,,,,,,6,1.139999866,7,0.078999996,1,0,1200,851,1,1199,cool,11131,2019-10-23_14h30.52.741,SurveyExpMetaMem,3.2.3,MacIntel,60
,,,,,,,,,,,,,,,,,,,,7,1.078999758,8,0.062999964,1,0,1200,58,1,1199,boost,11131,2019-10-23_14h30.52.741,SurveyExpMetaMem,3.2.3,MacIntel,60
,,,,,,,,,,,,,,,,,,,,5,1.680000067,7,0.071999788,1,0,1200,635,1,1199,sensitive,11131,2019-10-23_14h30.52.741,SurveyExpMetaMem,3.2.3,MacIntel,60
,,,,,,,,,,,,,,,,,,,,9,2.263000011,6,2.657000065,1,0,1200,250,1,1199,erupt,11131,2019-10-23_14h30.52.741,SurveyExpMetaMem,3.2.3,MacIntel,60
,,,,,,,,,,,,,,,,,,,,6,2.369999886,2,0.489999771,1,0,1200,970,1,1199,worry,11131,2019-10-23_14h30.52.741,SurveyExpMetaMem,3.2.3,MacIntel,60
,,,,,,,,,,,,,,,,,,,,5,1.352999926,5,0.154000044,1,0,1200,844,1,1199,soul,11131,2019-10-23_14h30.52.741,SurveyExpMetaMem,3.2.3,MacIntel,60
,,,,,,,,,,,,,,,,,,,,5,1.102999926,5,0.130999804,1,0,1200,493,1,1199,little,11131,2019-10-23_14h30.52.741,SurveyExpMetaMem,3.2.3,MacIntel,60
,,,,,,,,,,,,,,,,,,,,5,1.235999823,5,0.145999908,1,0,1200,864,1,1199,blanket,11131,2019-10-23_14h30.52.741,SurveyExpMetaMem,3.2.3,MacIntel,60
,,,,,,,,,,,,,,,,,,,,7,1.70299983,8,0.069999933,1,0,1200,858,1,1199,donate,11131,2019-10-23_14h30.52.741,SurveyExpMetaMem,3.2.3,MacIntel,60
,,,,,,,,,,,,,,,,,,,,5,1.495999813,5,0.144999981,1,0,1200,721,1,1199,contemporary,11131,2019-10-23_14h30.52.741,SurveyExpMetaMem,3.2.3,MacIntel,60
,,,,,,,,,,,,,,,,,,,,5,0.703999996,5,0.171999931,1,0,1200,1136,1,1199,appall,11131,2019-10-23_14h30.52.741,SurveyExpMetaMem,3.2.3,MacIntel,60
,,,,,,,,,,,,,,,,,,,,5,0.871000051,5,0.170999765,1,0,1200,0,1,1199,dragon,11131,2019-10-23_14h30.52.741,SurveyExpMetaMem,3.2.3,MacIntel,60
,,,,,,,,,,,,,,,,,,,,5,0.737999916,5,0.171000004,1,0,1200,615,1,1199,lad,11131,2019-10-23_14h30.52.741,SurveyExpMetaMem,3.2.3,MacIntel,60
,,,,,,,,,,,,,,,,,,,,8,1.470000029,2,0.462999821,1,0,1200,915,1,1199,abuse,11131,2019-10-23_14h30.52.741,SurveyExpMetaMem,3.2.3,MacIntel,60
,,,,,,,,,,,,,,,,,,,,5,1.362999916,5,0.134999752,1,0,1200,1010,1,1199,arson,11131,2019-10-23_14h30.52.741,SurveyExpMetaMem,3.2.3,MacIntel,60
,,,,,,,,,,,,,,,,,,,,7,1.391000032,2,0.589999914,1,0,1200,350,1,1199,inadequate,11131,2019-10-23_14h30.52.741,SurveyExpMetaMem,3.2.3,MacIntel,60
,,,,,,,,,,,,,,,,,,,,8,1.470000029,8,0.13499999,1,0,1200,8,1,1199,extreme,11131,2019-10-23_14h30.52.741,SurveyExpMetaMem,3.2.3,MacIntel,60
,,,,,,,,,,,,,,,,,,,,8,2.254999876,8,0.136999846,1,0,1200,37,1,1199,magnificence,11131,2019-10-23_14h30.52.741,SurveyExpMetaMem,3.2.3,MacIntel,60
,,,,,,,,,,,,,,,,,,,,5,1.219000101,5,0.129999876,1,0,1200,682,1,1199,camel,11131,2019-10-23_14h30.52.741,SurveyExpMetaMem,3.2.3,MacIntel,60
,,,,,,,,,,,,,,,,,,,,5,0.928999901,5,0.165999889,1,0,1200,559,1,1199,lazy,11131,2019-10-23_14h30.52.741,SurveyExpMetaMem,3.2.3,MacIntel,60
,,,,,,,,,,,,,,,,,,,,5,2.029999971,5,0.138000011,1,0,1200,804,1,1199,peach,11131,2019-10-23_14h30.52.741,SurveyExpMetaMem,3.2.3,MacIntel,60
,,,,,,,,,,,,,,,,,,,,5,0.930000067,5,0.15199995,1,0,1200,516,1,1199,smug,11131,2019-10-23_14h30.52.741,SurveyExpMetaMem,3.2.3,MacIntel,60
,,,,,,,,,,,,,,,,,,,,5,2.503999949,3,0.069999933,1,0,1200,1166,1,1199,compulsive,11131,2019-10-23_14h30.52.741,SurveyExpMetaMem,3.2.3,MacIntel,60
,,,,,,,,,,,,,,,,,,,,5,0.808000088,5,0.152999878,1,0,1200,513,1,1199,bland,11131,2019-10-23_14h30.52.741,SurveyExpMetaMem,3.2.3,MacIntel,60
,,,,,,,,,,,,,,,,,,,,7,1.937999964,4,0.128000021,1,0,1200,1188,1,1199,swear,11131,2019-10-23_14h30.52.741,SurveyExpMetaMem,3.2.3,MacIntel,60
,,,,,,,,,,,,,,,,,,,,7,1.412999868,4,0.085999966,1,0,1200,971,1,1199,crash,11131,2019-10-23_14h30.52.741,SurveyExpMetaMem,3.2.3,MacIntel,60
,,,,,,,,,,,,,,,,,,,,5,1.162999868,5,0.161999941,1,0,1200,529,1,1199,small,11131,2019-10-23_14h30.52.741,SurveyExpMetaMem,3.2.3,MacIntel,60
,,,,,,,,,,,,,,,,,,,,5,1.328999996,5,0.179000139,1,0,1200,75,1,1199,actor,11131,2019-10-23_14h30.52.741,SurveyExpMetaMem,3.2.3,MacIntel,60
,,,,,,,,,,,,,,,,,,,,8,1.286999941,4,0.121000051,1,0,1200,1056,1,1199,crime,11131,2019-10-23_14h30.52.741,SurveyExpMetaMem,3.2.3,MacIntel,60
,,,,,,,,,,,,,,,,,,,,5,1.651000023,5,0.335999727,1,0,1200,677,1,1199,handwriting,11131,2019-10-23_14h30.52.741,SurveyExpMetaMem,3.2.3,MacIntel,60
,,,,,,,,,,,,,,,,,,,,8,37.21099997,2,0.062000036,1,0,1200,990,1,1199,enraged,11131,2019-10-23_14h30.52.741,SurveyExpMetaMem,3.2.3,MacIntel,60
,,,,,,,,,,,,,,,,,,,,7,1.537999868,3,0.052999735,1,0,1200,382,1,1199,vulnerable,11131,2019-10-23_14h30.52.741,SurveyExpMetaMem,3.2.3,MacIntel,60
,,,,,,,,,,,,,,,,,,,,6,440.6899998,7,0.102999926,1,0,1200,89,1,1199,cruiseship,11131,2019-10-23_14h30.52.741,SurveyExpMetaMem,3.2.3,MacIntel,60
,,,,,,,,,,,,,,,,,,,,8,1.59499979,9,0.078999758,1,0,1200,247,1,1199,graduate,11131,2019-10-23_14h30.52.741,SurveyExpMetaMem,3.2.3,MacIntel,60
,,,,,,,,,,,,,,,,,,,,7,2.861999989,4,0.102999926,1,0,1200,1172,1,1199,overwhelmed,11131,2019-10-23_14h30.52.741,SurveyExpMetaMem,3.2.3,MacIntel,60
,,,,,,,,,,,,,,,,,,,,5,1.40199995,5,0.136999846,1,0,1200,523,1,1199,witch,11131,2019-10-23_14h30.52.741,SurveyExpMetaMem,3.2.3,MacIntel,60
,,,,,,,,,,,,,,,,,,,,5,0.756999969,5,0.13499999,1,0,1200,862,1,1199,ease,11131,2019-10-23_14h30.52.741,SurveyExpMetaMem,3.2.3,MacIntel,60
,,,,,,,,,,,,,,,,,,,,5,0.802000046,5,0.145999908,1,0,1200,503,1,1199,sludge,11131,2019-10-23_14h30.52.741,SurveyExpMetaMem,3.2.3,MacIntel,60
,,,,,,,,,,,,,,,,,,,,7,1.230999947,4,0.142999887,1,0,1200,309,1,1199,homeless,11131,2019-10-23_14h30.52.741,SurveyExpMetaMem,3.2.3,MacIntel,60
,,,,,,,,,,,,,,,,,,,,7,1.59499979,4,0.078999996,1,0,1200,458,1,1199,refuse,11131,2019-10-23_14h30.52.741,SurveyExpMetaMem,3.2.3,MacIntel,60
,,,,,,,,,,,,,,,,,,,,5,0.749999762,5,0.148000002,1,0,1200,1138,1,1199,wail,11131,2019-10-23_14h30.52.741,SurveyExpMetaMem,3.2.3,MacIntel,60
,,,,,,,,,,,,,,,,,,,,5,0.687999964,5,0.148999929,1,0,1200,175,1,1199,playground,11131,2019-10-23_14h30.52.741,SurveyExpMetaMem,3.2.3,MacIntel,60
,,,,,,,,,,,,,,,,,,,,5,1.289999962,5,0.162999868,1,0,1200,621,1,1199,chew,11131,2019-10-23_14h30.52.741,SurveyExpMetaMem,3.2.3,MacIntel,60
,,,,,,,,,,,,,,,,,,,,5,0.595000029,5,0.173999786,1,0,1200,1062,1,1199,shoplifter,11131,2019-10-23_14h30.52.741,SurveyExpMetaMem,3.2.3,MacIntel,60
,,,,,,,,,,,,,,,,,,,,7,2.157000065,7,0.928999901,1,0,1200,1186,1,1199,goddamn,11131,2019-10-23_14h30.52.741,SurveyExpMetaMem,3.2.3,MacIntel,60
,,,,,,,,,,,,,,,,,,,,7,1.244999886,4,0.053999901,1,0,1200,904,1,1199,murderer,11131,2019-10-23_14h30.52.741,SurveyExpMetaMem,3.2.3,MacIntel,60
,,,,,,,,,,,,,,,,,,,,5,1.221999884,5,0.15199995,1,0,1200,361,1,1199,glum,11131,2019-10-23_14h30.52.741,SurveyExpMetaMem,3.2.3,MacIntel,60
,,,,,,,,,,,,,,,,,,,,5,1.036999941,4,0.102999926,1,0,1200,347,1,1199,unpleasant,11131,2019-10-23_14h30.52.741,SurveyExpMetaMem,3.2.3,MacIntel,60
,,,,,,,,,,,,,,,,,,,,5,1.117999792,5,0.189999819,1,0,1200,1124,1,1199,seize,11131,2019-10-23_14h30.52.741,SurveyExpMetaMem,3.2.3,MacIntel,60
,,,,,,,,,,,,,,,,,,,,7,1.357999802,4,0.114000082,1,0,1200,1070,1,1199,bleed,11131,2019-10-23_14h30.52.741,SurveyExpMetaMem,3.2.3,MacIntel,60
,,,,,,,,,,,,,,,,,,,,7,1.105999947,5,0.085999966,1,0,1200,1022,1,1199,creepy,11131,2019-10-23_14h30.52.741,SurveyExpMetaMem,3.2.3,MacIntel,60
,,,,,,,,,,,,,,,,,,,,4,0.096999884,5,2.11500001,1,0,1200,627,1,1199,introductory,11131,2019-10-23_14h30.52.741,SurveyExpMetaMem,3.2.3,MacIntel,60
,,,,,,,,,,,,,,,,,,,,5,0.701999903,5,0.329999924,1,0,1200,540,1,1199,derelict,11131,2019-10-23_14h30.52.741,SurveyExpMetaMem,3.2.3,MacIntel,60
,,,,,,,,,,,,,,,,,,,,5,0.953999996,5,0.406999826,1,0,1200,1044,1,1199,lost,11131,2019-10-23_14h30.52.741,SurveyExpMetaMem,3.2.3,MacIntel,60
,,,,,,,,,,,,,,,,,,,,5,1.946999788,4,0.463000059,1,0,1200,935,1,1199,despise,11131,2019-10-23_14h30.52.741,SurveyExpMetaMem,3.2.3,MacIntel,60
,,,,,,,,,,,,,,,,,,,,5,1.835000038,5,0.154999971,1,0,1200,426,1,1199,con,11131,2019-10-23_14h30.52.741,SurveyExpMetaMem,3.2.3,MacIntel,60
,,,,,,,,,,,,,,,,,,,,5,0.906000137,5,0.162999868,1,0,1200,632,1,1199,avenue,11131,2019-10-23_14h30.52.741,SurveyExpMetaMem,3.2.3,MacIntel,60
,,,,,,,,,,,,,,,,,,,,5,0.880999804,5,0.154999971,1,0,1200,169,1,1199,aid,11131,2019-10-23_14h30.52.741,SurveyExpMetaMem,3.2.3,MacIntel,60
,,,,,,,,,,,,,,,,,,,,5,1.178999901,5,0.152999878,1,0,1200,817,1,1199,countryside,11131,2019-10-23_14h30.52.741,SurveyExpMetaMem,3.2.3,MacIntel,60
,,,,,,,,,,,,,,,,,,,,5,1.379999876,5,0.157999992,1,0,1200,441,1,1199,prohibit,11131,2019-10-23_14h30.52.741,SurveyExpMetaMem,3.2.3,MacIntel,60
,,,,,,,,,,,,,,,,,,,,5,2.129999876,5,0.187999964,1,0,1200,483,1,1199,condescension,11131,2019-10-23_14h30.52.741,SurveyExpMetaMem,3.2.3,MacIntel,60
,,,,,,,,,,,,,,,,,,,,8,2.036000013,3,0.467999935,1,0,1200,1051,1,1199,insane,11131,2019-10-23_14h30.52.741,SurveyExpMetaMem,3.2.3,MacIntel,60
,,,,,,,,,,,,,,,,,,,,5,1.369999886,5,0.178999901,1,0,1200,667,1,1199,dew,11131,2019-10-23_14h30.52.741,SurveyExpMetaMem,3.2.3,MacIntel,60
,,,,,,,,,,,,,,,,,,,,7,1.887999773,3,0.196000099,1,0,1200,449,1,1199,egotistical,11131,2019-10-23_14h30.52.741,SurveyExpMetaMem,3.2.3,MacIntel,60
,,,,,,,,,,,,,,,,,,,,6,2.116999865,7,0.122999907,1,0,1200,70,1,1199,cartoon,11131,2019-10-23_14h30.52.741,SurveyExpMetaMem,3.2.3,MacIntel,60
,,,,,,,,,,,,,,,,,,,,7,1.380000114,3,0.136000156,1,0,1200,1009,1,1199,frightened,11131,2019-10-23_14h30.52.741,SurveyExpMetaMem,3.2.3,MacIntel,60
,,,,,,,,,,,,,,,,,,,,6,2.003999949,3,0.075999737,1,0,1200,430,1,1199,cancel,11131,2019-10-23_14h30.52.741,SurveyExpMetaMem,3.2.3,MacIntel,60
,,,,,,,,,,,,,,,,,,,,6,1.162999868,7,0.12899971,1,0,1200,11,1,1199,astonished,11131,2019-10-23_14h30.52.741,SurveyExpMetaMem,3.2.3,MacIntel,60
,,,,,,,,,,,,,,,,,,,,6,1.519000053,7,0.101999998,1,0,1200,1184,1,1199,reckless,11131,2019-10-23_14h30.52.741,SurveyExpMetaMem,3.2.3,MacIntel,60
,,,,,,,,,,,,,,,,,,,,5,1.128999949,5,0.180999994,1,0,1200,879,1,1199,bird,11131,2019-10-23_14h30.52.741,SurveyExpMetaMem,3.2.3,MacIntel,60
,,,,,,,,,,,,,,,,,,,,5,1.286999941,3,0.086999893,1,0,1200,308,1,1199,worthless,11131,2019-10-23_14h30.52.741,SurveyExpMetaMem,3.2.3,MacIntel,60
,,,,,,,,,,,,,,,,,,,,5,1.534999847,5,0.13499999,1,0,1200,155,1,1199,ignite,11131,2019-10-23_14h30.52.741,SurveyExpMetaMem,3.2.3,MacIntel,60
,,,,,,,,,,,,,,,,,,,,6,1.3349998,3,0.06099987,1,0,1200,1061,1,1199,difficult,11131,2019-10-23_14h30.52.741,SurveyExpMetaMem,3.2.3,MacIntel,60
,,,,,,,,,,,,,,,,,,,,5,0.960999966,5,0.213000059,1,0,1200,776,1,1199,doll,11131,2019-10-23_14h30.52.741,SurveyExpMetaMem,3.2.3,MacIntel,60
,,,,,,,,,,,,,,,,,,,,5,1.195999861,5,0.169999838,1,0,1200,826,1,1199,poem,11131,2019-10-23_14h30.52.741,SurveyExpMetaMem,3.2.3,MacIntel,60
,,,,,,,,,,,,,,,,,,,,5,109.2869999,5,0.154999733,1,0,1200,71,1,1199,spirit,11131,2019-10-23_14h30.52.741,SurveyExpMetaMem,3.2.3,MacIntel,60
,,,,,,,,,,,,,,,,,,,,5,3.169999838,5,0.278999805,1,0,1200,629,1,1199,barn,11131,2019-10-23_14h30.52.741,SurveyExpMetaMem,3.2.3,MacIntel,60
,,,,,,,,,,,,,,,,,,,,5,0.879999876,5,0.207999945,1,0,1200,102,1,1199,motorcycle,11131,2019-10-23_14h30.52.741,SurveyExpMetaMem,3.2.3,MacIntel,60
,,,,,,,,,,,,,,,,,,,,5,0.802000046,5,0.194999695,1,0,1200,474,1,1199,weary,11131,2019-10-23_14h30.52.741,SurveyExpMetaMem,3.2.3,MacIntel,60
,,,,,,,,,,,,,,,,,,,,5,4.986000061,3,0.103999853,1,0,1200,1034,1,1199,pester,11131,2019-10-23_14h30.52.741,SurveyExpMetaMem,3.2.3,MacIntel,60
,,,,,,,,,,,,,,,,,,,,7,2.601999998,8,0.098999977,1,0,1200,248,1,1199,win,11131,2019-10-23_14h30.52.741,SurveyExpMetaMem,3.2.3,MacIntel,60
,,,,,,,,,,,,,,,,,,,,5,1.868999958,4,0.085999727,1,0,1200,379,1,1199,slob,11131,2019-10-23_14h30.52.741,SurveyExpMetaMem,3.2.3,MacIntel,60
,,,,,,,,,,,,,,,,,,,,5,1.503000021,4,0.103999853,1,0,1200,1194,1,1199,obsession,11131,2019-10-23_14h30.52.741,SurveyExpMetaMem,3.2.3,MacIntel,60
,,,,,,,,,,,,,,,,,,,,5,1.237999916,5,0.144999743,1,0,1200,616,1,1199,coat,11131,2019-10-23_14h30.52.741,SurveyExpMetaMem,3.2.3,MacIntel,60
,,,,,,,,,,,,,,,,,,,,5,1.536999941,5,0.171000004,1,0,1200,46,1,1199,god,11131,2019-10-23_14h30.52.741,SurveyExpMetaMem,3.2.3,MacIntel,60
,,,,,,,,,,,,,,,,,,,,5,1.912999868,4,0.128999949,1,0,1200,428,1,1199,end,11131,2019-10-23_14h30.52.741,SurveyExpMetaMem,3.2.3,MacIntel,60
,,,,,,,,,,,,,,,,,,,,6,1.519000053,3,0.211999893,1,0,1200,960,1,1199,irritated,11131,2019-10-23_14h30.52.741,SurveyExpMetaMem,3.2.3,MacIntel,60
,,,,,,,,,,,,,,,,,,,,7,2.062999964,8,0.069999933,1,0,1200,138,1,1199,blessings,11131,2019-10-23_14h30.52.741,SurveyExpMetaMem,3.2.3,MacIntel,60
,,,,,,,,,,,,,,,,,,,,9,3.055000067,9,1.253000021,1,0,1200,141,1,1199,surprise,11131,2019-10-23_14h30.52.741,SurveyExpMetaMem,3.2.3,MacIntel,60
,,,,,,,,,,,,,,,,,,,,5,2.622999907,5,0.170000076,1,0,1200,687,1,1199,skinny,11131,2019-10-23_14h30.52.741,SurveyExpMetaMem,3.2.3,MacIntel,60
,,,,,,,,,,,,,,,,,,,,5,0.819999933,5,0.152999878,1,0,1200,872,1,1199,dignified,11131,2019-10-23_14h30.52.741,SurveyExpMetaMem,3.2.3,MacIntel,60
,,,,,,,,,,,,,,,,,,,,6,1.454999924,7,0.063999891,1,0,1200,82,1,1199,stunning,11131,2019-10-23_14h30.52.741,SurveyExpMetaMem,3.2.3,MacIntel,60
,,,,,,,,,,,,,,,,,,,,5,4.063999891,4,0.086999893,1,0,1200,459,1,1199,heavy,11131,2019-10-23_14h30.52.741,SurveyExpMetaMem,3.2.3,MacIntel,60
,,,,,,,,,,,,,,,,,,,,6,1.905999899,4,0.120999813,1,0,1200,1137,1,1199,knife,11131,2019-10-23_14h30.52.741,SurveyExpMetaMem,3.2.3,MacIntel,60
,,,,,,,,,,,,,,,,,,,,5,1.068000078,5,0.40199995,1,0,1200,1144,1,1199,yelp,11131,2019-10-23_14h30.52.741,SurveyExpMetaMem,3.2.3,MacIntel,60
,,,,,,,,,,,,,,,,,,,,7,2.112999916,8,0.113999844,1,0,1200,17,1,1199,outgoing,11131,2019-10-23_14h30.52.741,SurveyExpMetaMem,3.2.3,MacIntel,60
,,,,,,,,,,,,,,,,,,,,5,2.835999966,4,0.052999735,1,0,1200,1190,1,1199,clench,11131,2019-10-23_14h30.52.741,SurveyExpMetaMem,3.2.3,MacIntel,60
,,,,,,,,,,,,,,,,,,,,5,1.351999998,4,0.554999828,1,0,1200,408,1,1199,bore,11131,2019-10-23_14h30.52.741,SurveyExpMetaMem,3.2.3,MacIntel,60
,,,,,,,,,,,,,,,,,,,,5,1.284999847,4,0.123999834,1,0,1200,1158,1,1199,dentist,11131,2019-10-23_14h30.52.741,SurveyExpMetaMem,3.2.3,MacIntel,60
,,,,,,,,,,,,,,,,,,,,5,0.855000019,4,0.102999926,1,0,1200,520,1,1199,gullible,11131,2019-10-23_14h30.52.741,SurveyExpMetaMem,3.2.3,MacIntel,60
,,,,,,,,,,,,,,,,,,,,5,1.029999971,4,0.097000122,1,0,1200,490,1,1199,detached,11131,2019-10-23_14h30.52.741,SurveyExpMetaMem,3.2.3,MacIntel,60
,,,,,,,,,,,,,,,,,,,,5,1.218999863,5,0.236999989,1,0,1200,695,1,1199,teacher,11131,2019-10-23_14h30.52.741,SurveyExpMetaMem,3.2.3,MacIntel,60
,,,,,,,,,,,,,,,,,,,,7,1.734999895,4,0.085000038,1,0,1200,908,1,1199,suffer,11131,2019-10-23_14h30.52.741,SurveyExpMetaMem,3.2.3,MacIntel,60
,,,,,,,,,,,,,,,,,,,,9,2.387000084,1,0.437999964,1,0,1200,1028,1,1199,terror,11131,2019-10-23_14h30.52.741,SurveyExpMetaMem,3.2.3,MacIntel,60
,,,,,,,,,,,,,,,,,,,,8,3.954999924,1,0.135999918,1,0,1200,1069,1,1199,defeat,11131,2019-10-23_14h30.52.741,SurveyExpMetaMem,3.2.3,MacIntel,60
,,,,,,,,,,,,,,,,,,,,7,1.235999823,1,0.056999922,1,0,1200,480,1,1199,hinder,11131,2019-10-23_14h30.52.741,SurveyExpMetaMem,3.2.3,MacIntel,60
,,,,,,,,,,,,,,,,,,,,8,3.028999805,3,0.118999958,1,0,1200,1032,1,1199,exam,11131,2019-10-23_14h30.52.741,SurveyExpMetaMem,3.2.3,MacIntel,60
,,,,,,,,,,,,,,,,,,,,5,3.364999771,6,0.053999901,1,0,1200,639,1,1199,outlet,11131,2019-10-23_14h30.52.741,SurveyExpMetaMem,3.2.3,MacIntel,60
,,,,,,,,,,,,,,,,,,,,5,1.239000082,5,0.203000069,1,0,1200,740,1,1199,groceries,11131,2019-10-23_14h30.52.741,SurveyExpMetaMem,3.2.3,MacIntel,60
,,,,,,,,,,,,,,,,,,,,7,1.779999971,4,0.139999866,1,0,1200,1126,1,1199,offensive,11131,2019-10-23_14h30.52.741,SurveyExpMetaMem,3.2.3,MacIntel,60
,,,,,,,,,,,,,,,,,,,,6,3.090999842,4,0.294999838,1,0,1200,505,1,1199,exhaust,11131,2019-10-23_14h30.52.741,SurveyExpMetaMem,3.2.3,MacIntel,60
,,,,,,,,,,,,,,,,,,,,5,1.101999998,5,0.197000027,1,0,1200,688,1,1199,jelly,11131,2019-10-23_14h30.52.741,SurveyExpMetaMem,3.2.3,MacIntel,60
,,,,,,,,,,,,,,,,,,,,5,4.886999846,5,0.15199995,1,0,1200,855,1,1199,girl,11131,2019-10-23_14h30.52.741,SurveyExpMetaMem,3.2.3,MacIntel,60
,,,,,,,,,,,,,,,,,,,,5,0.796999931,5,0.171999931,1,0,1200,612,1,1199,propeller,11131,2019-10-23_14h30.52.741,SurveyExpMetaMem,3.2.3,MacIntel,60
,,,,,,,,,,,,,,,,,,,,5,0.71999979,5,0.16899991,1,0,1200,649,1,1199,donkey,11131,2019-10-23_14h30.52.741,SurveyExpMetaMem,3.2.3,MacIntel,60
,,,,,,,,,,,,,,,,,,,,7,1.395999908,4,0.227999926,1,0,1200,327,1,1199,misfortune,11131,2019-10-23_14h30.52.741,SurveyExpMetaMem,3.2.3,MacIntel,60
,,,,,,,,,,,,,,,,,,,,5,0.953999996,5,0.163000107,1,0,1200,536,1,1199,vacant,11131,2019-10-23_14h30.52.741,SurveyExpMetaMem,3.2.3,MacIntel,60
,,,,,,,,,,,,,,,,,,,,5,0.989000082,5,0.156000137,1,0,1200,261,1,1199,windsurfers,11131,2019-10-23_14h30.52.741,SurveyExpMetaMem,3.2.3,MacIntel,60
,,,,,,,,,,,,,,,,,,,,5,0.545000076,5,0.154000044,1,0,1200,423,1,1199,stain,11131,2019-10-23_14h30.52.741,SurveyExpMetaMem,3.2.3,MacIntel,60
,,,,,,,,,,,,,,,,,,,,6,1.855000019,3,0.121999979,1,0,1200,306,1,1199,gloom,11131,2019-10-23_14h30.52.741,SurveyExpMetaMem,3.2.3,MacIntel,60
,,,,,,,,,,,,,,,,,,,,5,1.535000086,5,0.177000046,1,0,1200,508,1,1199,haphazard,11131,2019-10-23_14h30.52.741,SurveyExpMetaMem,3.2.3,MacIntel,60
,,,,,,,,,,,,,,,,,,,,6,2.912999868,6,0.156999826,1,0,1200,100,1,1199,intense,11131,2019-10-23_14h30.52.741,SurveyExpMetaMem,3.2.3,MacIntel,60
,,,,,,,,,,,,,,,,,,,,6,2.178999901,7,0.088999748,1,0,1200,118,1,1199,conquer,11131,2019-10-23_14h30.52.741,SurveyExpMetaMem,3.2.3,MacIntel,60
,,,,,,,,,,,,,,,,,,,,7,1.251999855,4,0.138999939,1,0,1200,999,1,1199,burdened,11131,2019-10-23_14h30.52.741,SurveyExpMetaMem,3.2.3,MacIntel,60
,,,,,,,,,,,,,,,,,,,,6,1.446000099,7,0.069999933,1,0,1200,85,1,1199,like,11131,2019-10-23_14h30.52.741,SurveyExpMetaMem,3.2.3,MacIntel,60
,,,,,,,,,,,,,,,,,,,,5,4.928999901,5,0.138999939,1,0,1200,640,1,1199,cabin,11131,2019-10-23_14h30.52.741,SurveyExpMetaMem,3.2.3,MacIntel,60
,,,,,,,,,,,,,,,,,,,,7,1.413999796,3,0.147000074,1,0,1200,966,1,1199,regretful,11131,2019-10-23_14h30.52.741,SurveyExpMetaMem,3.2.3,MacIntel,60
,,,,,,,,,,,,,,,,,,,,5,1.463999987,5,0.171000004,1,0,1200,854,1,1199,river,11131,2019-10-23_14h30.52.741,SurveyExpMetaMem,3.2.3,MacIntel,60
,,,,,,,,,,,,,,,,,,,,5,1.045000076,5,0.197999954,1,0,1200,679,1,1199,yellow,11131,2019-10-23_14h30.52.741,SurveyExpMetaMem,3.2.3,MacIntel,60
,,,,,,,,,,,,,,,,,,,,7,1.786000013,8,0.052999973,1,0,1200,30,1,1199,impressed,11131,2019-10-23_14h30.52.741,SurveyExpMetaMem,3.2.3,MacIntel,60
,,,,,,,,,,,,,,,,,,,,5,1.378999949,5,0.153999805,1,0,1200,368,1,1199,dreary,11131,2019-10-23_14h30.52.741,SurveyExpMetaMem,3.2.3,MacIntel,60
,,,,,,,,,,,,,,,,,,,,5,0.672999859,5,0.161999941,1,0,1200,543,1,1199,gloat,11131,2019-10-23_14h30.52.741,SurveyExpMetaMem,3.2.3,MacIntel,60
,,,,,,,,,,,,,,,,,,,,7,1.796000004,8,0.069000006,1,0,1200,291,1,1199,fantastic,11131,2019-10-23_14h30.52.741,SurveyExpMetaMem,3.2.3,MacIntel,60
,,,,,,,,,,,,,,,,,,,,7,1.20299983,8,0.09100008,1,0,1200,475,1,1199,nameless,11131,2019-10-23_14h30.52.741,SurveyExpMetaMem,3.2.3,MacIntel,60
,,,,,,,,,,,,,,,,,,,,7,2.645999908,8,0.090999842,1,0,1200,875,1,1199,fluffy,11131,2019-10-23_14h30.52.741,SurveyExpMetaMem,3.2.3,MacIntel,60
,,,,,,,,,,,,,,,,,,,,7,1.320999861,3,0.052999973,1,0,1200,953,1,1199,victim,11131,2019-10-23_14h30.52.741,SurveyExpMetaMem,3.2.3,MacIntel,60
,,,,,,,,,,,,,,,,,,,,6,1.547999859,3,0.245999813,1,0,1200,332,1,1199,sewage,11131,2019-10-23_14h30.52.741,SurveyExpMetaMem,3.2.3,MacIntel,60
,,,,,,,,,,,,,,,,,,,,5,1.513999939,5,0.345999956,1,0,1200,1017,1,1199,aggravated,11131,2019-10-23_14h30.52.741,SurveyExpMetaMem,3.2.3,MacIntel,60
,,,,,,,,,,,,,,,,,,,,5,0.771999836,5,0.169999838,1,0,1200,727,1,1199,author,11131,2019-10-23_14h30.52.741,SurveyExpMetaMem,3.2.3,MacIntel,60
,,,,,,,,,,,,,,,,,,,,7,2.028999805,2,0.117999792,1,0,1200,1101,1,1199,scary,11131,2019-10-23_14h30.52.741,SurveyExpMetaMem,3.2.3,MacIntel,60
,,,,,,,,,,,,,,,,,,,,5,1.203999996,5,0.148000002,1,0,1200,736,1,1199,hawk,11131,2019-10-23_14h30.52.741,SurveyExpMetaMem,3.2.3,MacIntel,60
,,,,,,,,,,,,,,,,,,,,6,3.032999754,9,0.203999996,1,0,1200,83,1,1199,appreciative,11131,2019-10-23_14h30.52.741,SurveyExpMetaMem,3.2.3,MacIntel,60
,,,,,,,,,,,,,,,,,,,,5,1.602999926,5,0.173000097,1,0,1200,606,1,1199,easel,11131,2019-10-23_14h30.52.741,SurveyExpMetaMem,3.2.3,MacIntel,60
,,,,,,,,,,,,,,,,,,,,5,1.101000071,5,0.161999941,1,0,1200,512,1,1199,insect,11131,2019-10-23_14h30.52.741,SurveyExpMetaMem,3.2.3,MacIntel,60
,,,,,,,,,,,,,,,,,,,,8,1.351999998,9,0.051999807,1,0,1200,199,1,1199,laughter,11131,2019-10-23_14h30.52.741,SurveyExpMetaMem,3.2.3,MacIntel,60
,,,,,,,,,,,,,,,,,,,,7,2.269999981,2,1.082000017,1,0,1200,1046,1,1199,unsafe,11131,2019-10-23_14h30.52.741,SurveyExpMetaMem,3.2.3,MacIntel,60
,,,,,,,,,,,,,,,,,,,,7,1.852999926,2,0.286999941,1,0,1200,979,1,1199,harassment,11131,2019-10-23_14h30.52.741,SurveyExpMetaMem,3.2.3,MacIntel,60
,,,,,,,,,,,,,,,,,,,,5,1.587000132,5,0.139999866,1,0,1200,719,1,1199,western,11131,2019-10-23_14h30.52.741,SurveyExpMetaMem,3.2.3,MacIntel,60
,,,,,,,,,,,,,,,,,,,,5,0.645999908,5,0.196999788,1,0,1200,1180,1,1199,heat,11131,2019-10-23_14h30.52.741,SurveyExpMetaMem,3.2.3,MacIntel,60
,,,,,,,,,,,,,,,,,,,,8,1.754999876,3,0.152999878,1,0,1200,1012,1,1199,gunshot,11131,2019-10-23_14h30.52.741,SurveyExpMetaMem,3.2.3,MacIntel,60
,,,,,,,,,,,,,,,,,,,,6,3.218999863,9,0.045999765,1,0,1200,133,1,1199,prosperous,11131,2019-10-23_14h30.52.741,SurveyExpMetaMem,3.2.3,MacIntel,60
,,,,,,,,,,,,,,,,,,,,5,0.870999813,5,0.156000137,1,0,1200,507,1,1199,smudge,11131,2019-10-23_14h30.52.741,SurveyExpMetaMem,3.2.3,MacIntel,60
,,,,,,,,,,,,,,,,,,,,5,2.946000099,5,0.181999922,1,0,1200,106,1,1199,voyage,11131,2019-10-23_14h30.52.741,SurveyExpMetaMem,3.2.3,MacIntel,60
,,,,,,,,,,,,,,,,,,,,5,0.953000069,5,0.180999756,1,0,1200,762,1,1199,orchestra,11131,2019-10-23_14h30.52.741,SurveyExpMetaMem,3.2.3,MacIntel,60
,,,,,,,,,,,,,,,,,,,,5,1.112999916,5,0.153999805,1,0,1200,724,1,1199,owl,11131,2019-10-23_14h30.52.741,SurveyExpMetaMem,3.2.3,MacIntel,60
,,,,,,,,,,,,,,,,,,,,5,0.864000082,5,0.180999994,1,0,1200,56,1,1199,spice,11131,2019-10-23_14h30.52.741,SurveyExpMetaMem,3.2.3,MacIntel,60
,,,,,,,,,,,,,,,,,,,,5,0.565999985,5,0.173999786,1,0,1200,735,1,1199,tea,11131,2019-10-23_14h30.52.741,SurveyExpMetaMem,3.2.3,MacIntel,60
,,,,,,,,,,,,,,,,,,,,5,1.728999853,5,0.203999758,1,0,1200,34,1,1199,personality,11131,2019-10-23_14h30.52.741,SurveyExpMetaMem,3.2.3,MacIntel,60
,,,,,,,,,,,,,,,,,,,,6,2.412999868,9,0.421999931,1,0,1200,86,1,1199,talent,11131,2019-10-23_14h30.52.741,SurveyExpMetaMem,3.2.3,MacIntel,60
,,,,,,,,,,,,,,,,,,,,6,1.773999929,8,0.962999821,1,0,1200,778,1,1199,adorn,11131,2019-10-23_14h30.52.741,SurveyExpMetaMem,3.2.3,MacIntel,60
,,,,,,,,,,,,,,,,,,,,5,1.339999914,5,0.170999765,1,0,1200,647,1,1199,accord,11131,2019-10-23_14h30.52.741,SurveyExpMetaMem,3.2.3,MacIntel,60
,,,,,,,,,,,,,,,,,,,,5,2.763999939,3,0.223999739,1,0,1200,1193,1,1199,damn,11131,2019-10-23_14h30.52.741,SurveyExpMetaMem,3.2.3,MacIntel,60
,,,,,,,,,,,,,,,,,,,,5,1.34499979,5,0.177999973,1,0,1200,457,1,1199,confuse,11131,2019-10-23_14h30.52.741,SurveyExpMetaMem,3.2.3,MacIntel,60
,,,,,,,,,,,,,,,,,,,,5,2.428999901,9,0.612999916,1,0,1200,147,1,1199,cure,11131,2019-10-23_14h30.52.741,SurveyExpMetaMem,3.2.3,MacIntel,60
,,,,,,,,,,,,,,,,,,,,5,1.001999855,5,0.139999866,1,0,1200,241,1,1199,car,11131,2019-10-23_14h30.52.741,SurveyExpMetaMem,3.2.3,MacIntel,60
,,,,,,,,,,,,,,,,,,,,5,1.274999857,5,0.164999962,1,0,1200,812,1,1199,harp,11131,2019-10-23_14h30.52.741,SurveyExpMetaMem,3.2.3,MacIntel,60
,,,,,,,,,,,,,,,,,,,,5,10.04200006,5,0.139999866,1,0,1200,171,1,1199,imagination,11131,2019-10-23_14h30.52.741,SurveyExpMetaMem,3.2.3,MacIntel,60
,,,,,,,,,,,,,,,,,,,,5,1.254999876,5,0.134999752,1,0,1200,161,1,1199,limousine,11131,2019-10-23_14h30.52.741,SurveyExpMetaMem,3.2.3,MacIntel,60
,,,,,,,,,,,,,,,,,,,,5,0.839999914,5,0.135999918,1,0,1200,471,1,1199,chump,11131,2019-10-23_14h30.52.741,SurveyExpMetaMem,3.2.3,MacIntel,60
,,,,,,,,,,,,,,,,,,,,6,2.037999868,9,0.62899971,1,0,1200,237,1,1199,beautiful,11131,2019-10-23_14h30.52.741,SurveyExpMetaMem,3.2.3,MacIntel,60
,,,,,,,,,,,,,,,,,,,,9,1.703000069,1,0.519000053,1,0,1200,1025,1,1199,deadly,11131,2019-10-23_14h30.52.741,SurveyExpMetaMem,3.2.3,MacIntel,60
,,,,,,,,,,,,,,,,,,,,5,1.252000093,5,0.144999981,1,0,1200,739,1,1199,seagull,11131,2019-10-23_14h30.52.741,SurveyExpMetaMem,3.2.3,MacIntel,60
,,,,,,,,,,,,,,,,,,,,6,7.803999901,6,0.130000114,1,0,1200,288,1,1199,tasty,11131,2019-10-23_14h30.52.741,SurveyExpMetaMem,3.2.3,MacIntel,60
,,,,,,,,,,,,,,,,,,,,4,1.515999794,4,3.286999941,1,0,1200,550,1,1199,fart,11131,2019-10-23_14h30.52.741,SurveyExpMetaMem,3.2.3,MacIntel,60
,,,,,,,,,,,,,,,,,,,,5,10.49800014,5,0.147000074,1,0,1200,312,1,1199,stench,11131,2019-10-23_14h30.52.741,SurveyExpMetaMem,3.2.3,MacIntel,60
,,,,,,,,,,,,,,,,,,,,5,1.13499999,5,0.131999969,1,0,1200,1119,1,1199,confusion,11131,2019-10-23_14h30.52.741,SurveyExpMetaMem,3.2.3,MacIntel,60
,,,,,,,,,,,,,,,,,,,,5,0.914999962,5,0.146999836,1,0,1200,1103,1,1199,mob,11131,2019-10-23_14h30.52.741,SurveyExpMetaMem,3.2.3,MacIntel,60
,,,,,,,,,,,,,,,,,,,,5,0.861999989,5,0.128999949,1,0,1200,825,1,1199,swan,11131,2019-10-23_14h30.52.741,SurveyExpMetaMem,3.2.3,MacIntel,60
,,,,,,,,,,,,,,,,,,,,5,0.636999846,5,0.135999918,1,0,1200,473,1,1199,senseless,11131,2019-10-23_14h30.52.741,SurveyExpMetaMem,3.2.3,MacIntel,60
,,,,,,,,,,,,,,,,,,,,5,0.846999884,5,0.138000011,1,0,1200,937,1,1199,prison,11131,2019-10-23_14h30.52.741,SurveyExpMetaMem,3.2.3,MacIntel,60
,,,,,,,,,,,,,,,,,,,,6,1.072999954,6,0.145999908,1,0,1200,192,1,1199,pleased,11131,2019-10-23_14h30.52.741,SurveyExpMetaMem,3.2.3,MacIntel,60
,,,,,,,,,,,,,,,,,,,,6,1.363999844,6,0.111999989,1,0,1200,1195,1,1199,speech,11131,2019-10-23_14h30.52.741,SurveyExpMetaMem,3.2.3,MacIntel,60
,,,,,,,,,,,,,,,,,,,,5,1.427999973,5,0.144999743,1,0,1200,547,1,1199,cellar,11131,2019-10-23_14h30.52.741,SurveyExpMetaMem,3.2.3,MacIntel,60
,,,,,,,,,,,,,,,,,,,,6,1.355000019,3,0.079999924,1,0,1200,1000,1,1199,threat,11131,2019-10-23_14h30.52.741,SurveyExpMetaMem,3.2.3,MacIntel,60
,,,,,,,,,,,,,,,,,,,,6,0.851999998,3,0.087999821,1,0,1200,1164,1,1199,battle,11131,2019-10-23_14h30.52.741,SurveyExpMetaMem,3.2.3,MacIntel,60
,,,,,,,,,,,,,,,,,,,,7,1.352999926,8,0.063999891,1,0,1200,194,1,1199,celebration,11131,2019-10-23_14h30.52.741,SurveyExpMetaMem,3.2.3,MacIntel,60
,,,,,,,,,,,,,,,,,,,,5,1.106999874,5,0.137000084,1,0,1200,525,1,1199,stagnant,11131,2019-10-23_14h30.52.741,SurveyExpMetaMem,3.2.3,MacIntel,60
,,,,,,,,,,,,,,,,,,,,5,1.345999956,5,0.138999939,1,0,1200,225,1,1199,strong,11131,2019-10-23_14h30.52.741,SurveyExpMetaMem,3.2.3,MacIntel,60
,,,,,,,,,,,,,,,,,,,,6,2.320999861,3,0.073999882,1,0,1200,487,1,1199,junk,11131,2019-10-23_14h30.52.741,SurveyExpMetaMem,3.2.3,MacIntel,60
,,,,,,,,,,,,,,,,,,,,8,1.645999908,9,0.065000057,1,0,1200,28,1,1199,energy,11131,2019-10-23_14h30.52.741,SurveyExpMetaMem,3.2.3,MacIntel,60
,,,,,,,,,,,,,,,,,,,,5,2.554000139,5,0.238999844,1,0,1200,472,1,1199,bald,11131,2019-10-23_14h30.52.741,SurveyExpMetaMem,3.2.3,MacIntel,60
