mouse_4.x,mouse_4.y,mouse_4.leftButton,mouse_4.midButton,mouse_4.rightButton,mouse.x,mouse.y,mouse.leftButton,mouse.midButton,mouse.rightButton,mouse_2.x,mouse_2.y,mouse_2.leftButton,mouse_2.midButton,mouse_2.rightButton,mouse_3.x,mouse_3.y,mouse_3.leftButton,mouse_3.midButton,mouse_3.rightButton,A_key_resp.keys,A_key_resp.rt,key_resp.keys,key_resp.rt,trials.thisRepN,trials.thisTrialN,trials.thisN,trials.thisIndex,trials.ran,trials.order,word,ParticipantID,date,expName,psychopyVersion,OS,frameRate
-0.237142857,-0.048571429,1,0,0,-0.102857143,-0.06,1,0,0,-0.372380952,0.034285714,1,0,0,-0.391428571,0.105714286,1,0,0,5,9.269000053,3,3.303999901,1,0,1200,1169,1,1199,enforcement,11114 ,2019-10-22_16h03.42.502,SurveyExpMetaMem,3.2.3,Win32,60
,,,,,,,,,,,,,,,,,,,,7,8.184000015,1,2.487999916,1,0,1200,952,1,1199,troubled,11114 ,2019-10-22_16h03.42.502,SurveyExpMetaMem,3.2.3,Win32,60
,,,,,,,,,,,,,,,,,,,,5,2.345000029,5,0.433999777,1,0,1200,659,1,1199,hair,11114 ,2019-10-22_16h03.42.502,SurveyExpMetaMem,3.2.3,Win32,60
,,,,,,,,,,,,,,,,,,,,6,5.519999981,1,3.222000122,1,0,1200,1011,1,1199,robber,11114 ,2019-10-22_16h03.42.502,SurveyExpMetaMem,3.2.3,Win32,60
,,,,,,,,,,,,,,,,,,,,5,3.896000147,9,2.016000032,1,0,1200,39,1,1199,birth,11114 ,2019-10-22_16h03.42.502,SurveyExpMetaMem,3.2.3,Win32,60
,,,,,,,,,,,,,,,,,,,,7,4.601999998,9,1.859999895,1,0,1200,146,1,1199,congratulations,11114 ,2019-10-22_16h03.42.502,SurveyExpMetaMem,3.2.3,Win32,60
,,,,,,,,,,,,,,,,,,,,4,7.611000061,1,1.302999973,1,0,1200,591,1,1199,bereavement,11114 ,2019-10-22_16h03.42.502,SurveyExpMetaMem,3.2.3,Win32,60
,,,,,,,,,,,,,,,,,,,,7,3.555999994,2,0.875,1,0,1200,978,1,1199,starving,11114 ,2019-10-22_16h03.42.502,SurveyExpMetaMem,3.2.3,Win32,60
,,,,,,,,,,,,,,,,,,,,5,7.912999868,3,2.302999973,1,0,1200,932,1,1199,bankrupt,11114 ,2019-10-22_16h03.42.502,SurveyExpMetaMem,3.2.3,Win32,60
,,,,,,,,,,,,,,,,,,,,8,4.036000013,2,1.932999849,1,0,1200,1043,1,1199,scold,11114 ,2019-10-22_16h03.42.502,SurveyExpMetaMem,3.2.3,Win32,60
,,,,,,,,,,,,,,,,,,,,8,4.667999983,1,1.125,1,0,1200,985,1,1199,pollution,11114 ,2019-10-22_16h03.42.502,SurveyExpMetaMem,3.2.3,Win32,60
,,,,,,,,,,,,,,,,,,,,5,4.049000025,5,1.118000031,1,0,1200,566,1,1199,obscure,11114 ,2019-10-22_16h03.42.502,SurveyExpMetaMem,3.2.3,Win32,60
,,,,,,,,,,,,,,,,,,,,6,2.416000128,2,0.862999916,1,0,1200,999,1,1199,burdened,11114 ,2019-10-22_16h03.42.502,SurveyExpMetaMem,3.2.3,Win32,60
,,,,,,,,,,,,,,,,,,,,8,2.724999905,1,1.241999865,1,0,1200,925,1,1199,disloyal,11114 ,2019-10-22_16h03.42.502,SurveyExpMetaMem,3.2.3,Win32,60
,,,,,,,,,,,,,,,,,,,,5,5.264999866,5,0.468999863,1,0,1200,670,1,1199,urinate,11114 ,2019-10-22_16h03.42.502,SurveyExpMetaMem,3.2.3,Win32,60
,,,,,,,,,,,,,,,,,,,,1,6.491999865,2,1.43599987,1,0,1200,546,1,1199,solemn,11114 ,2019-10-22_16h03.42.502,SurveyExpMetaMem,3.2.3,Win32,60
,,,,,,,,,,,,,,,,,,,,5,2.152999878,5,0.43900013,1,0,1200,64,1,1199,brain,11114 ,2019-10-22_16h03.42.502,SurveyExpMetaMem,3.2.3,Win32,60
,,,,,,,,,,,,,,,,,,,,5,3.244999886,1,1.062000036,1,0,1200,364,1,1199,stink,11114 ,2019-10-22_16h03.42.502,SurveyExpMetaMem,3.2.3,Win32,60
,,,,,,,,,,,,,,,,,,,,5,1.861000061,5,0.629999876,1,0,1200,531,1,1199,omit,11114 ,2019-10-22_16h03.42.502,SurveyExpMetaMem,3.2.3,Win32,60
,,,,,,,,,,,,,,,,,,,,5,4.592000008,5,0.45299983,1,0,1200,1061,1,1199,difficult,11114 ,2019-10-22_16h03.42.502,SurveyExpMetaMem,3.2.3,Win32,60
,,,,,,,,,,,,,,,,,,,,5,3.700000048,5,0.330999851,1,0,1200,177,1,1199,frosting,11114 ,2019-10-22_16h03.42.502,SurveyExpMetaMem,3.2.3,Win32,60
,,,,,,,,,,,,,,,,,,,,5,6.414000034,5,1.148000002,1,0,1200,1148,1,1199,suspicious,11114 ,2019-10-22_16h03.42.502,SurveyExpMetaMem,3.2.3,Win32,60
,,,,,,,,,,,,,,,,,,,,5,4.118999958,5,0.18599987,1,0,1200,458,1,1199,refuse,11114 ,2019-10-22_16h03.42.502,SurveyExpMetaMem,3.2.3,Win32,60
,,,,,,,,,,,,,,,,,,,,8,3.007999897,9,4.968999863,1,0,1200,244,1,1199,sexy,11114 ,2019-10-22_16h03.42.502,SurveyExpMetaMem,3.2.3,Win32,60
,,,,,,,,,,,,,,,,,,,,5,6.927999973,5,3.31400013,1,0,1200,652,1,1199,tend,11114 ,2019-10-22_16h03.42.502,SurveyExpMetaMem,3.2.3,Win32,60
,,,,,,,,,,,,,,,,,,,,2,2.986000061,8,1.866999865,1,0,1200,767,1,1199,civil,11114 ,2019-10-22_16h03.42.502,SurveyExpMetaMem,3.2.3,Win32,60
,,,,,,,,,,,,,,,,,,,,4,9.371999979,1,0.467000008,1,0,1200,478,1,1199,numb,11114 ,2019-10-22_16h03.42.502,SurveyExpMetaMem,3.2.3,Win32,60
,,,,,,,,,,,,,,,,,,,,5,3.11500001,5,0.345999956,1,0,1200,6,1,1199,chest,11114 ,2019-10-22_16h03.42.502,SurveyExpMetaMem,3.2.3,Win32,60
,,,,,,,,,,,,,,,,,,,,5,1.837999821,5,0.254999876,1,0,1200,210,1,1199,elephant,11114 ,2019-10-22_16h03.42.502,SurveyExpMetaMem,3.2.3,Win32,60
,,,,,,,,,,,,,,,,,,,,4,3.605000019,7,1.336999893,1,0,1200,887,1,1199,elegant,11114 ,2019-10-22_16h03.42.502,SurveyExpMetaMem,3.2.3,Win32,60
,,,,,,,,,,,,,,,,,,,,5,6.164999962,5,0.627999783,1,0,1200,837,1,1199,responsible,11114 ,2019-10-22_16h03.42.502,SurveyExpMetaMem,3.2.3,Win32,60
,,,,,,,,,,,,,,,,,,,,7,2.878000021,7,2.299000025,1,0,1200,230,1,1199,eager,11114 ,2019-10-22_16h03.42.502,SurveyExpMetaMem,3.2.3,Win32,60
,,,,,,,,,,,,,,,,,,,,5,2.187000036,6,1.302999973,1,0,1200,276,1,1199,pastry,11114 ,2019-10-22_16h03.42.502,SurveyExpMetaMem,3.2.3,Win32,60
,,,,,,,,,,,,,,,,,,,,8,2.496000051,2,1.980000019,1,0,1200,1099,1,1199,fire,11114 ,2019-10-22_16h03.42.502,SurveyExpMetaMem,3.2.3,Win32,60
,,,,,,,,,,,,,,,,,,,,9,2.661999941,9,0.358999968,1,0,1200,248,1,1199,win,11114 ,2019-10-22_16h03.42.502,SurveyExpMetaMem,3.2.3,Win32,60
,,,,,,,,,,,,,,,,,,,,5,2.752000093,5,0.180999994,1,0,1200,569,1,1199,onion,11114 ,2019-10-22_16h03.42.502,SurveyExpMetaMem,3.2.3,Win32,60
,,,,,,,,,,,,,,,,,,,,5,2.690999985,2,0.559999943,1,0,1200,336,1,1199,wasteful,11114 ,2019-10-22_16h03.42.502,SurveyExpMetaMem,3.2.3,Win32,60
,,,,,,,,,,,,,,,,,,,,5,2.289000034,5,0.359000206,1,0,1200,640,1,1199,cabin,11114 ,2019-10-22_16h03.42.502,SurveyExpMetaMem,3.2.3,Win32,60
,,,,,,,,,,,,,,,,,,,,5,1.193000078,5,0.313000202,1,0,1200,163,1,1199,gem,11114 ,2019-10-22_16h03.42.502,SurveyExpMetaMem,3.2.3,Win32,60
,,,,,,,,,,,,,,,,,,,,5,1.332999945,5,0.274999857,1,0,1200,602,1,1199,vegetable,11114 ,2019-10-22_16h03.42.502,SurveyExpMetaMem,3.2.3,Win32,60
,,,,,,,,,,,,,,,,,,,,5,3.29399991,5,0.271000147,1,0,1200,660,1,1199,rock,11114 ,2019-10-22_16h03.42.502,SurveyExpMetaMem,3.2.3,Win32,60
,,,,,,,,,,,,,,,,,,,,5,1.160000086,5,0.266000032,1,0,1200,1187,1,1199,drill,11114 ,2019-10-22_16h03.42.502,SurveyExpMetaMem,3.2.3,Win32,60
,,,,,,,,,,,,,,,,,,,,7,3.684999943,1,0.327000141,1,0,1200,1067,1,1199,wicked,11114 ,2019-10-22_16h03.42.502,SurveyExpMetaMem,3.2.3,Win32,60
,,,,,,,,,,,,,,,,,,,,5,5.657000065,2,1.90899992,1,0,1200,913,1,1199,ulcer,11114 ,2019-10-22_16h03.42.502,SurveyExpMetaMem,3.2.3,Win32,60
,,,,,,,,,,,,,,,,,,,,5,7.496999979,5,1.250999928,1,0,1200,814,1,1199,dress,11114 ,2019-10-22_16h03.42.502,SurveyExpMetaMem,3.2.3,Win32,60
,,,,,,,,,,,,,,,,,,,,5,3.361999989,2,0.744000196,1,0,1200,415,1,1199,grime,11114 ,2019-10-22_16h03.42.502,SurveyExpMetaMem,3.2.3,Win32,60
,,,,,,,,,,,,,,,,,,,,5,1.921000004,5,0.292000055,1,0,1200,629,1,1199,barn,11114 ,2019-10-22_16h03.42.502,SurveyExpMetaMem,3.2.3,Win32,60
,,,,,,,,,,,,,,,,,,,,6,2.451000214,9,0.546999931,1,0,1200,232,1,1199,prosper,11114 ,2019-10-22_16h03.42.502,SurveyExpMetaMem,3.2.3,Win32,60
,,,,,,,,,,,,,,,,,,,,6,7.801999807,2,4.345999956,1,0,1200,933,1,1199,afraid,11114 ,2019-10-22_16h03.42.502,SurveyExpMetaMem,3.2.3,Win32,60
,,,,,,,,,,,,,,,,,,,,7,3.93599987,2,0.935000181,1,0,1200,1050,1,1199,scorn,11114 ,2019-10-22_16h03.42.502,SurveyExpMetaMem,3.2.3,Win32,60
,,,,,,,,,,,,,,,,,,,,5,1.51699996,5,0.229000092,1,0,1200,1060,1,1199,dent,11114 ,2019-10-22_16h03.42.502,SurveyExpMetaMem,3.2.3,Win32,60
,,,,,,,,,,,,,,,,,,,,6,3.06099987,4,4.561000109,1,0,1200,1001,1,1199,rude,11114 ,2019-10-22_16h03.42.502,SurveyExpMetaMem,3.2.3,Win32,60
,,,,,,,,,,,,,,,,,,,,7,3.90199995,5,0.957999945,1,0,1200,58,1,1199,boost,11114 ,2019-10-22_16h03.42.502,SurveyExpMetaMem,3.2.3,Win32,60
,,,,,,,,,,,,,,,,,,,,3,3.375999928,8,2.440000057,1,0,1200,856,1,1199,leisurely,11114 ,2019-10-22_16h03.42.502,SurveyExpMetaMem,3.2.3,Win32,60
,,,,,,,,,,,,,,,,,,,,5,2.704999924,5,2.177000046,1,0,1200,369,1,1199,blind,11114 ,2019-10-22_16h03.42.502,SurveyExpMetaMem,3.2.3,Win32,60
,,,,,,,,,,,,,,,,,,,,6,4.575999975,5,1.154999971,1,0,1200,101,1,1199,alien,11114 ,2019-10-22_16h03.42.502,SurveyExpMetaMem,3.2.3,Win32,60
,,,,,,,,,,,,,,,,,,,,7,3.925000191,8,2.011000156,1,0,1200,40,1,1199,kissing,11114 ,2019-10-22_16h03.42.502,SurveyExpMetaMem,3.2.3,Win32,60
,,,,,,,,,,,,,,,,,,,,7,8.067000151,2,0.897000074,1,0,1200,911,1,1199,rejection,11114 ,2019-10-22_16h03.42.502,SurveyExpMetaMem,3.2.3,Win32,60
,,,,,,,,,,,,,,,,,,,,5,4.034000158,8,2.55700016,1,0,1200,37,1,1199,magnificence,11114 ,2019-10-22_16h03.42.502,SurveyExpMetaMem,3.2.3,Win32,60
,,,,,,,,,,,,,,,,,,,,5,3.669999838,5,0.322999954,1,0,1200,44,1,1199,diploma,11114 ,2019-10-22_16h03.42.502,SurveyExpMetaMem,3.2.3,Win32,60
,,,,,,,,,,,,,,,,,,,,6,5.281000137,9,0.612999916,1,0,1200,238,1,1199,sunshine,11114 ,2019-10-22_16h03.42.502,SurveyExpMetaMem,3.2.3,Win32,60
,,,,,,,,,,,,,,,,,,,,5,5.953999996,5,0.400000095,1,0,1200,105,1,1199,curious,11114 ,2019-10-22_16h03.42.502,SurveyExpMetaMem,3.2.3,Win32,60
,,,,,,,,,,,,,,,,,,,,2,4.607999802,5,1.83100009,1,0,1200,511,1,1199,slouch,11114 ,2019-10-22_16h03.42.502,SurveyExpMetaMem,3.2.3,Win32,60
,,,,,,,,,,,,,,,,,,,,5,2.845999956,3,1.064999819,1,0,1200,444,1,1199,mold,11114 ,2019-10-22_16h03.42.502,SurveyExpMetaMem,3.2.3,Win32,60
,,,,,,,,,,,,,,,,,,,,5,2.637000084,2,3.562999964,1,0,1200,300,1,1199,unhappy,11114 ,2019-10-22_16h03.42.502,SurveyExpMetaMem,3.2.3,Win32,60
,,,,,,,,,,,,,,,,,,,,5,2.951999903,4,2.042999983,1,0,1200,1076,1,1199,embarrassed,11114 ,2019-10-22_16h03.42.502,SurveyExpMetaMem,3.2.3,Win32,60
,,,,,,,,,,,,,,,,,,,,6,3.584000111,1,0.75,1,0,1200,367,1,1199,pathetic,11114 ,2019-10-22_16h03.42.502,SurveyExpMetaMem,3.2.3,Win32,60
,,,,,,,,,,,,,,,,,,,,5,1.819999933,2,0.419999838,1,0,1200,329,1,1199,worse,11114 ,2019-10-22_16h03.42.502,SurveyExpMetaMem,3.2.3,Win32,60
,,,,,,,,,,,,,,,,,,,,5,2.356999874,5,0.230000019,1,0,1200,1086,1,1199,irritate,11114 ,2019-10-22_16h03.42.502,SurveyExpMetaMem,3.2.3,Win32,60
,,,,,,,,,,,,,,,,,,,,5,3.069000006,6,0.801000118,1,0,1200,127,1,1199,glamorous,11114 ,2019-10-22_16h03.42.502,SurveyExpMetaMem,3.2.3,Win32,60
,,,,,,,,,,,,,,,,,,,,5,1.604000092,5,0.297999859,1,0,1200,844,1,1199,soul,11114 ,2019-10-22_16h03.42.502,SurveyExpMetaMem,3.2.3,Win32,60
,,,,,,,,,,,,,,,,,,,,5,2.062999964,5,0.263999939,1,0,1200,216,1,1199,vigorous,11114 ,2019-10-22_16h03.42.502,SurveyExpMetaMem,3.2.3,Win32,60
,,,,,,,,,,,,,,,,,,,,5,3.613000154,5,0.919999838,1,0,1200,595,1,1199,vacuum,11114 ,2019-10-22_16h03.42.502,SurveyExpMetaMem,3.2.3,Win32,60
,,,,,,,,,,,,,,,,,,,,6,2.116000175,2,0.900000095,1,0,1200,979,1,1199,harassment,11114 ,2019-10-22_16h03.42.502,SurveyExpMetaMem,3.2.3,Win32,60
,,,,,,,,,,,,,,,,,,,,5,3.335000038,5,0.950999975,1,0,1200,801,1,1199,noon,11114 ,2019-10-22_16h03.42.502,SurveyExpMetaMem,3.2.3,Win32,60
,,,,,,,,,,,,,,,,,,,,5,1.152999878,5,0.282000065,1,0,1200,34,1,1199,personality,11114 ,2019-10-22_16h03.42.502,SurveyExpMetaMem,3.2.3,Win32,60
,,,,,,,,,,,,,,,,,,,,7,2.717999935,5,1.444000006,1,0,1200,122,1,1199,prince,11114 ,2019-10-22_16h03.42.502,SurveyExpMetaMem,3.2.3,Win32,60
,,,,,,,,,,,,,,,,,,,,6,3.492000103,4,4.355000019,1,0,1200,1171,1,1199,chaos,11114 ,2019-10-22_16h03.42.502,SurveyExpMetaMem,3.2.3,Win32,60
,,,,,,,,,,,,,,,,,,,,5,1.927999973,5,0.29399991,1,0,1200,573,1,1199,cease,11114 ,2019-10-22_16h03.42.502,SurveyExpMetaMem,3.2.3,Win32,60
,,,,,,,,,,,,,,,,,,,,5,2.173000097,6,0.792999983,1,0,1200,744,1,1199,village,11114 ,2019-10-22_16h03.42.502,SurveyExpMetaMem,3.2.3,Win32,60
,,,,,,,,,,,,,,,,,,,,9,2.453999996,1,0.811000109,1,0,1200,901,1,1199,rape,11114 ,2019-10-22_16h03.42.502,SurveyExpMetaMem,3.2.3,Win32,60
,,,,,,,,,,,,,,,,,,,,5,9.898000002,7,1.489000082,1,0,1200,14,1,1199,attain,11114 ,2019-10-22_16h03.42.502,SurveyExpMetaMem,3.2.3,Win32,60
,,,,,,,,,,,,,,,,,,,,9,2.773999929,1,0.498000145,1,0,1200,903,1,1199,cancer,11114 ,2019-10-22_16h03.42.502,SurveyExpMetaMem,3.2.3,Win32,60
,,,,,,,,,,,,,,,,,,,,5,5.240999937,5,0.44299984,1,0,1200,693,1,1199,key,11114 ,2019-10-22_16h03.42.502,SurveyExpMetaMem,3.2.3,Win32,60
,,,,,,,,,,,,,,,,,,,,8,1.746999979,2,1.019000053,1,0,1200,1028,1,1199,terror,11114 ,2019-10-22_16h03.42.502,SurveyExpMetaMem,3.2.3,Win32,60
,,,,,,,,,,,,,,,,,,,,1,4.688999891,9,0.539000034,1,0,1200,859,1,1199,serene,11114 ,2019-10-22_16h03.42.502,SurveyExpMetaMem,3.2.3,Win32,60
,,,,,,,,,,,,,,,,,,,,5,1.73300004,5,0.275000095,1,0,1200,59,1,1199,sports,11114 ,2019-10-22_16h03.42.502,SurveyExpMetaMem,3.2.3,Win32,60
,,,,,,,,,,,,,,,,,,,,5,2.085000038,5,0.501999855,1,0,1200,881,1,1199,protected,11114 ,2019-10-22_16h03.42.502,SurveyExpMetaMem,3.2.3,Win32,60
,,,,,,,,,,,,,,,,,,,,6,4.249000072,2,0.57799983,1,0,1200,1149,1,1199,fight,11114 ,2019-10-22_16h03.42.502,SurveyExpMetaMem,3.2.3,Win32,60
,,,,,,,,,,,,,,,,,,,,5,2.713000059,5,0.287999868,1,0,1200,159,1,1199,teenager,11114 ,2019-10-22_16h03.42.502,SurveyExpMetaMem,3.2.3,Win32,60
,,,,,,,,,,,,,,,,,,,,5,2.309999943,3,0.236999989,1,0,1200,333,1,1199,weak,11114 ,2019-10-22_16h03.42.502,SurveyExpMetaMem,3.2.3,Win32,60
,,,,,,,,,,,,,,,,,,,,5,1.050000191,5,0.223999977,1,0,1200,63,1,1199,clothes,11114 ,2019-10-22_16h03.42.502,SurveyExpMetaMem,3.2.3,Win32,60
,,,,,,,,,,,,,,,,,,,,5,2.121000051,5,0.289000034,1,0,1200,486,1,1199,fool,11114 ,2019-10-22_16h03.42.502,SurveyExpMetaMem,3.2.3,Win32,60
,,,,,,,,,,,,,,,,,,,,8,5.529999971,2,0.20600009,1,0,1200,926,1,1199,dead,11114 ,2019-10-22_16h03.42.502,SurveyExpMetaMem,3.2.3,Win32,60
,,,,,,,,,,,,,,,,,,,,6,2.152000189,4,1.620000124,1,0,1200,317,1,1199,cry,11114 ,2019-10-22_16h03.42.502,SurveyExpMetaMem,3.2.3,Win32,60
,,,,,,,,,,,,,,,,,,,,6,3.974000216,2,0.263000011,1,0,1200,1029,1,1199,abduction,11114 ,2019-10-22_16h03.42.502,SurveyExpMetaMem,3.2.3,Win32,60
,,,,,,,,,,,,,,,,,,,,6,4.481999874,6,1.39199996,1,0,1200,256,1,1199,galaxy,11114 ,2019-10-22_16h03.42.502,SurveyExpMetaMem,3.2.3,Win32,60
,,,,,,,,,,,,,,,,,,,,5,3.760999918,3,0.267999887,1,0,1200,1020,1,1199,malice,11114 ,2019-10-22_16h03.42.502,SurveyExpMetaMem,3.2.3,Win32,60
,,,,,,,,,,,,,,,,,,,,5,4.307999849,7,0.464999914,1,0,1200,183,1,1199,congratulate,11114 ,2019-10-22_16h03.42.502,SurveyExpMetaMem,3.2.3,Win32,60
,,,,,,,,,,,,,,,,,,,,6,3.715000153,3,0.273999929,1,0,1200,435,1,1199,grovel,11114 ,2019-10-22_16h03.42.502,SurveyExpMetaMem,3.2.3,Win32,60
,,,,,,,,,,,,,,,,,,,,5,2.566999912,5,0.278999805,1,0,1200,719,1,1199,western,11114 ,2019-10-22_16h03.42.502,SurveyExpMetaMem,3.2.3,Win32,60
,,,,,,,,,,,,,,,,,,,,5,3.957000017,5,0.217000008,1,0,1200,408,1,1199,bore,11114 ,2019-10-22_16h03.42.502,SurveyExpMetaMem,3.2.3,Win32,60
,,,,,,,,,,,,,,,,,,,,5,4.255000114,5,0.185000181,1,0,1200,679,1,1199,yellow,11114 ,2019-10-22_16h03.42.502,SurveyExpMetaMem,3.2.3,Win32,60
,,,,,,,,,,,,,,,,,,,,6,4.50999999,4,1.303999901,1,0,1200,982,1,1199,robbery,11114 ,2019-10-22_16h03.42.502,SurveyExpMetaMem,3.2.3,Win32,60
,,,,,,,,,,,,,,,,,,,,5,2.919999838,6,0.513000011,1,0,1200,763,1,1199,vegetables,11114 ,2019-10-22_16h03.42.502,SurveyExpMetaMem,3.2.3,Win32,60
,,,,,,,,,,,,,,,,,,,,6,2.615999937,3,6.67200017,1,0,1200,990,1,1199,enraged,11114 ,2019-10-22_16h03.42.502,SurveyExpMetaMem,3.2.3,Win32,60
,,,,,,,,,,,,,,,,,,,,7,2.207999945,1,1.739000082,1,0,1200,1033,1,1199,horror,11114 ,2019-10-22_16h03.42.502,SurveyExpMetaMem,3.2.3,Win32,60
,,,,,,,,,,,,,,,,,,,,5,2.893000126,5,0.24000001,1,0,1200,1074,1,1199,detain,11114 ,2019-10-22_16h03.42.502,SurveyExpMetaMem,3.2.3,Win32,60
,,,,,,,,,,,,,,,,,,,,5,2.022000074,5,0.40199995,1,0,1200,424,1,1199,fault,11114 ,2019-10-22_16h03.42.502,SurveyExpMetaMem,3.2.3,Win32,60
,,,,,,,,,,,,,,,,,,,,6,15.12399983,6,0.388000011,1,0,1200,117,1,1199,powerful,11114 ,2019-10-22_16h03.42.502,SurveyExpMetaMem,3.2.3,Win32,60
,,,,,,,,,,,,,,,,,,,,3,5.58100009,6,1.35800004,1,0,1200,718,1,1199,flow,11114 ,2019-10-22_16h03.42.502,SurveyExpMetaMem,3.2.3,Win32,60
,,,,,,,,,,,,,,,,,,,,5,1.894000053,5,0.161000013,1,0,1200,393,1,1199,droop,11114 ,2019-10-22_16h03.42.502,SurveyExpMetaMem,3.2.3,Win32,60
,,,,,,,,,,,,,,,,,,,,5,4.656000137,3,0.663000107,1,0,1200,323,1,1199,ungrateful,11114 ,2019-10-22_16h03.42.502,SurveyExpMetaMem,3.2.3,Win32,60
,,,,,,,,,,,,,,,,,,,,6,2.660000086,5,2.572999954,1,0,1200,1182,1,1199,pierce,11114 ,2019-10-22_16h03.42.502,SurveyExpMetaMem,3.2.3,Win32,60
,,,,,,,,,,,,,,,,,,,,5,2.713000059,5,0.329999924,1,0,1200,607,1,1199,greyhound,11114 ,2019-10-22_16h03.42.502,SurveyExpMetaMem,3.2.3,Win32,60
,,,,,,,,,,,,,,,,,,,,5,4.57400012,5,0.194999933,1,0,1200,85,1,1199,like,11114 ,2019-10-22_16h03.42.502,SurveyExpMetaMem,3.2.3,Win32,60
,,,,,,,,,,,,,,,,,,,,5,2.378999949,5,0.187999964,1,0,1200,662,1,1199,bib,11114 ,2019-10-22_16h03.42.502,SurveyExpMetaMem,3.2.3,Win32,60
,,,,,,,,,,,,,,,,,,,,5,1.051000118,5,0.332000017,1,0,1200,686,1,1199,phone,11114 ,2019-10-22_16h03.42.502,SurveyExpMetaMem,3.2.3,Win32,60
,,,,,,,,,,,,,,,,,,,,5,1.247999907,5,0.27699995,1,0,1200,672,1,1199,ketchup,11114 ,2019-10-22_16h03.42.502,SurveyExpMetaMem,3.2.3,Win32,60
,,,,,,,,,,,,,,,,,,,,5,6.698999882,5,0.268999815,1,0,1200,391,1,1199,detach,11114 ,2019-10-22_16h03.42.502,SurveyExpMetaMem,3.2.3,Win32,60
,,,,,,,,,,,,,,,,,,,,7,2.790999889,7,0.322999954,1,0,1200,36,1,1199,puppy,11114 ,2019-10-22_16h03.42.502,SurveyExpMetaMem,3.2.3,Win32,60
,,,,,,,,,,,,,,,,,,,,5,2.989000082,4,0.393000126,1,0,1200,1126,1,1199,offensive,11114 ,2019-10-22_16h03.42.502,SurveyExpMetaMem,3.2.3,Win32,60
,,,,,,,,,,,,,,,,,,,,3,4.236999989,5,0.378000021,1,0,1200,488,1,1199,rusty,11114 ,2019-10-22_16h03.42.502,SurveyExpMetaMem,3.2.3,Win32,60
,,,,,,,,,,,,,,,,,,,,6,4.667999983,5,2.450999975,1,0,1200,431,1,1199,itch,11114 ,2019-10-22_16h03.42.502,SurveyExpMetaMem,3.2.3,Win32,60
,,,,,,,,,,,,,,,,,,,,5,2.174000025,5,0.286999941,1,0,1200,614,1,1199,crossword,11114 ,2019-10-22_16h03.42.502,SurveyExpMetaMem,3.2.3,Win32,60
,,,,,,,,,,,,,,,,,,,,5,4.446999788,5,0.22300005,1,0,1200,3,1,1199,nudist,11114 ,2019-10-22_16h03.42.502,SurveyExpMetaMem,3.2.3,Win32,60
,,,,,,,,,,,,,,,,,,,,7,3.856999874,2,1.838999987,1,0,1200,915,1,1199,abuse,11114 ,2019-10-22_16h03.42.502,SurveyExpMetaMem,3.2.3,Win32,60
,,,,,,,,,,,,,,,,,,,,5,3.363999844,5,0.272000074,1,0,1200,740,1,1199,groceries,11114 ,2019-10-22_16h03.42.502,SurveyExpMetaMem,3.2.3,Win32,60
,,,,,,,,,,,,,,,,,,,,5,1.143000126,5,0.203000069,1,0,1200,527,1,1199,passive,11114 ,2019-10-22_16h03.42.502,SurveyExpMetaMem,3.2.3,Win32,60
,,,,,,,,,,,,,,,,,,,,5,4.146999836,5,0.180999994,1,0,1200,734,1,1199,piano,11114 ,2019-10-22_16h03.42.502,SurveyExpMetaMem,3.2.3,Win32,60
,,,,,,,,,,,,,,,,,,,,6,4.317000151,4,0.90199995,1,0,1200,318,1,1199,disappointment,11114 ,2019-10-22_16h03.42.502,SurveyExpMetaMem,3.2.3,Win32,60
,,,,,,,,,,,,,,,,,,,,5,4.20600009,5,0.407999992,1,0,1200,587,1,1199,dissolve,11114 ,2019-10-22_16h03.42.502,SurveyExpMetaMem,3.2.3,Win32,60
,,,,,,,,,,,,,,,,,,,,5,5.796000004,5,0.243999958,1,0,1200,1112,1,1199,pressure,11114 ,2019-10-22_16h03.42.502,SurveyExpMetaMem,3.2.3,Win32,60
,,,,,,,,,,,,,,,,,,,,8,7.77699995,5,1.174000025,1,0,1200,250,1,1199,erupt,11114 ,2019-10-22_16h03.42.502,SurveyExpMetaMem,3.2.3,Win32,60
,,,,,,,,,,,,,,,,,,,,5,2.203000069,5,0.284000158,1,0,1200,134,1,1199,dollar,11114 ,2019-10-22_16h03.42.502,SurveyExpMetaMem,3.2.3,Win32,60
,,,,,,,,,,,,,,,,,,,,5,1.78000021,4,0.187999964,1,0,1200,1083,1,1199,delayed,11114 ,2019-10-22_16h03.42.502,SurveyExpMetaMem,3.2.3,Win32,60
,,,,,,,,,,,,,,,,,,,,5,1.615999937,6,0.17599988,1,0,1200,746,1,1199,proper,11114 ,2019-10-22_16h03.42.502,SurveyExpMetaMem,3.2.3,Win32,60
,,,,,,,,,,,,,,,,,,,,5,6.409000158,1,0.263000011,1,0,1200,304,1,1199,depression,11114 ,2019-10-22_16h03.42.502,SurveyExpMetaMem,3.2.3,Win32,60
,,,,,,,,,,,,,,,,,,,,2,3.868000031,5,0.232000113,1,0,1200,513,1,1199,bland,11114 ,2019-10-22_16h03.42.502,SurveyExpMetaMem,3.2.3,Win32,60
,,,,,,,,,,,,,,,,,,,,5,8.832999945,5,2.904999971,1,0,1200,880,1,1199,security,11114 ,2019-10-22_16h03.42.502,SurveyExpMetaMem,3.2.3,Win32,60
,,,,,,,,,,,,,,,,,,,,6,2.549999952,4,1.637000084,1,0,1200,1193,1,1199,damn,11114 ,2019-10-22_16h03.42.502,SurveyExpMetaMem,3.2.3,Win32,60
,,,,,,,,,,,,,,,,,,,,8,3.861999989,4,0.265000105,1,0,1200,269,1,1199,extravagant,11114 ,2019-10-22_16h03.42.502,SurveyExpMetaMem,3.2.3,Win32,60
,,,,,,,,,,,,,,,,,,,,5,8.112999916,5,0.319000006,1,0,1200,858,1,1199,donate,11114 ,2019-10-22_16h03.42.502,SurveyExpMetaMem,3.2.3,Win32,60
,,,,,,,,,,,,,,,,,,,,5,2.410000086,5,0.450000048,1,0,1200,581,1,1199,dork,11114 ,2019-10-22_16h03.42.502,SurveyExpMetaMem,3.2.3,Win32,60
,,,,,,,,,,,,,,,,,,,,8,3.924000025,2,0.756000042,1,0,1200,1009,1,1199,frightened,11114 ,2019-10-22_16h03.42.502,SurveyExpMetaMem,3.2.3,Win32,60
,,,,,,,,,,,,,,,,,,,,5,1.757999897,5,0.490999937,1,0,1200,1088,1,1199,forbid,11114 ,2019-10-22_16h03.42.502,SurveyExpMetaMem,3.2.3,Win32,60
,,,,,,,,,,,,,,,,,,,,5,4.84100008,5,0.404999971,1,0,1200,31,1,1199,brownie,11114 ,2019-10-22_16h03.42.502,SurveyExpMetaMem,3.2.3,Win32,60
,,,,,,,,,,,,,,,,,,,,6,1.625999928,4,1.07400012,1,0,1200,986,1,1199,mad,11114 ,2019-10-22_16h03.42.502,SurveyExpMetaMem,3.2.3,Win32,60
,,,,,,,,,,,,,,,,,,,,5,3.992000103,5,0.289999962,1,0,1200,764,1,1199,coin,11114 ,2019-10-22_16h03.42.502,SurveyExpMetaMem,3.2.3,Win32,60
,,,,,,,,,,,,,,,,,,,,6,1.838999987,6,0.220000029,1,0,1200,231,1,1199,cherish,11114 ,2019-10-22_16h03.42.502,SurveyExpMetaMem,3.2.3,Win32,60
,,,,,,,,,,,,,,,,,,,,5,1.669999838,5,0.203999996,1,0,1200,630,1,1199,website,11114 ,2019-10-22_16h03.42.502,SurveyExpMetaMem,3.2.3,Win32,60
,,,,,,,,,,,,,,,,,,,,5,3.220999956,5,0.167999983,1,0,1200,277,1,1199,cupcake,11114 ,2019-10-22_16h03.42.502,SurveyExpMetaMem,3.2.3,Win32,60
,,,,,,,,,,,,,,,,,,,,6,2.343999863,4,0.131999969,1,0,1200,1062,1,1199,shoplifter,11114 ,2019-10-22_16h03.42.502,SurveyExpMetaMem,3.2.3,Win32,60
,,,,,,,,,,,,,,,,,,,,7,2.697000027,4,0.25999999,1,0,1200,1000,1,1199,threat,11114 ,2019-10-22_16h03.42.502,SurveyExpMetaMem,3.2.3,Win32,60
,,,,,,,,,,,,,,,,,,,,8,3.254000187,1,0.389000177,1,0,1200,917,1,1199,slave,11114 ,2019-10-22_16h03.42.502,SurveyExpMetaMem,3.2.3,Win32,60
,,,,,,,,,,,,,,,,,,,,3,6.820000172,7,0.982999802,1,0,1200,853,1,1199,breeze,11114 ,2019-10-22_16h03.42.502,SurveyExpMetaMem,3.2.3,Win32,60
,,,,,,,,,,,,,,,,,,,,5,2.111999989,5,0.44900012,1,0,1200,938,1,1199,seasick,11114 ,2019-10-22_16h03.42.502,SurveyExpMetaMem,3.2.3,Win32,60
,,,,,,,,,,,,,,,,,,,,5,2.511000156,4,0.222000122,1,0,1200,311,1,1199,discomfort,11114 ,2019-10-22_16h03.42.502,SurveyExpMetaMem,3.2.3,Win32,60
,,,,,,,,,,,,,,,,,,,,5,5.602999926,6,0.154999971,1,0,1200,73,1,1199,rhythm,11114 ,2019-10-22_16h03.42.502,SurveyExpMetaMem,3.2.3,Win32,60
,,,,,,,,,,,,,,,,,,,,4,4.575999975,6,0.325999975,1,0,1200,825,1,1199,swan,11114 ,2019-10-22_16h03.42.502,SurveyExpMetaMem,3.2.3,Win32,60
,,,,,,,,,,,,,,,,,,,,7,3.610000134,7,1.236999989,1,0,1200,49,1,1199,ecstatic,11114 ,2019-10-22_16h03.42.502,SurveyExpMetaMem,3.2.3,Win32,60
,,,,,,,,,,,,,,,,,,,,5,3.177000046,5,0.177999973,1,0,1200,52,1,1199,dare,11114 ,2019-10-22_16h03.42.502,SurveyExpMetaMem,3.2.3,Win32,60
,,,,,,,,,,,,,,,,,,,,5,1.390000105,5,0.173000097,1,0,1200,450,1,1199,overcast,11114 ,2019-10-22_16h03.42.502,SurveyExpMetaMem,3.2.3,Win32,60
,,,,,,,,,,,,,,,,,,,,5,0.970000029,5,0.146999836,1,0,1200,747,1,1199,furniture,11114 ,2019-10-22_16h03.42.502,SurveyExpMetaMem,3.2.3,Win32,60
,,,,,,,,,,,,,,,,,,,,5,3.226999998,4,0.176999807,1,0,1200,423,1,1199,stain,11114 ,2019-10-22_16h03.42.502,SurveyExpMetaMem,3.2.3,Win32,60
,,,,,,,,,,,,,,,,,,,,5,2.99000001,5,0.236000061,1,0,1200,360,1,1199,dandruff,11114 ,2019-10-22_16h03.42.502,SurveyExpMetaMem,3.2.3,Win32,60
,,,,,,,,,,,,,,,,,,,,6,3.234000206,6,0.154000044,1,0,1200,249,1,1199,award,11114 ,2019-10-22_16h03.42.502,SurveyExpMetaMem,3.2.3,Win32,60
,,,,,,,,,,,,,,,,,,,,5,2.157999992,4,0.187000036,1,0,1200,439,1,1199,spit,11114 ,2019-10-22_16h03.42.502,SurveyExpMetaMem,3.2.3,Win32,60
,,,,,,,,,,,,,,,,,,,,4,3.23300004,5,0.220999956,1,0,1200,597,1,1199,drool,11114 ,2019-10-22_16h03.42.502,SurveyExpMetaMem,3.2.3,Win32,60
,,,,,,,,,,,,,,,,,,,,5,4.694000006,6,0.18900013,1,0,1200,729,1,1199,velvet,11114 ,2019-10-22_16h03.42.502,SurveyExpMetaMem,3.2.3,Win32,60
,,,,,,,,,,,,,,,,,,,,5,0.869999886,5,0.1650002,1,0,1200,136,1,1199,dog,11114 ,2019-10-22_16h03.42.502,SurveyExpMetaMem,3.2.3,Win32,60
,,,,,,,,,,,,,,,,,,,,5,17.04100013,5,0.157999992,1,0,1200,799,1,1199,precise,11114 ,2019-10-22_16h03.42.502,SurveyExpMetaMem,3.2.3,Win32,60
,,,,,,,,,,,,,,,,,,,,5,2.118999958,4,2.157000065,1,0,1200,935,1,1199,despise,11114 ,2019-10-22_16h03.42.502,SurveyExpMetaMem,3.2.3,Win32,60
,,,,,,,,,,,,,,,,,,,,5,1.397999763,5,0.742000103,1,0,1200,804,1,1199,peach,11114 ,2019-10-22_16h03.42.502,SurveyExpMetaMem,3.2.3,Win32,60
,,,,,,,,,,,,,,,,,,,,5,1,5,0.722999811,1,0,1200,658,1,1199,method,11114 ,2019-10-22_16h03.42.502,SurveyExpMetaMem,3.2.3,Win32,60
,,,,,,,,,,,,,,,,,,,,4,2.493000031,4,0.203000069,1,0,1200,361,1,1199,glum,11114 ,2019-10-22_16h03.42.502,SurveyExpMetaMem,3.2.3,Win32,60
,,,,,,,,,,,,,,,,,,,,5,2.176999807,6,0.207999945,1,0,1200,272,1,1199,confidence,11114 ,2019-10-22_16h03.42.502,SurveyExpMetaMem,3.2.3,Win32,60
,,,,,,,,,,,,,,,,,,,,3,4.480000019,5,0.288999796,1,0,1200,200,1,1199,preach,11114 ,2019-10-22_16h03.42.502,SurveyExpMetaMem,3.2.3,Win32,60
,,,,,,,,,,,,,,,,,,,,5,1.868999958,5,0.297999859,1,0,1200,842,1,1199,breathe,11114 ,2019-10-22_16h03.42.502,SurveyExpMetaMem,3.2.3,Win32,60
,,,,,,,,,,,,,,,,,,,,5,8.365999937,5,0.710999966,1,0,1200,564,1,1199,wane,11114 ,2019-10-22_16h03.42.502,SurveyExpMetaMem,3.2.3,Win32,60
,,,,,,,,,,,,,,,,,,,,5,1.001999855,5,0.332999945,1,0,1200,84,1,1199,eat,11114 ,2019-10-22_16h03.42.502,SurveyExpMetaMem,3.2.3,Win32,60
,,,,,,,,,,,,,,,,,,,,2,6.954999924,9,0.726000071,1,0,1200,899,1,1199,relax,11114 ,2019-10-22_16h03.42.502,SurveyExpMetaMem,3.2.3,Win32,60
,,,,,,,,,,,,,,,,,,,,7,7.914000034,4,1.233999968,1,0,1200,1144,1,1199,yelp,11114 ,2019-10-22_16h03.42.502,SurveyExpMetaMem,3.2.3,Win32,60
,,,,,,,,,,,,,,,,,,,,7,2.104999781,7,1.328000069,1,0,1200,233,1,1199,exhilaration,11114 ,2019-10-22_16h03.42.502,SurveyExpMetaMem,3.2.3,Win32,60
,,,,,,,,,,,,,,,,,,,,7,2.309999943,7,0.30099988,1,0,1200,187,1,1199,excite,11114 ,2019-10-22_16h03.42.502,SurveyExpMetaMem,3.2.3,Win32,60
,,,,,,,,,,,,,,,,,,,,6,2.769000053,4,0.263999939,1,0,1200,1121,1,1199,ban,11114 ,2019-10-22_16h03.42.502,SurveyExpMetaMem,3.2.3,Win32,60
,,,,,,,,,,,,,,,,,,,,5,2.332000017,5,0.31400013,1,0,1200,557,1,1199,class,11114 ,2019-10-22_16h03.42.502,SurveyExpMetaMem,3.2.3,Win32,60
,,,,,,,,,,,,,,,,,,,,6,2.820000172,5,0.296000004,1,0,1200,100,1,1199,intense,11114 ,2019-10-22_16h03.42.502,SurveyExpMetaMem,3.2.3,Win32,60
,,,,,,,,,,,,,,,,,,,,6,5.234999895,4,0.253999949,1,0,1200,1015,1,1199,frighten,11114 ,2019-10-22_16h03.42.502,SurveyExpMetaMem,3.2.3,Win32,60
,,,,,,,,,,,,,,,,,,,,4,6.924000025,4,0.20600009,1,0,1200,947,1,1199,shame,11114 ,2019-10-22_16h03.42.502,SurveyExpMetaMem,3.2.3,Win32,60
,,,,,,,,,,,,,,,,,,,,5,2.386000156,5,0.244000196,1,0,1200,651,1,1199,bathroom,11114 ,2019-10-22_16h03.42.502,SurveyExpMetaMem,3.2.3,Win32,60
,,,,,,,,,,,,,,,,,,,,4,1.941999912,4,0.226999998,1,0,1200,306,1,1199,gloom,11114 ,2019-10-22_16h03.42.502,SurveyExpMetaMem,3.2.3,Win32,60
,,,,,,,,,,,,,,,,,,,,6,1.930000067,6,0.168000221,1,0,1200,99,1,1199,funny,11114 ,2019-10-22_16h03.42.502,SurveyExpMetaMem,3.2.3,Win32,60
,,,,,,,,,,,,,,,,,,,,5,1.354000092,5,0.154999971,1,0,1200,585,1,1199,tatter,11114 ,2019-10-22_16h03.42.502,SurveyExpMetaMem,3.2.3,Win32,60
,,,,,,,,,,,,,,,,,,,,6,2.779000044,4,0.195999861,1,0,1200,354,1,1199,cowardice,11114 ,2019-10-22_16h03.42.502,SurveyExpMetaMem,3.2.3,Win32,60
,,,,,,,,,,,,,,,,,,,,6,3.713999987,6,0.139999866,1,0,1200,234,1,1199,redeem,11114 ,2019-10-22_16h03.42.502,SurveyExpMetaMem,3.2.3,Win32,60
,,,,,,,,,,,,,,,,,,,,7,5.667000055,5,0.226000071,1,0,1200,1163,1,1199,python,11114 ,2019-10-22_16h03.42.502,SurveyExpMetaMem,3.2.3,Win32,60
,,,,,,,,,,,,,,,,,,,,7,4.88499999,8,0.269999981,1,0,1200,160,1,1199,reunion,11114 ,2019-10-22_16h03.42.502,SurveyExpMetaMem,3.2.3,Win32,60
,,,,,,,,,,,,,,,,,,,,5,2.582999945,5,0.875999928,1,0,1200,702,1,1199,den,11114 ,2019-10-22_16h03.42.502,SurveyExpMetaMem,3.2.3,Win32,60
,,,,,,,,,,,,,,,,,,,,8,10.04299998,3,1.190999985,1,0,1200,1130,1,1199,slut,11114 ,2019-10-22_16h03.42.502,SurveyExpMetaMem,3.2.3,Win32,60
,,,,,,,,,,,,,,,,,,,,5,7.483999968,5,0.531000137,1,0,1200,589,1,1199,coarse,11114 ,2019-10-22_16h03.42.502,SurveyExpMetaMem,3.2.3,Win32,60
,,,,,,,,,,,,,,,,,,,,4,3.230000019,4,0.629000187,1,0,1200,414,1,1199,pity,11114 ,2019-10-22_16h03.42.502,SurveyExpMetaMem,3.2.3,Win32,60
,,,,,,,,,,,,,,,,,,,,5,4.370000124,6,0.213999987,1,0,1200,25,1,1199,charisma,11114 ,2019-10-22_16h03.42.502,SurveyExpMetaMem,3.2.3,Win32,60
,,,,,,,,,,,,,,,,,,,,6,4.161000013,4,0.427000046,1,0,1200,1055,1,1199,alarm,11114 ,2019-10-22_16h03.42.502,SurveyExpMetaMem,3.2.3,Win32,60
,,,,,,,,,,,,,,,,,,,,5,4.180999994,5,0.159000158,1,0,1200,957,1,1199,debt,11114 ,2019-10-22_16h03.42.502,SurveyExpMetaMem,3.2.3,Win32,60
,,,,,,,,,,,,,,,,,,,,5,16.45700002,5,0.161999941,1,0,1200,1075,1,1199,apprehension,11114 ,2019-10-22_16h03.42.502,SurveyExpMetaMem,3.2.3,Win32,60
,,,,,,,,,,,,,,,,,,,,4,3.22300005,4,0.148000002,1,0,1200,315,1,1199,zit,11114 ,2019-10-22_16h03.42.502,SurveyExpMetaMem,3.2.3,Win32,60
,,,,,,,,,,,,,,,,,,,,5,5.583999872,4,0.299999952,1,0,1200,1046,1,1199,unsafe,11114 ,2019-10-22_16h03.42.502,SurveyExpMetaMem,3.2.3,Win32,60
,,,,,,,,,,,,,,,,,,,,9,2.445999861,4,4.977999926,1,0,1200,1102,1,1199,nuclear,11114 ,2019-10-22_16h03.42.502,SurveyExpMetaMem,3.2.3,Win32,60
,,,,,,,,,,,,,,,,,,,,5,4.30099988,4,1.235000134,1,0,1200,1172,1,1199,overwhelmed,11114 ,2019-10-22_16h03.42.502,SurveyExpMetaMem,3.2.3,Win32,60
,,,,,,,,,,,,,,,,,,,,4,6.170000076,6,0.934999943,1,0,1200,731,1,1199,decency,11114 ,2019-10-22_16h03.42.502,SurveyExpMetaMem,3.2.3,Win32,60
,,,,,,,,,,,,,,,,,,,,4,4.633000135,5,0.154999971,1,0,1200,568,1,1199,therapy,11114 ,2019-10-22_16h03.42.502,SurveyExpMetaMem,3.2.3,Win32,60
,,,,,,,,,,,,,,,,,,,,6,4.22300005,6,0.427000046,1,0,1200,92,1,1199,justice,11114 ,2019-10-22_16h03.42.502,SurveyExpMetaMem,3.2.3,Win32,60
,,,,,,,,,,,,,,,,,,,,5,2.164999962,5,0.230000019,1,0,1200,1190,1,1199,clench,11114 ,2019-10-22_16h03.42.502,SurveyExpMetaMem,3.2.3,Win32,60
,,,,,,,,,,,,,,,,,,,,6,2.867999792,4,0.15899992,1,0,1200,1008,1,1199,gang,11114 ,2019-10-22_16h03.42.502,SurveyExpMetaMem,3.2.3,Win32,60
,,,,,,,,,,,,,,,,,,,,5,6.082000017,7,0.845000029,1,0,1200,875,1,1199,fluffy,11114 ,2019-10-22_16h03.42.502,SurveyExpMetaMem,3.2.3,Win32,60
,,,,,,,,,,,,,,,,,,,,7,1.52699995,7,0.404000044,1,0,1200,295,1,1199,passion,11114 ,2019-10-22_16h03.42.502,SurveyExpMetaMem,3.2.3,Win32,60
,,,,,,,,,,,,,,,,,,,,4,4.779999971,5,2.0400002,1,0,1200,675,1,1199,golfer,11114 ,2019-10-22_16h03.42.502,SurveyExpMetaMem,3.2.3,Win32,60
,,,,,,,,,,,,,,,,,,,,4,4.81799984,5,0.998000145,1,0,1200,854,1,1199,river,11114 ,2019-10-22_16h03.42.502,SurveyExpMetaMem,3.2.3,Win32,60
,,,,,,,,,,,,,,,,,,,,3,2.878999949,5,0.263000011,1,0,1200,1180,1,1199,heat,11114 ,2019-10-22_16h03.42.502,SurveyExpMetaMem,3.2.3,Win32,60
,,,,,,,,,,,,,,,,,,,,5,3.475999832,5,1.325999975,1,0,1200,373,1,1199,ignorance,11114 ,2019-10-22_16h03.42.502,SurveyExpMetaMem,3.2.3,Win32,60
,,,,,,,,,,,,,,,,,,,,5,2.72300005,5,0.256999969,1,0,1200,212,1,1199,belief,11114 ,2019-10-22_16h03.42.502,SurveyExpMetaMem,3.2.3,Win32,60
,,,,,,,,,,,,,,,,,,,,5,4.121999979,5,0.218000174,1,0,1200,709,1,1199,ancestor,11114 ,2019-10-22_16h03.42.502,SurveyExpMetaMem,3.2.3,Win32,60
,,,,,,,,,,,,,,,,,,,,5,2.234000206,5,0.204999924,1,0,1200,1199,1,1199,expensive,11114 ,2019-10-22_16h03.42.502,SurveyExpMetaMem,3.2.3,Win32,60
,,,,,,,,,,,,,,,,,,,,6,2.322999954,7,0.40899992,1,0,1200,124,1,1199,honeymoon,11114 ,2019-10-22_16h03.42.502,SurveyExpMetaMem,3.2.3,Win32,60
,,,,,,,,,,,,,,,,,,,,5,3.436000109,5,0.30099988,1,0,1200,1129,1,1199,spanking,11114 ,2019-10-22_16h03.42.502,SurveyExpMetaMem,3.2.3,Win32,60
,,,,,,,,,,,,,,,,,,,,6,3.629999876,4,1.085999966,1,0,1200,939,1,1199,vomit,11114 ,2019-10-22_16h03.42.502,SurveyExpMetaMem,3.2.3,Win32,60
,,,,,,,,,,,,,,,,,,,,6,4.756999969,7,2.157000065,1,0,1200,895,1,1199,peace,11114 ,2019-10-22_16h03.42.502,SurveyExpMetaMem,3.2.3,Win32,60
,,,,,,,,,,,,,,,,,,,,5,1.588999987,5,0.230999947,1,0,1200,588,1,1199,bandage,11114 ,2019-10-22_16h03.42.502,SurveyExpMetaMem,3.2.3,Win32,60
,,,,,,,,,,,,,,,,,,,,5,3.196999788,5,0.174999952,1,0,1200,631,1,1199,delicate,11114 ,2019-10-22_16h03.42.502,SurveyExpMetaMem,3.2.3,Win32,60
,,,,,,,,,,,,,,,,,,,,5,2.125999928,4,0.246999979,1,0,1200,301,1,1199,sad,11114 ,2019-10-22_16h03.42.502,SurveyExpMetaMem,3.2.3,Win32,60
,,,,,,,,,,,,,,,,,,,,5,1.114000082,6,0.174000025,1,0,1200,871,1,1199,comfort,11114 ,2019-10-22_16h03.42.502,SurveyExpMetaMem,3.2.3,Win32,60
,,,,,,,,,,,,,,,,,,,,5,1.157999992,5,0.138999939,1,0,1200,780,1,1199,grass,11114 ,2019-10-22_16h03.42.502,SurveyExpMetaMem,3.2.3,Win32,60
,,,,,,,,,,,,,,,,,,,,5,3.403000116,6,0.255000114,1,0,1200,811,1,1199,tenderness,11114 ,2019-10-22_16h03.42.502,SurveyExpMetaMem,3.2.3,Win32,60
,,,,,,,,,,,,,,,,,,,,6,2.370000124,4,0.231999874,1,0,1200,338,1,1199,obesity,11114 ,2019-10-22_16h03.42.502,SurveyExpMetaMem,3.2.3,Win32,60
,,,,,,,,,,,,,,,,,,,,5,3.063999891,5,0.162000179,1,0,1200,975,1,1199,insecure,11114 ,2019-10-22_16h03.42.502,SurveyExpMetaMem,3.2.3,Win32,60
,,,,,,,,,,,,,,,,,,,,5,1.730999947,6,0.20600009,1,0,1200,608,1,1199,carrot,11114 ,2019-10-22_16h03.42.502,SurveyExpMetaMem,3.2.3,Win32,60
,,,,,,,,,,,,,,,,,,,,5,2.470000029,4,0.209000111,1,0,1200,502,1,1199,crap,11114 ,2019-10-22_16h03.42.502,SurveyExpMetaMem,3.2.3,Win32,60
,,,,,,,,,,,,,,,,,,,,5,1.669000149,5,0.141000032,1,0,1200,784,1,1199,logical,11114 ,2019-10-22_16h03.42.502,SurveyExpMetaMem,3.2.3,Win32,60
,,,,,,,,,,,,,,,,,,,,6,3.888999939,4,0.279999971,1,0,1200,916,1,1199,starvation,11114 ,2019-10-22_16h03.42.502,SurveyExpMetaMem,3.2.3,Win32,60
,,,,,,,,,,,,,,,,,,,,3,7.77699995,5,0.98300004,1,0,1200,274,1,1199,song,11114 ,2019-10-22_16h03.42.502,SurveyExpMetaMem,3.2.3,Win32,60
,,,,,,,,,,,,,,,,,,,,5,2.269999981,5,0.169999838,1,0,1200,674,1,1199,fitting,11114 ,2019-10-22_16h03.42.502,SurveyExpMetaMem,3.2.3,Win32,60
,,,,,,,,,,,,,,,,,,,,5,1.665999889,4,0.138000011,1,0,1200,371,1,1199,weakness,11114 ,2019-10-22_16h03.42.502,SurveyExpMetaMem,3.2.3,Win32,60
,,,,,,,,,,,,,,,,,,,,5,1.130000114,6,0.167000055,1,0,1200,898,1,1199,kindness,11114 ,2019-10-22_16h03.42.502,SurveyExpMetaMem,3.2.3,Win32,60
,,,,,,,,,,,,,,,,,,,,5,1.505000114,7,1.174999952,1,0,1200,897,1,1199,peaceful,11114 ,2019-10-22_16h03.42.502,SurveyExpMetaMem,3.2.3,Win32,60
,,,,,,,,,,,,,,,,,,,,5,5.154999971,5,0.1650002,1,0,1200,265,1,1199,invent,11114 ,2019-10-22_16h03.42.502,SurveyExpMetaMem,3.2.3,Win32,60
,,,,,,,,,,,,,,,,,,,,4,5.075999975,5,0.886000156,1,0,1200,419,1,1199,immature,11114 ,2019-10-22_16h03.42.502,SurveyExpMetaMem,3.2.3,Win32,60
,,,,,,,,,,,,,,,,,,,,6,4.056999922,1,1.970000029,1,0,1200,302,1,1199,loneliness,11114 ,2019-10-22_16h03.42.502,SurveyExpMetaMem,3.2.3,Win32,60
,,,,,,,,,,,,,,,,,,,,6,4.474999905,6,0.353999853,1,0,1200,888,1,1199,refreshment,11114 ,2019-10-22_16h03.42.502,SurveyExpMetaMem,3.2.3,Win32,60
,,,,,,,,,,,,,,,,,,,,5,6.498999834,5,0.141000032,1,0,1200,802,1,1199,familiar,11114 ,2019-10-22_16h03.42.502,SurveyExpMetaMem,3.2.3,Win32,60
,,,,,,,,,,,,,,,,,,,,5,1.676000118,5,0.134000063,1,0,1200,720,1,1199,stable,11114 ,2019-10-22_16h03.42.502,SurveyExpMetaMem,3.2.3,Win32,60
,,,,,,,,,,,,,,,,,,,,5,1.309000015,5,0.157999992,1,0,1200,169,1,1199,aid,11114 ,2019-10-22_16h03.42.502,SurveyExpMetaMem,3.2.3,Win32,60
,,,,,,,,,,,,,,,,,,,,5,3.121999979,5,0.152000189,1,0,1200,677,1,1199,handwriting,11114 ,2019-10-22_16h03.42.502,SurveyExpMetaMem,3.2.3,Win32,60
,,,,,,,,,,,,,,,,,,,,5,1.819000006,5,0.342999935,1,0,1200,22,1,1199,doughnut,11114 ,2019-10-22_16h03.42.502,SurveyExpMetaMem,3.2.3,Win32,60
,,,,,,,,,,,,,,,,,,,,7,2.674999952,2,0.73300004,1,0,1200,118,1,1199,conquer,11114 ,2019-10-22_16h03.42.502,SurveyExpMetaMem,3.2.3,Win32,60
,,,,,,,,,,,,,,,,,,,,5,3.910000086,6,0.184999943,1,0,1200,819,1,1199,sheep,11114 ,2019-10-22_16h03.42.502,SurveyExpMetaMem,3.2.3,Win32,60
,,,,,,,,,,,,,,,,,,,,6,1.407999992,5,0.495000124,1,0,1200,165,1,1199,sizzle,11114 ,2019-10-22_16h03.42.502,SurveyExpMetaMem,3.2.3,Win32,60
,,,,,,,,,,,,,,,,,,,,5,3.104000092,5,0.148000002,1,0,1200,571,1,1199,marrow,11114 ,2019-10-22_16h03.42.502,SurveyExpMetaMem,3.2.3,Win32,60
,,,,,,,,,,,,,,,,,,,,5,3.209000111,4,0.388000011,1,0,1200,1072,1,1199,bothered,11114 ,2019-10-22_16h03.42.502,SurveyExpMetaMem,3.2.3,Win32,60
,,,,,,,,,,,,,,,,,,,,5,2.157999992,2,0.207000017,1,0,1200,1136,1,1199,appall,11114 ,2019-10-22_16h03.42.502,SurveyExpMetaMem,3.2.3,Win32,60
,,,,,,,,,,,,,,,,,,,,6,4.312000036,7,0.683000088,1,0,1200,193,1,1199,party,11114 ,2019-10-22_16h03.42.502,SurveyExpMetaMem,3.2.3,Win32,60
,,,,,,,,,,,,,,,,,,,,7,1.71600008,5,0.796000004,1,0,1200,112,1,1199,jaguar,11114 ,2019-10-22_16h03.42.502,SurveyExpMetaMem,3.2.3,Win32,60
,,,,,,,,,,,,,,,,,,,,5,2.460999966,8,1.655999899,1,0,1200,288,1,1199,tasty,11114 ,2019-10-22_16h03.42.502,SurveyExpMetaMem,3.2.3,Win32,60
,,,,,,,,,,,,,,,,,,,,5,2.009000063,5,0.144999981,1,0,1200,609,1,1199,candlestick,11114 ,2019-10-22_16h03.42.502,SurveyExpMetaMem,3.2.3,Win32,60
,,,,,,,,,,,,,,,,,,,,6,5.911999941,4,0.507999897,1,0,1200,1167,1,1199,bribe,11114 ,2019-10-22_16h03.42.502,SurveyExpMetaMem,3.2.3,Win32,60
,,,,,,,,,,,,,,,,,,,,3,3.207999945,5,1.796000004,1,0,1200,526,1,1199,dry,11114 ,2019-10-22_16h03.42.502,SurveyExpMetaMem,3.2.3,Win32,60
,,,,,,,,,,,,,,,,,,,,5,2.513999939,5,0.271999836,1,0,1200,771,1,1199,practical,11114 ,2019-10-22_16h03.42.502,SurveyExpMetaMem,3.2.3,Win32,60
,,,,,,,,,,,,,,,,,,,,5,4.541999817,6,0.338999987,1,0,1200,114,1,1199,raise,11114 ,2019-10-22_16h03.42.502,SurveyExpMetaMem,3.2.3,Win32,60
,,,,,,,,,,,,,,,,,,,,7,2.453000069,7,0.148000002,1,0,1200,291,1,1199,fantastic,11114 ,2019-10-22_16h03.42.502,SurveyExpMetaMem,3.2.3,Win32,60
,,,,,,,,,,,,,,,,,,,,6,1.57400012,4,0.32400012,1,0,1200,1114,1,1199,foe,11114 ,2019-10-22_16h03.42.502,SurveyExpMetaMem,3.2.3,Win32,60
,,,,,,,,,,,,,,,,,,,,5,3.296999931,4,0.953999996,1,0,1200,326,1,1199,scam,11114 ,2019-10-22_16h03.42.502,SurveyExpMetaMem,3.2.3,Win32,60
,,,,,,,,,,,,,,,,,,,,6,4.15899992,3,0.395999908,1,0,1200,1056,1,1199,crime,11114 ,2019-10-22_16h03.42.502,SurveyExpMetaMem,3.2.3,Win32,60
,,,,,,,,,,,,,,,,,,,,7,2.676000118,3,0.655999899,1,0,1200,1017,1,1199,aggravated,11114 ,2019-10-22_16h03.42.502,SurveyExpMetaMem,3.2.3,Win32,60
,,,,,,,,,,,,,,,,,,,,5,3.453999996,4,0.174999952,1,0,1200,1185,1,1199,shotgun,11114 ,2019-10-22_16h03.42.502,SurveyExpMetaMem,3.2.3,Win32,60
,,,,,,,,,,,,,,,,,,,,5,3.082999945,5,0.148999929,1,0,1200,725,1,1199,checkerboard,11114 ,2019-10-22_16h03.42.502,SurveyExpMetaMem,3.2.3,Win32,60
,,,,,,,,,,,,,,,,,,,,5,2.867000103,4,0.194999933,1,0,1200,1003,1,1199,jealousy,11114 ,2019-10-22_16h03.42.502,SurveyExpMetaMem,3.2.3,Win32,60
,,,,,,,,,,,,,,,,,,,,5,2.157999992,6,0.125,1,0,1200,868,1,1199,grace,11114 ,2019-10-22_16h03.42.502,SurveyExpMetaMem,3.2.3,Win32,60
,,,,,,,,,,,,,,,,,,,,5,7.608999968,5,0.148000002,1,0,1200,1196,1,1199,breathless,11114 ,2019-10-22_16h03.42.502,SurveyExpMetaMem,3.2.3,Win32,60
,,,,,,,,,,,,,,,,,,,,6,2.485999823,7,0.413000107,1,0,1200,113,1,1199,bridesmaid,11114 ,2019-10-22_16h03.42.502,SurveyExpMetaMem,3.2.3,Win32,60
,,,,,,,,,,,,,,,,,,,,7,5.65199995,1,0.315000057,1,0,1200,303,1,1199,death,11114 ,2019-10-22_16h03.42.502,SurveyExpMetaMem,3.2.3,Win32,60
,,,,,,,,,,,,,,,,,,,,6,2.724999905,7,0.609999895,1,0,1200,299,1,1199,champion,11114 ,2019-10-22_16h03.42.502,SurveyExpMetaMem,3.2.3,Win32,60
,,,,,,,,,,,,,,,,,,,,6,2.070999861,3,0.312000036,1,0,1200,994,1,1199,repulsed,11114 ,2019-10-22_16h03.42.502,SurveyExpMetaMem,3.2.3,Win32,60
,,,,,,,,,,,,,,,,,,,,5,2.67200017,5,1.927999973,1,0,1200,970,1,1199,worry,11114 ,2019-10-22_16h03.42.502,SurveyExpMetaMem,3.2.3,Win32,60
,,,,,,,,,,,,,,,,,,,,5,1.630000114,5,0.201000214,1,0,1200,697,1,1199,clarinet,11114 ,2019-10-22_16h03.42.502,SurveyExpMetaMem,3.2.3,Win32,60
,,,,,,,,,,,,,,,,,,,,5,1.526000023,5,0.171000004,1,0,1200,578,1,1199,govern,11114 ,2019-10-22_16h03.42.502,SurveyExpMetaMem,3.2.3,Win32,60
,,,,,,,,,,,,,,,,,,,,5,3.40199995,5,0.324999809,1,0,1200,598,1,1199,feet,11114 ,2019-10-22_16h03.42.502,SurveyExpMetaMem,3.2.3,Win32,60
,,,,,,,,,,,,,,,,,,,,5,3.426000118,4,0.188999891,1,0,1200,405,1,1199,fatigued,11114 ,2019-10-22_16h03.42.502,SurveyExpMetaMem,3.2.3,Win32,60
,,,,,,,,,,,,,,,,,,,,5,1.253999949,5,0.18900013,1,0,1200,606,1,1199,easel,11114 ,2019-10-22_16h03.42.502,SurveyExpMetaMem,3.2.3,Win32,60
,,,,,,,,,,,,,,,,,,,,5,1.555000067,5,0.176999807,1,0,1200,140,1,1199,riches,11114 ,2019-10-22_16h03.42.502,SurveyExpMetaMem,3.2.3,Win32,60
,,,,,,,,,,,,,,,,,,,,5,1.528000116,5,0.180999994,1,0,1200,687,1,1199,skinny,11114 ,2019-10-22_16h03.42.502,SurveyExpMetaMem,3.2.3,Win32,60
,,,,,,,,,,,,,,,,,,,,5,0.989000082,5,0.128000021,1,0,1200,380,1,1199,expire,11114 ,2019-10-22_16h03.42.502,SurveyExpMetaMem,3.2.3,Win32,60
,,,,,,,,,,,,,,,,,,,,5,1.326999903,5,0.174000025,1,0,1200,386,1,1199,pale,11114 ,2019-10-22_16h03.42.502,SurveyExpMetaMem,3.2.3,Win32,60
,,,,,,,,,,,,,,,,,,,,5,2.48300004,4,1.156000137,1,0,1200,344,1,1199,pessimistic,11114 ,2019-10-22_16h03.42.502,SurveyExpMetaMem,3.2.3,Win32,60
,,,,,,,,,,,,,,,,,,,,6,4.267000198,6,0.154999971,1,0,1200,130,1,1199,great,11114 ,2019-10-22_16h03.42.502,SurveyExpMetaMem,3.2.3,Win32,60
,,,,,,,,,,,,,,,,,,,,5,1.305000067,5,0.429999828,1,0,1200,388,1,1199,mildew,11114 ,2019-10-22_16h03.42.502,SurveyExpMetaMem,3.2.3,Win32,60
,,,,,,,,,,,,,,,,,,,,5,1.457000017,5,0.10800004,1,0,1200,694,1,1199,pecan,11114 ,2019-10-22_16h03.42.502,SurveyExpMetaMem,3.2.3,Win32,60
,,,,,,,,,,,,,,,,,,,,6,2.156000137,5,0.435000181,1,0,1200,1184,1,1199,reckless,11114 ,2019-10-22_16h03.42.502,SurveyExpMetaMem,3.2.3,Win32,60
,,,,,,,,,,,,,,,,,,,,5,4.208999872,5,1.519999981,1,0,1200,1103,1,1199,mob,11114 ,2019-10-22_16h03.42.502,SurveyExpMetaMem,3.2.3,Win32,60
,,,,,,,,,,,,,,,,,,,,6,2.085999966,6,0.362999916,1,0,1200,254,1,1199,crush,11114 ,2019-10-22_16h03.42.502,SurveyExpMetaMem,3.2.3,Win32,60
,,,,,,,,,,,,,,,,,,,,5,7.407000065,6,0.313999891,1,0,1200,147,1,1199,cure,11114 ,2019-10-22_16h03.42.502,SurveyExpMetaMem,3.2.3,Win32,60
,,,,,,,,,,,,,,,,,,,,5,2.671999931,4,0.309999943,1,0,1200,956,1,1199,crushed,11114 ,2019-10-22_16h03.42.502,SurveyExpMetaMem,3.2.3,Win32,60
,,,,,,,,,,,,,,,,,,,,6,1.874000072,3,0.470999956,1,0,1200,1070,1,1199,bleed,11114 ,2019-10-22_16h03.42.502,SurveyExpMetaMem,3.2.3,Win32,60
,,,,,,,,,,,,,,,,,,,,5,2.94900012,6,0.190000057,1,0,1200,869,1,1199,assure,11114 ,2019-10-22_16h03.42.502,SurveyExpMetaMem,3.2.3,Win32,60
,,,,,,,,,,,,,,,,,,,,5,1.73300004,4,0.167000055,1,0,1200,1066,1,1199,annoy,11114 ,2019-10-22_16h03.42.502,SurveyExpMetaMem,3.2.3,Win32,60
,,,,,,,,,,,,,,,,,,,,7,2.599999905,7,0.154000044,1,0,1200,865,1,1199,bliss,11114 ,2019-10-22_16h03.42.502,SurveyExpMetaMem,3.2.3,Win32,60
,,,,,,,,,,,,,,,,,,,,5,1.489000082,4,0.250999928,1,0,1200,363,1,1199,dumb,11114 ,2019-10-22_16h03.42.502,SurveyExpMetaMem,3.2.3,Win32,60
,,,,,,,,,,,,,,,,,,,,5,1.002000093,5,0.164000034,1,0,1200,739,1,1199,seagull,11114 ,2019-10-22_16h03.42.502,SurveyExpMetaMem,3.2.3,Win32,60
,,,,,,,,,,,,,,,,,,,,6,2.056999922,4,0.28000021,1,0,1200,1105,1,1199,flee,11114 ,2019-10-22_16h03.42.502,SurveyExpMetaMem,3.2.3,Win32,60
,,,,,,,,,,,,,,,,,,,,5,2.078000069,6,0.215999842,1,0,1200,82,1,1199,stunning,11114 ,2019-10-22_16h03.42.502,SurveyExpMetaMem,3.2.3,Win32,60
,,,,,,,,,,,,,,,,,,,,5,1.364000082,6,0.169999838,1,0,1200,13,1,1199,mingle,11114 ,2019-10-22_16h03.42.502,SurveyExpMetaMem,3.2.3,Win32,60
,,,,,,,,,,,,,,,,,,,,5,1.021999836,4,0.131000042,1,0,1200,967,1,1199,horrible,11114 ,2019-10-22_16h03.42.502,SurveyExpMetaMem,3.2.3,Win32,60
,,,,,,,,,,,,,,,,,,,,5,5.095999956,5,0.15199995,1,0,1200,108,1,1199,naked,11114 ,2019-10-22_16h03.42.502,SurveyExpMetaMem,3.2.3,Win32,60
,,,,,,,,,,,,,,,,,,,,7,3.332999945,7,0.141000032,1,0,1200,115,1,1199,sexual,11114 ,2019-10-22_16h03.42.502,SurveyExpMetaMem,3.2.3,Win32,60
,,,,,,,,,,,,,,,,,,,,5,4.745000124,5,0.264000177,1,0,1200,715,1,1199,sheltered,11114 ,2019-10-22_16h03.42.502,SurveyExpMetaMem,3.2.3,Win32,60
,,,,,,,,,,,,,,,,,,,,5,2.351999998,5,0.197999954,1,0,1200,261,1,1199,windsurfers,11114 ,2019-10-22_16h03.42.502,SurveyExpMetaMem,3.2.3,Win32,60
,,,,,,,,,,,,,,,,,,,,6,3.044999838,8,0.687000036,1,0,1200,896,1,1199,cuddle,11114 ,2019-10-22_16h03.42.502,SurveyExpMetaMem,3.2.3,Win32,60
,,,,,,,,,,,,,,,,,,,,5,5.883999825,5,0.177000046,1,0,1200,189,1,1199,thoughtful,11114 ,2019-10-22_16h03.42.502,SurveyExpMetaMem,3.2.3,Win32,60
,,,,,,,,,,,,,,,,,,,,5,2.375999928,5,0.184000015,1,0,1200,455,1,1199,chubby,11114 ,2019-10-22_16h03.42.502,SurveyExpMetaMem,3.2.3,Win32,60
,,,,,,,,,,,,,,,,,,,,5,0.986000061,5,0.142000198,1,0,1200,847,1,1199,moon,11114 ,2019-10-22_16h03.42.502,SurveyExpMetaMem,3.2.3,Win32,60
,,,,,,,,,,,,,,,,,,,,5,1.565000057,5,0.207999945,1,0,1200,921,1,1199,humiliation,11114 ,2019-10-22_16h03.42.502,SurveyExpMetaMem,3.2.3,Win32,60
,,,,,,,,,,,,,,,,,,,,5,1.89199996,6,1.183000088,1,0,1200,711,1,1199,sympathetic,11114 ,2019-10-22_16h03.42.502,SurveyExpMetaMem,3.2.3,Win32,60
,,,,,,,,,,,,,,,,,,,,5,2.654000044,5,0.342999935,1,0,1200,156,1,1199,gym,11114 ,2019-10-22_16h03.42.502,SurveyExpMetaMem,3.2.3,Win32,60
,,,,,,,,,,,,,,,,,,,,5,1.381999969,5,0.170000076,1,0,1200,188,1,1199,profit,11114 ,2019-10-22_16h03.42.502,SurveyExpMetaMem,3.2.3,Win32,60
,,,,,,,,,,,,,,,,,,,,3,1.628999949,5,0.431999922,1,0,1200,618,1,1199,ceiling,11114 ,2019-10-22_16h03.42.502,SurveyExpMetaMem,3.2.3,Win32,60
,,,,,,,,,,,,,,,,,,,,4,2.476999998,5,0.18599987,1,0,1200,642,1,1199,newspaper,11114 ,2019-10-22_16h03.42.502,SurveyExpMetaMem,3.2.3,Win32,60
,,,,,,,,,,,,,,,,,,,,5,3.802000046,4,0.17599988,1,0,1200,920,1,1199,hurt,11114 ,2019-10-22_16h03.42.502,SurveyExpMetaMem,3.2.3,Win32,60
,,,,,,,,,,,,,,,,,,,,7,2.443000078,2,0.25,1,0,1200,954,1,1199,hostage,11114 ,2019-10-22_16h03.42.502,SurveyExpMetaMem,3.2.3,Win32,60
,,,,,,,,,,,,,,,,,,,,5,1.48300004,5,0.245999813,1,0,1200,554,1,1199,label,11114 ,2019-10-22_16h03.42.502,SurveyExpMetaMem,3.2.3,Win32,60
,,,,,,,,,,,,,,,,,,,,5,5.937999964,5,0.335000038,1,0,1200,695,1,1199,teacher,11114 ,2019-10-22_16h03.42.502,SurveyExpMetaMem,3.2.3,Win32,60
,,,,,,,,,,,,,,,,,,,,5,1.455000162,5,0.210000038,1,0,1200,464,1,1199,tick,11114 ,2019-10-22_16h03.42.502,SurveyExpMetaMem,3.2.3,Win32,60
,,,,,,,,,,,,,,,,,,,,4,2.501999855,5,0.347000122,1,0,1200,551,1,1199,coal,11114 ,2019-10-22_16h03.42.502,SurveyExpMetaMem,3.2.3,Win32,60
,,,,,,,,,,,,,,,,,,,,5,3.257999897,5,0.434000015,1,0,1200,878,1,1199,sleep,11114 ,2019-10-22_16h03.42.502,SurveyExpMetaMem,3.2.3,Win32,60
,,,,,,,,,,,,,,,,,,,,5,2.731999874,4,0.474999905,1,0,1200,1085,1,1199,sever,11114 ,2019-10-22_16h03.42.502,SurveyExpMetaMem,3.2.3,Win32,60
,,,,,,,,,,,,,,,,,,,,6,2.90899992,3,0.642999887,1,0,1200,310,1,1199,lonely,11114 ,2019-10-22_16h03.42.502,SurveyExpMetaMem,3.2.3,Win32,60
,,,,,,,,,,,,,,,,,,,,5,12.19700003,6,1.097000122,1,0,1200,753,1,1199,patience,11114 ,2019-10-22_16h03.42.502,SurveyExpMetaMem,3.2.3,Win32,60
,,,,,,,,,,,,,,,,,,,,5,12.6400001,5,0.194999933,1,0,1200,332,1,1199,sewage,11114 ,2019-10-22_16h03.42.502,SurveyExpMetaMem,3.2.3,Win32,60
,,,,,,,,,,,,,,,,,,,,6,1.657000065,5,0.267999887,1,0,1200,508,1,1199,haphazard,11114 ,2019-10-22_16h03.42.502,SurveyExpMetaMem,3.2.3,Win32,60
,,,,,,,,,,,,,,,,,,,,6,4.563999891,7,0.453000069,1,0,1200,733,1,1199,poetry,11114 ,2019-10-22_16h03.42.502,SurveyExpMetaMem,3.2.3,Win32,60
,,,,,,,,,,,,,,,,,,,,5,2.658000231,7,0.261999846,1,0,1200,792,1,1199,moral,11114 ,2019-10-22_16h03.42.502,SurveyExpMetaMem,3.2.3,Win32,60
,,,,,,,,,,,,,,,,,,,,5,3.905999899,5,0.296999931,1,0,1200,167,1,1199,casino,11114 ,2019-10-22_16h03.42.502,SurveyExpMetaMem,3.2.3,Win32,60
,,,,,,,,,,,,,,,,,,,,5,1.086999893,5,0.226999998,1,0,1200,243,1,1199,fame,11114 ,2019-10-22_16h03.42.502,SurveyExpMetaMem,3.2.3,Win32,60
,,,,,,,,,,,,,,,,,,,,4,1.486000061,5,0.177000046,1,0,1200,770,1,1199,buffalo,11114 ,2019-10-22_16h03.42.502,SurveyExpMetaMem,3.2.3,Win32,60
,,,,,,,,,,,,,,,,,,,,5,3.01699996,5,0.404000044,1,0,1200,772,1,1199,ornament,11114 ,2019-10-22_16h03.42.502,SurveyExpMetaMem,3.2.3,Win32,60
,,,,,,,,,,,,,,,,,,,,4,1.572000027,5,0.268999815,1,0,1200,724,1,1199,owl,11114 ,2019-10-22_16h03.42.502,SurveyExpMetaMem,3.2.3,Win32,60
,,,,,,,,,,,,,,,,,,,,4,2.21999979,5,0.165999889,1,0,1200,689,1,1199,land,11114 ,2019-10-22_16h03.42.502,SurveyExpMetaMem,3.2.3,Win32,60
,,,,,,,,,,,,,,,,,,,,6,2.485999823,4,0.913999796,1,0,1200,971,1,1199,crash,11114 ,2019-10-22_16h03.42.502,SurveyExpMetaMem,3.2.3,Win32,60
,,,,,,,,,,,,,,,,,,,,7,1.671000004,3,0.524999857,1,0,1200,403,1,1199,wither,11114 ,2019-10-22_16h03.42.502,SurveyExpMetaMem,3.2.3,Win32,60
,,,,,,,,,,,,,,,,,,,,5,2.094000101,5,0.207000017,1,0,1200,416,1,1199,boring,11114 ,2019-10-22_16h03.42.502,SurveyExpMetaMem,3.2.3,Win32,60
,,,,,,,,,,,,,,,,,,,,5,1.095000029,5,0.188999891,1,0,1200,984,1,1199,despairing,11114 ,2019-10-22_16h03.42.502,SurveyExpMetaMem,3.2.3,Win32,60
,,,,,,,,,,,,,,,,,,,,6,8.484999895,7,1.46999979,1,0,1200,894,1,1199,sunset,11114 ,2019-10-22_16h03.42.502,SurveyExpMetaMem,3.2.3,Win32,60
,,,,,,,,,,,,,,,,,,,,4,2.898000002,4,0.118000031,1,0,1200,409,1,1199,old,11114 ,2019-10-22_16h03.42.502,SurveyExpMetaMem,3.2.3,Win32,60
,,,,,,,,,,,,,,,,,,,,4,5.259000063,5,0.314999819,1,0,1200,1178,1,1199,weight,11114 ,2019-10-22_16h03.42.502,SurveyExpMetaMem,3.2.3,Win32,60
,,,,,,,,,,,,,,,,,,,,7,2.229000092,3,0.631000042,1,0,1200,910,1,1199,abusive,11114 ,2019-10-22_16h03.42.502,SurveyExpMetaMem,3.2.3,Win32,60
,,,,,,,,,,,,,,,,,,,,5,3.93200016,4,0.210000038,1,0,1200,1013,1,1199,guilty,11114 ,2019-10-22_16h03.42.502,SurveyExpMetaMem,3.2.3,Win32,60
,,,,,,,,,,,,,,,,,,,,6,2.07799983,4,0.241000175,1,0,1200,1156,1,1199,weapon,11114 ,2019-10-22_16h03.42.502,SurveyExpMetaMem,3.2.3,Win32,60
,,,,,,,,,,,,,,,,,,,,7,1.996000051,7,0.178999901,1,0,1200,237,1,1199,beautiful,11114 ,2019-10-22_16h03.42.502,SurveyExpMetaMem,3.2.3,Win32,60
,,,,,,,,,,,,,,,,,,,,3,2.553999901,5,0.190999985,1,0,1200,809,1,1199,boy,11114 ,2019-10-22_16h03.42.502,SurveyExpMetaMem,3.2.3,Win32,60
,,,,,,,,,,,,,,,,,,,,5,2.795000076,5,0.138000011,1,0,1200,379,1,1199,slob,11114 ,2019-10-22_16h03.42.502,SurveyExpMetaMem,3.2.3,Win32,60
,,,,,,,,,,,,,,,,,,,,6,2.389000177,6,0.129999876,1,0,1200,245,1,1199,beach,11114 ,2019-10-22_16h03.42.502,SurveyExpMetaMem,3.2.3,Win32,60
,,,,,,,,,,,,,,,,,,,,5,3.785000086,5,0.690999985,1,0,1200,171,1,1199,imagination,11114 ,2019-10-22_16h03.42.502,SurveyExpMetaMem,3.2.3,Win32,60
,,,,,,,,,,,,,,,,,,,,5,1.566999912,5,0.230000019,1,0,1200,636,1,1199,refine,11114 ,2019-10-22_16h03.42.502,SurveyExpMetaMem,3.2.3,Win32,60
,,,,,,,,,,,,,,,,,,,,5,1.726000071,5,0.152999878,1,0,1200,498,1,1199,alimony,11114 ,2019-10-22_16h03.42.502,SurveyExpMetaMem,3.2.3,Win32,60
,,,,,,,,,,,,,,,,,,,,5,2.105000019,5,0.143000126,1,0,1200,728,1,1199,patio,11114 ,2019-10-22_16h03.42.502,SurveyExpMetaMem,3.2.3,Win32,60
,,,,,,,,,,,,,,,,,,,,5,2.59100008,5,0.197999954,1,0,1200,635,1,1199,sensitive,11114 ,2019-10-22_16h03.42.502,SurveyExpMetaMem,3.2.3,Win32,60
,,,,,,,,,,,,,,,,,,,,6,2.219000101,7,0.441999912,1,0,1200,239,1,1199,compassionate,11114 ,2019-10-22_16h03.42.502,SurveyExpMetaMem,3.2.3,Win32,60
,,,,,,,,,,,,,,,,,,,,4,2.921999931,5,0.296000004,1,0,1200,603,1,1199,mane,11114 ,2019-10-22_16h03.42.502,SurveyExpMetaMem,3.2.3,Win32,60
,,,,,,,,,,,,,,,,,,,,3,1.33100009,5,0.255000114,1,0,1200,795,1,1199,soup,11114 ,2019-10-22_16h03.42.502,SurveyExpMetaMem,3.2.3,Win32,60
,,,,,,,,,,,,,,,,,,,,6,2.136999846,4,1.153000116,1,0,1200,1051,1,1199,insane,11114 ,2019-10-22_16h03.42.502,SurveyExpMetaMem,3.2.3,Win32,60
,,,,,,,,,,,,,,,,,,,,7,2.152999878,3,0.220999956,1,0,1200,1025,1,1199,deadly,11114 ,2019-10-22_16h03.42.502,SurveyExpMetaMem,3.2.3,Win32,60
,,,,,,,,,,,,,,,,,,,,7,1.705000162,3,0.20299983,1,0,1200,1058,1,1199,bloody,11114 ,2019-10-22_16h03.42.502,SurveyExpMetaMem,3.2.3,Win32,60
,,,,,,,,,,,,,,,,,,,,5,3.916999817,7,0.463000059,1,0,1200,33,1,1199,sister,11114 ,2019-10-22_16h03.42.502,SurveyExpMetaMem,3.2.3,Win32,60
,,,,,,,,,,,,,,,,,,,,5,5.792999983,5,0.327000141,1,0,1200,634,1,1199,glacier,11114 ,2019-10-22_16h03.42.502,SurveyExpMetaMem,3.2.3,Win32,60
,,,,,,,,,,,,,,,,,,,,5,2.07799983,5,0.263000011,1,0,1200,562,1,1199,average,11114 ,2019-10-22_16h03.42.502,SurveyExpMetaMem,3.2.3,Win32,60
,,,,,,,,,,,,,,,,,,,,6,1.95299983,2,1.169000149,1,0,1200,583,1,1199,obey,11114 ,2019-10-22_16h03.42.502,SurveyExpMetaMem,3.2.3,Win32,60
,,,,,,,,,,,,,,,,,,,,6,3.853000164,6,0.364000082,1,0,1200,843,1,1199,garden,11114 ,2019-10-22_16h03.42.502,SurveyExpMetaMem,3.2.3,Win32,60
,,,,,,,,,,,,,,,,,,,,5,1.845999956,5,0.217999935,1,0,1200,107,1,1199,sandwich,11114 ,2019-10-22_16h03.42.502,SurveyExpMetaMem,3.2.3,Win32,60
,,,,,,,,,,,,,,,,,,,,5,1.43599987,5,0.163000107,1,0,1200,462,1,1199,shallow,11114 ,2019-10-22_16h03.42.502,SurveyExpMetaMem,3.2.3,Win32,60
,,,,,,,,,,,,,,,,,,,,5,0.984999895,5,0.137000084,1,0,1200,841,1,1199,bathtub,11114 ,2019-10-22_16h03.42.502,SurveyExpMetaMem,3.2.3,Win32,60
,,,,,,,,,,,,,,,,,,,,8,2.362999916,8,0.164000034,1,0,1200,45,1,1199,sex,11114 ,2019-10-22_16h03.42.502,SurveyExpMetaMem,3.2.3,Win32,60
,,,,,,,,,,,,,,,,,,,,5,5.056999922,6,0.19299984,1,0,1200,131,1,1199,treat,11114 ,2019-10-22_16h03.42.502,SurveyExpMetaMem,3.2.3,Win32,60
,,,,,,,,,,,,,,,,,,,,6,1.223999977,6,0.176000118,1,0,1200,282,1,1199,luck,11114 ,2019-10-22_16h03.42.502,SurveyExpMetaMem,3.2.3,Win32,60
,,,,,,,,,,,,,,,,,,,,5,2.165999889,4,0.157000065,1,0,1200,413,1,1199,deficient,11114 ,2019-10-22_16h03.42.502,SurveyExpMetaMem,3.2.3,Win32,60
,,,,,,,,,,,,,,,,,,,,5,2.134000063,4,0.316999912,1,0,1200,560,1,1199,spurn,11114 ,2019-10-22_16h03.42.502,SurveyExpMetaMem,3.2.3,Win32,60
,,,,,,,,,,,,,,,,,,,,5,1.622999907,5,0.151000023,1,0,1200,75,1,1199,actor,11114 ,2019-10-22_16h03.42.502,SurveyExpMetaMem,3.2.3,Win32,60
,,,,,,,,,,,,,,,,,,,,5,1.715999842,4,0.222999811,1,0,1200,1063,1,1199,quarrel,11114 ,2019-10-22_16h03.42.502,SurveyExpMetaMem,3.2.3,Win32,60
,,,,,,,,,,,,,,,,,,,,6,1.427999973,5,0.736999989,1,0,1200,1107,1,1199,snake,11114 ,2019-10-22_16h03.42.502,SurveyExpMetaMem,3.2.3,Win32,60
,,,,,,,,,,,,,,,,,,,,5,1.485000134,5,0.169999838,1,0,1200,1080,1,1199,broken,11114 ,2019-10-22_16h03.42.502,SurveyExpMetaMem,3.2.3,Win32,60
,,,,,,,,,,,,,,,,,,,,5,2.053999901,5,0.411999941,1,0,1200,567,1,1199,folly,11114 ,2019-10-22_16h03.42.502,SurveyExpMetaMem,3.2.3,Win32,60
,,,,,,,,,,,,,,,,,,,,5,2.56099987,4,0.202000141,1,0,1200,1037,1,1199,scared,11114 ,2019-10-22_16h03.42.502,SurveyExpMetaMem,3.2.3,Win32,60
,,,,,,,,,,,,,,,,,,,,5,2.552999973,6,0.152999878,1,0,1200,123,1,1199,favorite,11114 ,2019-10-22_16h03.42.502,SurveyExpMetaMem,3.2.3,Win32,60
,,,,,,,,,,,,,,,,,,,,7,2.645999908,5,0.243000031,1,0,1200,57,1,1199,important,11114 ,2019-10-22_16h03.42.502,SurveyExpMetaMem,3.2.3,Win32,60
,,,,,,,,,,,,,,,,,,,,6,3.34800005,5,0.25999999,1,0,1200,1082,1,1199,hazard,11114 ,2019-10-22_16h03.42.502,SurveyExpMetaMem,3.2.3,Win32,60
,,,,,,,,,,,,,,,,,,,,5,1.945999861,5,0.155999899,1,0,1200,619,1,1199,pulpit,11114 ,2019-10-22_16h03.42.502,SurveyExpMetaMem,3.2.3,Win32,60
,,,,,,,,,,,,,,,,,,,,5,3.388000011,5,1.643000126,1,0,1200,1132,1,1199,anarchy,11114 ,2019-10-22_16h03.42.502,SurveyExpMetaMem,3.2.3,Win32,60
,,,,,,,,,,,,,,,,,,,,5,2.407999992,5,0.150000095,1,0,1200,563,1,1199,stupor,11114 ,2019-10-22_16h03.42.502,SurveyExpMetaMem,3.2.3,Win32,60
,,,,,,,,,,,,,,,,,,,,6,4.072000027,4,0.06400013,1,0,1200,914,1,1199,fail,11114 ,2019-10-22_16h03.42.502,SurveyExpMetaMem,3.2.3,Win32,60
,,,,,,,,,,,,,,,,,,,,6,1.262000084,6,0.123000145,1,0,1200,298,1,1199,success,11114 ,2019-10-22_16h03.42.502,SurveyExpMetaMem,3.2.3,Win32,60
,,,,,,,,,,,,,,,,,,,,5,4.323999882,5,0.128000021,1,0,1200,590,1,1199,stool,11114 ,2019-10-22_16h03.42.502,SurveyExpMetaMem,3.2.3,Win32,60
,,,,,,,,,,,,,,,,,,,,5,1.703999996,5,0.134000063,1,0,1200,750,1,1199,porpoise,11114 ,2019-10-22_16h03.42.502,SurveyExpMetaMem,3.2.3,Win32,60
,,,,,,,,,,,,,,,,,,,,7,1.99000001,5,0.180000067,1,0,1200,0,1,1199,dragon,11114 ,2019-10-22_16h03.42.502,SurveyExpMetaMem,3.2.3,Win32,60
,,,,,,,,,,,,,,,,,,,,5,3.496000051,5,0.121999979,1,0,1200,172,1,1199,potential,11114 ,2019-10-22_16h03.42.502,SurveyExpMetaMem,3.2.3,Win32,60
,,,,,,,,,,,,,,,,,,,,6,1.263000011,4,0.109999895,1,0,1200,1031,1,1199,fear,11114 ,2019-10-22_16h03.42.502,SurveyExpMetaMem,3.2.3,Win32,60
,,,,,,,,,,,,,,,,,,,,5,2.538000107,4,0.458999872,1,0,1200,927,1,1199,jail,11114 ,2019-10-22_16h03.42.502,SurveyExpMetaMem,3.2.3,Win32,60
,,,,,,,,,,,,,,,,,,,,5,1.857000113,5,0.157000065,1,0,1200,518,1,1199,report,11114 ,2019-10-22_16h03.42.502,SurveyExpMetaMem,3.2.3,Win32,60
,,,,,,,,,,,,,,,,,,,,5,2.119999886,5,0.174000025,1,0,1200,125,1,1199,dancing,11114 ,2019-10-22_16h03.42.502,SurveyExpMetaMem,3.2.3,Win32,60
,,,,,,,,,,,,,,,,,,,,7,2.105999947,7,0.177000046,1,0,1200,164,1,1199,marry,11114 ,2019-10-22_16h03.42.502,SurveyExpMetaMem,3.2.3,Win32,60
,,,,,,,,,,,,,,,,,,,,5,6.710000038,4,0.111000061,1,0,1200,401,1,1199,feeble,11114 ,2019-10-22_16h03.42.502,SurveyExpMetaMem,3.2.3,Win32,60
,,,,,,,,,,,,,,,,,,,,5,0.901000023,5,0.11500001,1,0,1200,682,1,1199,camel,11114 ,2019-10-22_16h03.42.502,SurveyExpMetaMem,3.2.3,Win32,60
,,,,,,,,,,,,,,,,,,,,4,3.19299984,6,0.378000021,1,0,1200,35,1,1199,bright,11114 ,2019-10-22_16h03.42.502,SurveyExpMetaMem,3.2.3,Win32,60
,,,,,,,,,,,,,,,,,,,,5,1.857000113,5,0.128000021,1,0,1200,1098,1,1199,confused,11114 ,2019-10-22_16h03.42.502,SurveyExpMetaMem,3.2.3,Win32,60
,,,,,,,,,,,,,,,,,,,,5,1.924000025,5,0.14199996,1,0,1200,475,1,1199,nameless,11114 ,2019-10-22_16h03.42.502,SurveyExpMetaMem,3.2.3,Win32,60
,,,,,,,,,,,,,,,,,,,,5,1.805000067,5,0.167999983,1,0,1200,612,1,1199,propeller,11114 ,2019-10-22_16h03.42.502,SurveyExpMetaMem,3.2.3,Win32,60
,,,,,,,,,,,,,,,,,,,,5,1.804000139,5,0.128000021,1,0,1200,460,1,1199,rag,11114 ,2019-10-22_16h03.42.502,SurveyExpMetaMem,3.2.3,Win32,60
,,,,,,,,,,,,,,,,,,,,6,1.624000072,4,0.097000122,1,0,1200,998,1,1199,virus,11114 ,2019-10-22_16h03.42.502,SurveyExpMetaMem,3.2.3,Win32,60
,,,,,,,,,,,,,,,,,,,,6,3.286999941,4,0.085999966,1,0,1200,1042,1,1199,brutal,11114 ,2019-10-22_16h03.42.502,SurveyExpMetaMem,3.2.3,Win32,60
,,,,,,,,,,,,,,,,,,,,7,2.537000179,3,0.07400012,1,0,1200,1039,1,1199,stalk,11114 ,2019-10-22_16h03.42.502,SurveyExpMetaMem,3.2.3,Win32,60
,,,,,,,,,,,,,,,,,,,,5,2.118999958,5,0.122999907,1,0,1200,153,1,1199,teach,11114 ,2019-10-22_16h03.42.502,SurveyExpMetaMem,3.2.3,Win32,60
,,,,,,,,,,,,,,,,,,,,5,1.495999813,5,0.107000113,1,0,1200,710,1,1199,gender,11114 ,2019-10-22_16h03.42.502,SurveyExpMetaMem,3.2.3,Win32,60
,,,,,,,,,,,,,,,,,,,,5,2.537999868,6,0.049000025,1,0,1200,226,1,1199,prize,11114 ,2019-10-22_16h03.42.502,SurveyExpMetaMem,3.2.3,Win32,60
,,,,,,,,,,,,,,,,,,,,4,3.553999901,5,1.407000065,1,0,1200,713,1,1199,mobile,11114 ,2019-10-22_16h03.42.502,SurveyExpMetaMem,3.2.3,Win32,60
,,,,,,,,,,,,,,,,,,,,5,2.171999931,5,0.503999949,1,0,1200,157,1,1199,reveal,11114 ,2019-10-22_16h03.42.502,SurveyExpMetaMem,3.2.3,Win32,60
,,,,,,,,,,,,,,,,,,,,5,3.504999876,5,0.157999992,1,0,1200,132,1,1199,silly,11114 ,2019-10-22_16h03.42.502,SurveyExpMetaMem,3.2.3,Win32,60
,,,,,,,,,,,,,,,,,,,,5,1.65500021,5,0.28399992,1,0,1200,536,1,1199,vacant,11114 ,2019-10-22_16h03.42.502,SurveyExpMetaMem,3.2.3,Win32,60
,,,,,,,,,,,,,,,,,,,,6,1.580000162,4,0.435000181,1,0,1200,1164,1,1199,battle,11114 ,2019-10-22_16h03.42.502,SurveyExpMetaMem,3.2.3,Win32,60
,,,,,,,,,,,,,,,,,,,,5,2.520999908,6,0.244999886,1,0,1200,139,1,1199,generosity,11114 ,2019-10-22_16h03.42.502,SurveyExpMetaMem,3.2.3,Win32,60
,,,,,,,,,,,,,,,,,,,,5,2.495999813,5,0.244999886,1,0,1200,61,1,1199,zoom,11114 ,2019-10-22_16h03.42.502,SurveyExpMetaMem,3.2.3,Win32,60
,,,,,,,,,,,,,,,,,,,,5,2.960999966,6,0.165999889,1,0,1200,192,1,1199,pleased,11114 ,2019-10-22_16h03.42.502,SurveyExpMetaMem,3.2.3,Win32,60
,,,,,,,,,,,,,,,,,,,,5,1.164999962,5,0.289000034,1,0,1200,762,1,1199,orchestra,11114 ,2019-10-22_16h03.42.502,SurveyExpMetaMem,3.2.3,Win32,60
,,,,,,,,,,,,,,,,,,,,5,1.523999929,4,0.236999989,1,0,1200,398,1,1199,handicapped,11114 ,2019-10-22_16h03.42.502,SurveyExpMetaMem,3.2.3,Win32,60
,,,,,,,,,,,,,,,,,,,,5,2.080000162,5,0.159999847,1,0,1200,538,1,1199,crumbs,11114 ,2019-10-22_16h03.42.502,SurveyExpMetaMem,3.2.3,Win32,60
,,,,,,,,,,,,,,,,,,,,3,4.851999998,5,0.264999866,1,0,1200,50,1,1199,bolt,11114 ,2019-10-22_16h03.42.502,SurveyExpMetaMem,3.2.3,Win32,60
,,,,,,,,,,,,,,,,,,,,5,2.588999987,5,0.147000074,1,0,1200,213,1,1199,fair,11114 ,2019-10-22_16h03.42.502,SurveyExpMetaMem,3.2.3,Win32,60
,,,,,,,,,,,,,,,,,,,,5,2.928000212,5,0.239000082,1,0,1200,1143,1,1199,arrogant,11114 ,2019-10-22_16h03.42.502,SurveyExpMetaMem,3.2.3,Win32,60
,,,,,,,,,,,,,,,,,,,,5,3.789999962,5,0.230000019,1,0,1200,1127,1,1199,spank,11114 ,2019-10-22_16h03.42.502,SurveyExpMetaMem,3.2.3,Win32,60
,,,,,,,,,,,,,,,,,,,,7,7.325000048,1,0.315000057,1,0,1200,541,1,1199,apathy,11114 ,2019-10-22_16h03.42.502,SurveyExpMetaMem,3.2.3,Win32,60
,,,,,,,,,,,,,,,,,,,,6,2.154000044,4,3.242000103,1,0,1200,919,1,1199,loss,11114 ,2019-10-22_16h03.42.502,SurveyExpMetaMem,3.2.3,Win32,60
,,,,,,,,,,,,,,,,,,,,4,5.396999836,5,0.42599988,1,0,1200,654,1,1199,brief,11114 ,2019-10-22_16h03.42.502,SurveyExpMetaMem,3.2.3,Win32,60
,,,,,,,,,,,,,,,,,,,,5,1.768000126,5,0.390999794,1,0,1200,21,1,1199,game,11114 ,2019-10-22_16h03.42.502,SurveyExpMetaMem,3.2.3,Win32,60
,,,,,,,,,,,,,,,,,,,,5,1.335000038,5,0.203999996,1,0,1200,773,1,1199,rational,11114 ,2019-10-22_16h03.42.502,SurveyExpMetaMem,3.2.3,Win32,60
,,,,,,,,,,,,,,,,,,,,5,1.227999926,4,0.572999954,1,0,1200,389,1,1199,gloomy,11114 ,2019-10-22_16h03.42.502,SurveyExpMetaMem,3.2.3,Win32,60
,,,,,,,,,,,,,,,,,,,,6,5.592999935,4,0.447000027,1,0,1200,1157,1,1199,slayer,11114 ,2019-10-22_16h03.42.502,SurveyExpMetaMem,3.2.3,Win32,60
,,,,,,,,,,,,,,,,,,,,5,2.737999916,6,0.101999998,1,0,1200,88,1,1199,ambitious,11114 ,2019-10-22_16h03.42.502,SurveyExpMetaMem,3.2.3,Win32,60
,,,,,,,,,,,,,,,,,,,,6,2.799000025,5,0.200000048,1,0,1200,1108,1,1199,spider,11114 ,2019-10-22_16h03.42.502,SurveyExpMetaMem,3.2.3,Win32,60
,,,,,,,,,,,,,,,,,,,,4,0.003000021,5,5.690000057,1,0,1200,839,1,1199,flower,11114 ,2019-10-22_16h03.42.502,SurveyExpMetaMem,3.2.3,Win32,60
,,,,,,,,,,,,,,,,,,,,5,2.252000093,5,0.272000074,1,0,1200,836,1,1199,lounge,11114 ,2019-10-22_16h03.42.502,SurveyExpMetaMem,3.2.3,Win32,60
,,,,,,,,,,,,,,,,,,,,6,1.792999983,6,0.135999918,1,0,1200,26,1,1199,inspired,11114 ,2019-10-22_16h03.42.502,SurveyExpMetaMem,3.2.3,Win32,60
,,,,,,,,,,,,,,,,,,,,3,1.896000147,5,0.332000017,1,0,1200,496,1,1199,slow,11114 ,2019-10-22_16h03.42.502,SurveyExpMetaMem,3.2.3,Win32,60
,,,,,,,,,,,,,,,,,,,,6,2.328000069,7,0.222999811,1,0,1200,133,1,1199,prosperous,11114 ,2019-10-22_16h03.42.502,SurveyExpMetaMem,3.2.3,Win32,60
,,,,,,,,,,,,,,,,,,,,6,2.762000084,4,0.25999999,1,0,1200,1177,1,1199,pang,11114 ,2019-10-22_16h03.42.502,SurveyExpMetaMem,3.2.3,Win32,60
,,,,,,,,,,,,,,,,,,,,5,5.610000134,5,0.234999895,1,0,1200,707,1,1199,adapt,11114 ,2019-10-22_16h03.42.502,SurveyExpMetaMem,3.2.3,Win32,60
,,,,,,,,,,,,,,,,,,,,5,1.210999966,5,0.243999958,1,0,1200,66,1,1199,zest,11114 ,2019-10-22_16h03.42.502,SurveyExpMetaMem,3.2.3,Win32,60
,,,,,,,,,,,,,,,,,,,,5,1.181999922,5,0.263000011,1,0,1200,152,1,1199,hire,11114 ,2019-10-22_16h03.42.502,SurveyExpMetaMem,3.2.3,Win32,60
,,,,,,,,,,,,,,,,,,,,5,1.038000107,5,0.251999855,1,0,1200,1133,1,1199,slip,11114 ,2019-10-22_16h03.42.502,SurveyExpMetaMem,3.2.3,Win32,60
,,,,,,,,,,,,,,,,,,,,5,0.796999931,5,0.260000229,1,0,1200,613,1,1199,cup,11114 ,2019-10-22_16h03.42.502,SurveyExpMetaMem,3.2.3,Win32,60
,,,,,,,,,,,,,,,,,,,,8,3.015000105,2,0.604000092,1,0,1200,951,1,1199,castrate,11114 ,2019-10-22_16h03.42.502,SurveyExpMetaMem,3.2.3,Win32,60
,,,,,,,,,,,,,,,,,,,,5,1.707999945,5,0.203000069,1,0,1200,383,1,1199,messy,11114 ,2019-10-22_16h03.42.502,SurveyExpMetaMem,3.2.3,Win32,60
,,,,,,,,,,,,,,,,,,,,5,1.263000011,5,0.16899991,1,0,1200,422,1,1199,doubtful,11114 ,2019-10-22_16h03.42.502,SurveyExpMetaMem,3.2.3,Win32,60
,,,,,,,,,,,,,,,,,,,,5,4.644999981,5,0.167999983,1,0,1200,727,1,1199,author,11114 ,2019-10-22_16h03.42.502,SurveyExpMetaMem,3.2.3,Win32,60
,,,,,,,,,,,,,,,,,,,,7,2.292999983,2,0.304000139,1,0,1200,955,1,1199,drown,11114 ,2019-10-22_16h03.42.502,SurveyExpMetaMem,3.2.3,Win32,60
,,,,,,,,,,,,,,,,,,,,5,2.209000111,5,0.238000154,1,0,1200,539,1,1199,novice,11114 ,2019-10-22_16h03.42.502,SurveyExpMetaMem,3.2.3,Win32,60
,,,,,,,,,,,,,,,,,,,,5,1.260999918,5,0.259000063,1,0,1200,38,1,1199,cheeseburger,11114 ,2019-10-22_16h03.42.502,SurveyExpMetaMem,3.2.3,Win32,60
,,,,,,,,,,,,,,,,,,,,5,1.246000051,5,0.256000042,1,0,1200,1118,1,1199,frantic,11114 ,2019-10-22_16h03.42.502,SurveyExpMetaMem,3.2.3,Win32,60
,,,,,,,,,,,,,,,,,,,,5,0.881999969,5,0.250999928,1,0,1200,726,1,1199,crackers,11114 ,2019-10-22_16h03.42.502,SurveyExpMetaMem,3.2.3,Win32,60
,,,,,,,,,,,,,,,,,,,,5,2.265000105,4,0.28000021,1,0,1200,1111,1,1199,bruise,11114 ,2019-10-22_16h03.42.502,SurveyExpMetaMem,3.2.3,Win32,60
,,,,,,,,,,,,,,,,,,,,5,1.707000017,6,0.200000048,1,0,1200,830,1,1199,pear,11114 ,2019-10-22_16h03.42.502,SurveyExpMetaMem,3.2.3,Win32,60
,,,,,,,,,,,,,,,,,,,,5,1.605000019,5,0.230999947,1,0,1200,474,1,1199,weary,11114 ,2019-10-22_16h03.42.502,SurveyExpMetaMem,3.2.3,Win32,60
,,,,,,,,,,,,,,,,,,,,5,0.845000029,6,0.784999847,1,0,1200,882,1,1199,gentle,11114 ,2019-10-22_16h03.42.502,SurveyExpMetaMem,3.2.3,Win32,60
,,,,,,,,,,,,,,,,,,,,5,3.256999969,6,0.22300005,1,0,1200,886,1,1199,sunflower,11114 ,2019-10-22_16h03.42.502,SurveyExpMetaMem,3.2.3,Win32,60
,,,,,,,,,,,,,,,,,,,,5,2.340000153,5,0.197000027,1,0,1200,515,1,1199,blues,11114 ,2019-10-22_16h03.42.502,SurveyExpMetaMem,3.2.3,Win32,60
,,,,,,,,,,,,,,,,,,,,5,1.219000101,5,0.184000015,1,0,1200,53,1,1199,lotion,11114 ,2019-10-22_16h03.42.502,SurveyExpMetaMem,3.2.3,Win32,60
,,,,,,,,,,,,,,,,,,,,5,2.25,5,0.226000071,1,0,1200,128,1,1199,supper,11114 ,2019-10-22_16h03.42.502,SurveyExpMetaMem,3.2.3,Win32,60
,,,,,,,,,,,,,,,,,,,,5,4.584000111,5,0.151000023,1,0,1200,754,1,1199,reflection,11114 ,2019-10-22_16h03.42.502,SurveyExpMetaMem,3.2.3,Win32,60
,,,,,,,,,,,,,,,,,,,,5,0.943000078,5,0.13499999,1,0,1200,624,1,1199,tower,11114 ,2019-10-22_16h03.42.502,SurveyExpMetaMem,3.2.3,Win32,60
,,,,,,,,,,,,,,,,,,,,5,1.694000006,6,0.041999817,1,0,1200,891,1,1199,kind,11114 ,2019-10-22_16h03.42.502,SurveyExpMetaMem,3.2.3,Win32,60
,,,,,,,,,,,,,,,,,,,,5,2.558000088,4,0.046000004,1,0,1200,366,1,1199,fatigue,11114 ,2019-10-22_16h03.42.502,SurveyExpMetaMem,3.2.3,Win32,60
,,,,,,,,,,,,,,,,,,,,5,1.924000025,5,0.112999916,1,0,1200,543,1,1199,gloat,11114 ,2019-10-22_16h03.42.502,SurveyExpMetaMem,3.2.3,Win32,60
,,,,,,,,,,,,,,,,,,,,5,2.105999947,5,0.104000092,1,0,1200,471,1,1199,chump,11114 ,2019-10-22_16h03.42.502,SurveyExpMetaMem,3.2.3,Win32,60
,,,,,,,,,,,,,,,,,,,,6,3.118999958,5,0.031999826,1,0,1200,78,1,1199,energetic,11114 ,2019-10-22_16h03.42.502,SurveyExpMetaMem,3.2.3,Win32,60
,,,,,,,,,,,,,,,,,,,,5,2.084000111,5,0.106999874,1,0,1200,263,1,1199,answer,11114 ,2019-10-22_16h03.42.502,SurveyExpMetaMem,3.2.3,Win32,60
,,,,,,,,,,,,,,,,,,,,5,1.7900002,5,0.122999907,1,0,1200,89,1,1199,cruiseship,11114 ,2019-10-22_16h03.42.502,SurveyExpMetaMem,3.2.3,Win32,60
,,,,,,,,,,,,,,,,,,,,5,3.226000071,5,0.156000137,1,0,1200,912,1,1199,rabies,11114 ,2019-10-22_16h03.42.502,SurveyExpMetaMem,3.2.3,Win32,60
,,,,,,,,,,,,,,,,,,,,6,2.951999903,4,0.13499999,1,0,1200,355,1,1199,graveyard,11114 ,2019-10-22_16h03.42.502,SurveyExpMetaMem,3.2.3,Win32,60
,,,,,,,,,,,,,,,,,,,,5,2.993000031,5,0.135999918,1,0,1200,430,1,1199,cancel,11114 ,2019-10-22_16h03.42.502,SurveyExpMetaMem,3.2.3,Win32,60
,,,,,,,,,,,,,,,,,,,,7,3.835000038,2,1.351000071,1,0,1200,940,1,1199,war,11114 ,2019-10-22_16h03.42.502,SurveyExpMetaMem,3.2.3,Win32,60
,,,,,,,,,,,,,,,,,,,,6,1.435000181,4,0.498000145,1,0,1200,420,1,1199,smoke,11114 ,2019-10-22_16h03.42.502,SurveyExpMetaMem,3.2.3,Win32,60
,,,,,,,,,,,,,,,,,,,,6,1.308999777,4,0.519999981,1,0,1200,155,1,1199,ignite,11114 ,2019-10-22_16h03.42.502,SurveyExpMetaMem,3.2.3,Win32,60
,,,,,,,,,,,,,,,,,,,,5,1.253999949,5,0.278000116,1,0,1200,601,1,1199,roof,11114 ,2019-10-22_16h03.42.502,SurveyExpMetaMem,3.2.3,Win32,60
,,,,,,,,,,,,,,,,,,,,5,1.562000036,4,0.355000019,1,0,1200,404,1,1199,nuisance,11114 ,2019-10-22_16h03.42.502,SurveyExpMetaMem,3.2.3,Win32,60
,,,,,,,,,,,,,,,,,,,,5,0.914000034,5,0.265000105,1,0,1200,834,1,1199,crown,11114 ,2019-10-22_16h03.42.502,SurveyExpMetaMem,3.2.3,Win32,60
,,,,,,,,,,,,,,,,,,,,8,2.44900012,1,0.644999981,1,0,1200,904,1,1199,murderer,11114 ,2019-10-22_16h03.42.502,SurveyExpMetaMem,3.2.3,Win32,60
,,,,,,,,,,,,,,,,,,,,8,3.124000072,5,1.121999979,1,0,1200,8,1,1199,extreme,11114 ,2019-10-22_16h03.42.502,SurveyExpMetaMem,3.2.3,Win32,60
,,,,,,,,,,,,,,,,,,,,4,3.286000013,5,0.912000179,1,0,1200,701,1,1199,telephone,11114 ,2019-10-22_16h03.42.502,SurveyExpMetaMem,3.2.3,Win32,60
,,,,,,,,,,,,,,,,,,,,5,4.617000103,6,0.282000065,1,0,1200,833,1,1199,nice,11114 ,2019-10-22_16h03.42.502,SurveyExpMetaMem,3.2.3,Win32,60
,,,,,,,,,,,,,,,,,,,,5,3.248000145,5,0.224999905,1,0,1200,1065,1,1199,slap,11114 ,2019-10-22_16h03.42.502,SurveyExpMetaMem,3.2.3,Win32,60
,,,,,,,,,,,,,,,,,,,,8,2.618999958,1,0.503999949,1,0,1200,976,1,1199,tumor,11114 ,2019-10-22_16h03.42.502,SurveyExpMetaMem,3.2.3,Win32,60
,,,,,,,,,,,,,,,,,,,,5,3.898000002,4,0.451999903,1,0,1200,483,1,1199,condescension,11114 ,2019-10-22_16h03.42.502,SurveyExpMetaMem,3.2.3,Win32,60
,,,,,,,,,,,,,,,,,,,,5,1.529000044,5,0.313999891,1,0,1200,503,1,1199,sludge,11114 ,2019-10-22_16h03.42.502,SurveyExpMetaMem,3.2.3,Win32,60
,,,,,,,,,,,,,,,,,,,,5,2.194000006,5,0.175000191,1,0,1200,15,1,1199,curiosity,11114 ,2019-10-22_16h03.42.502,SurveyExpMetaMem,3.2.3,Win32,60
,,,,,,,,,,,,,,,,,,,,6,2.770999908,4,0.114000082,1,0,1200,948,1,1199,pain,11114 ,2019-10-22_16h03.42.502,SurveyExpMetaMem,3.2.3,Win32,60
,,,,,,,,,,,,,,,,,,,,6,3.493999958,4,0.128000021,1,0,1200,962,1,1199,poisonous,11114 ,2019-10-22_16h03.42.502,SurveyExpMetaMem,3.2.3,Win32,60
,,,,,,,,,,,,,,,,,,,,5,4.297999859,5,0.127000093,1,0,1200,1166,1,1199,compulsive,11114 ,2019-10-22_16h03.42.502,SurveyExpMetaMem,3.2.3,Win32,60
,,,,,,,,,,,,,,,,,,,,5,6.427000046,5,0.13499999,1,0,1200,17,1,1199,outgoing,11114 ,2019-10-22_16h03.42.502,SurveyExpMetaMem,3.2.3,Win32,60
,,,,,,,,,,,,,,,,,,,,5,2.912000179,4,0.421000004,1,0,1200,334,1,1199,trash,11114 ,2019-10-22_16h03.42.502,SurveyExpMetaMem,3.2.3,Win32,60
,,,,,,,,,,,,,,,,,,,,5,1.470000029,4,0.181999922,1,0,1200,1150,1,1199,forceful,11114 ,2019-10-22_16h03.42.502,SurveyExpMetaMem,3.2.3,Win32,60
,,,,,,,,,,,,,,,,,,,,4,2.224999905,5,0.177000046,1,0,1200,656,1,1199,number,11114 ,2019-10-22_16h03.42.502,SurveyExpMetaMem,3.2.3,Win32,60
,,,,,,,,,,,,,,,,,,,,5,1.842000008,5,0.141000032,1,0,1200,759,1,1199,prefer,11114 ,2019-10-22_16h03.42.502,SurveyExpMetaMem,3.2.3,Win32,60
,,,,,,,,,,,,,,,,,,,,5,1.46600008,5,0.13499999,1,0,1200,708,1,1199,nursery,11114 ,2019-10-22_16h03.42.502,SurveyExpMetaMem,3.2.3,Win32,60
,,,,,,,,,,,,,,,,,,,,5,1.167999983,5,0.133000135,1,0,1200,1153,1,1199,mangle,11114 ,2019-10-22_16h03.42.502,SurveyExpMetaMem,3.2.3,Win32,60
,,,,,,,,,,,,,,,,,,,,5,2.726999998,5,0.11500001,1,0,1200,487,1,1199,junk,11114 ,2019-10-22_16h03.42.502,SurveyExpMetaMem,3.2.3,Win32,60
,,,,,,,,,,,,,,,,,,,,6,1.305999994,4,0.421000004,1,0,1200,943,1,1199,trauma,11114 ,2019-10-22_16h03.42.502,SurveyExpMetaMem,3.2.3,Win32,60
,,,,,,,,,,,,,,,,,,,,5,1.482000113,6,0.178999901,1,0,1200,884,1,1199,grateful,11114 ,2019-10-22_16h03.42.502,SurveyExpMetaMem,3.2.3,Win32,60
,,,,,,,,,,,,,,,,,,,,5,2.320999861,6,0.582000017,1,0,1200,879,1,1199,bird,11114 ,2019-10-22_16h03.42.502,SurveyExpMetaMem,3.2.3,Win32,60
,,,,,,,,,,,,,,,,,,,,5,3.268000126,5,0.132999897,1,0,1200,441,1,1199,prohibit,11114 ,2019-10-22_16h03.42.502,SurveyExpMetaMem,3.2.3,Win32,60
,,,,,,,,,,,,,,,,,,,,5,2.230999947,5,0.139999866,1,0,1200,620,1,1199,spray,11114 ,2019-10-22_16h03.42.502,SurveyExpMetaMem,3.2.3,Win32,60
,,,,,,,,,,,,,,,,,,,,5,2.547999859,5,1.022000074,1,0,1200,1019,1,1199,fraud,11114 ,2019-10-22_16h03.42.502,SurveyExpMetaMem,3.2.3,Win32,60
,,,,,,,,,,,,,,,,,,,,5,4.712000132,5,0.492000103,1,0,1200,65,1,1199,restaurant,11114 ,2019-10-22_16h03.42.502,SurveyExpMetaMem,3.2.3,Win32,60
,,,,,,,,,,,,,,,,,,,,5,3.443000078,5,0.563999891,1,0,1200,390,1,1199,impair,11114 ,2019-10-22_16h03.42.502,SurveyExpMetaMem,3.2.3,Win32,60
,,,,,,,,,,,,,,,,,,,,8,2.890000105,2,1.23300004,1,0,1200,1012,1,1199,gunshot,11114 ,2019-10-22_16h03.42.502,SurveyExpMetaMem,3.2.3,Win32,60
,,,,,,,,,,,,,,,,,,,,5,1.239000082,5,0.282999992,1,0,1200,649,1,1199,donkey,11114 ,2019-10-22_16h03.42.502,SurveyExpMetaMem,3.2.3,Win32,60
,,,,,,,,,,,,,,,,,,,,5,2.840999842,5,0.203000069,1,0,1200,840,1,1199,cuisine,11114 ,2019-10-22_16h03.42.502,SurveyExpMetaMem,3.2.3,Win32,60
,,,,,,,,,,,,,,,,,,,,5,2.937000036,4,0.15500021,1,0,1200,1147,1,1199,demand,11114 ,2019-10-22_16h03.42.502,SurveyExpMetaMem,3.2.3,Win32,60
,,,,,,,,,,,,,,,,,,,,6,5.347000122,3,1.305999994,1,0,1200,1095,1,1199,fright,11114 ,2019-10-22_16h03.42.502,SurveyExpMetaMem,3.2.3,Win32,60
,,,,,,,,,,,,,,,,,,,,5,1.830000162,5,0.349999905,1,0,1200,760,1,1199,shrimp,11114 ,2019-10-22_16h03.42.502,SurveyExpMetaMem,3.2.3,Win32,60
,,,,,,,,,,,,,,,,,,,,6,3.511999846,4,0.245000124,1,0,1200,525,1,1199,stagnant,11114 ,2019-10-22_16h03.42.502,SurveyExpMetaMem,3.2.3,Win32,60
,,,,,,,,,,,,,,,,,,,,5,1.338000059,5,0.143999815,1,0,1200,556,1,1199,allege,11114 ,2019-10-22_16h03.42.502,SurveyExpMetaMem,3.2.3,Win32,60
,,,,,,,,,,,,,,,,,,,,5,1.667000055,6,0.171000004,1,0,1200,42,1,1199,accomplish,11114 ,2019-10-22_16h03.42.502,SurveyExpMetaMem,3.2.3,Win32,60
,,,,,,,,,,,,,,,,,,,,5,1.677000046,4,0.078999996,1,0,1200,451,1,1199,lame,11114 ,2019-10-22_16h03.42.502,SurveyExpMetaMem,3.2.3,Win32,60
,,,,,,,,,,,,,,,,,,,,5,1.869999886,5,0.15899992,1,0,1200,434,1,1199,frail,11114 ,2019-10-22_16h03.42.502,SurveyExpMetaMem,3.2.3,Win32,60
,,,,,,,,,,,,,,,,,,,,5,4.631999969,6,0.059000015,1,0,1200,876,1,1199,politeness,11114 ,2019-10-22_16h03.42.502,SurveyExpMetaMem,3.2.3,Win32,60
,,,,,,,,,,,,,,,,,,,,5,1.407999992,4,0.130000114,1,0,1200,456,1,1199,piss,11114 ,2019-10-22_16h03.42.502,SurveyExpMetaMem,3.2.3,Win32,60
,,,,,,,,,,,,,,,,,,,,5,1.184000015,4,0.144000053,1,0,1200,466,1,1199,gnaw,11114 ,2019-10-22_16h03.42.502,SurveyExpMetaMem,3.2.3,Win32,60
,,,,,,,,,,,,,,,,,,,,5,2.108999968,5,0.124000072,1,0,1200,1165,1,1199,revolt,11114 ,2019-10-22_16h03.42.502,SurveyExpMetaMem,3.2.3,Win32,60
,,,,,,,,,,,,,,,,,,,,6,2.375999928,5,0.480000019,1,0,1200,201,1,1199,gorilla,11114 ,2019-10-22_16h03.42.502,SurveyExpMetaMem,3.2.3,Win32,60
,,,,,,,,,,,,,,,,,,,,6,2.911999941,4,0.085000038,1,0,1200,953,1,1199,victim,11114 ,2019-10-22_16h03.42.502,SurveyExpMetaMem,3.2.3,Win32,60
,,,,,,,,,,,,,,,,,,,,5,1.780999899,5,0.131000042,1,0,1200,377,1,1199,complain,11114 ,2019-10-22_16h03.42.502,SurveyExpMetaMem,3.2.3,Win32,60
,,,,,,,,,,,,,,,,,,,,5,0.855999947,5,0.140000105,1,0,1200,501,1,1199,dustpan,11114 ,2019-10-22_16h03.42.502,SurveyExpMetaMem,3.2.3,Win32,60
,,,,,,,,,,,,,,,,,,,,6,1.338999987,4,0.103999853,1,0,1200,930,1,1199,poison,11114 ,2019-10-22_16h03.42.502,SurveyExpMetaMem,3.2.3,Win32,60
,,,,,,,,,,,,,,,,,,,,5,3.878000021,5,0.142999887,1,0,1200,705,1,1199,tolerant,11114 ,2019-10-22_16h03.42.502,SurveyExpMetaMem,3.2.3,Win32,60
,,,,,,,,,,,,,,,,,,,,5,1.342000008,5,0.141000032,1,0,1200,186,1,1199,holiday,11114 ,2019-10-22_16h03.42.502,SurveyExpMetaMem,3.2.3,Win32,60
,,,,,,,,,,,,,,,,,,,,5,3.709000111,5,0.171000004,1,0,1200,392,1,1199,moody,11114 ,2019-10-22_16h03.42.502,SurveyExpMetaMem,3.2.3,Win32,60
,,,,,,,,,,,,,,,,,,,,5,3.497999907,5,0.196000099,1,0,1200,737,1,1199,lamb,11114 ,2019-10-22_16h03.42.502,SurveyExpMetaMem,3.2.3,Win32,60
,,,,,,,,,,,,,,,,,,,,5,3.09100008,5,0.156999826,1,0,1200,331,1,1199,casket,11114 ,2019-10-22_16h03.42.502,SurveyExpMetaMem,3.2.3,Win32,60
,,,,,,,,,,,,,,,,,,,,6,5.130000114,5,0.207000017,1,0,1200,798,1,1199,crystal,11114 ,2019-10-22_16h03.42.502,SurveyExpMetaMem,3.2.3,Win32,60
,,,,,,,,,,,,,,,,,,,,6,3.333999872,4,0.154999971,1,0,1200,324,1,1199,inferiority,11114 ,2019-10-22_16h03.42.502,SurveyExpMetaMem,3.2.3,Win32,60
,,,,,,,,,,,,,,,,,,,,6,1.394999981,6,0.138000011,1,0,1200,48,1,1199,excellence,11114 ,2019-10-22_16h03.42.502,SurveyExpMetaMem,3.2.3,Win32,60
,,,,,,,,,,,,,,,,,,,,7,2.151000023,3,0.172999859,1,0,1200,1128,1,1199,fighting,11114 ,2019-10-22_16h03.42.502,SurveyExpMetaMem,3.2.3,Win32,60
,,,,,,,,,,,,,,,,,,,,6,2.052999973,4,0.268999815,1,0,1200,319,1,1199,malaria,11114 ,2019-10-22_16h03.42.502,SurveyExpMetaMem,3.2.3,Win32,60
,,,,,,,,,,,,,,,,,,,,5,3.092000008,5,0.183000088,1,0,1200,776,1,1199,doll,11114 ,2019-10-22_16h03.42.502,SurveyExpMetaMem,3.2.3,Win32,60
,,,,,,,,,,,,,,,,,,,,5,1.555000067,5,0.133000135,1,0,1200,822,1,1199,clearer,11114 ,2019-10-22_16h03.42.502,SurveyExpMetaMem,3.2.3,Win32,60
,,,,,,,,,,,,,,,,,,,,5,2.236000061,4,0.101999998,1,0,1200,322,1,1199,widow,11114 ,2019-10-22_16h03.42.502,SurveyExpMetaMem,3.2.3,Win32,60
,,,,,,,,,,,,,,,,,,,,5,3.354000092,5,0.144000053,1,0,1200,111,1,1199,band,11114 ,2019-10-22_16h03.42.502,SurveyExpMetaMem,3.2.3,Win32,60
,,,,,,,,,,,,,,,,,,,,5,0.954999924,5,0.138999939,1,0,1200,593,1,1199,errand,11114 ,2019-10-22_16h03.42.502,SurveyExpMetaMem,3.2.3,Win32,60
,,,,,,,,,,,,,,,,,,,,5,0.953000069,5,0.118999958,1,0,1200,777,1,1199,casual,11114 ,2019-10-22_16h03.42.502,SurveyExpMetaMem,3.2.3,Win32,60
,,,,,,,,,,,,,,,,,,,,5,1.293000221,5,0.118999958,1,0,1200,135,1,1199,applause,11114 ,2019-10-22_16h03.42.502,SurveyExpMetaMem,3.2.3,Win32,60
,,,,,,,,,,,,,,,,,,,,3,1.53399992,5,0.430000067,1,0,1200,806,1,1199,tree,11114 ,2019-10-22_16h03.42.502,SurveyExpMetaMem,3.2.3,Win32,60
,,,,,,,,,,,,,,,,,,,,5,2.532999992,5,0.149000168,1,0,1200,861,1,1199,nectar,11114 ,2019-10-22_16h03.42.502,SurveyExpMetaMem,3.2.3,Win32,60
,,,,,,,,,,,,,,,,,,,,5,1.848999977,5,0.17599988,1,0,1200,550,1,1199,fart,11114 ,2019-10-22_16h03.42.502,SurveyExpMetaMem,3.2.3,Win32,60
,,,,,,,,,,,,,,,,,,,,5,2.031999826,5,0.319000006,1,0,1200,832,1,1199,candy,11114 ,2019-10-22_16h03.42.502,SurveyExpMetaMem,3.2.3,Win32,60
,,,,,,,,,,,,,,,,,,,,6,2.621999979,5,0.184000015,1,0,1200,611,1,1199,herring,11114 ,2019-10-22_16h03.42.502,SurveyExpMetaMem,3.2.3,Win32,60
,,,,,,,,,,,,,,,,,,,,5,1.501999855,5,0.178999901,1,0,1200,445,1,1199,bleak,11114 ,2019-10-22_16h03.42.502,SurveyExpMetaMem,3.2.3,Win32,60
,,,,,,,,,,,,,,,,,,,,5,1.629999876,5,0.181999922,1,0,1200,137,1,1199,money,11114 ,2019-10-22_16h03.42.502,SurveyExpMetaMem,3.2.3,Win32,60
,,,,,,,,,,,,,,,,,,,,6,11.50399995,6,0.198999882,1,0,1200,267,1,1199,bold,11114 ,2019-10-22_16h03.42.502,SurveyExpMetaMem,3.2.3,Win32,60
,,,,,,,,,,,,,,,,,,,,5,1.230000019,4,0.194000006,1,0,1200,963,1,1199,dreadful,11114 ,2019-10-22_16h03.42.502,SurveyExpMetaMem,3.2.3,Win32,60
,,,,,,,,,,,,,,,,,,,,5,1.926999807,5,0.149999857,1,0,1200,1191,1,1199,evade,11114 ,2019-10-22_16h03.42.502,SurveyExpMetaMem,3.2.3,Win32,60
,,,,,,,,,,,,,,,,,,,,5,1.398000002,4,0.184000015,1,0,1200,980,1,1199,liar,11114 ,2019-10-22_16h03.42.502,SurveyExpMetaMem,3.2.3,Win32,60
,,,,,,,,,,,,,,,,,,,,5,1.19900012,5,0.147000074,1,0,1200,1027,1,1199,criticism,11114 ,2019-10-22_16h03.42.502,SurveyExpMetaMem,3.2.3,Win32,60
,,,,,,,,,,,,,,,,,,,,5,1.338000059,5,0.148000002,1,0,1200,1119,1,1199,confusion,11114 ,2019-10-22_16h03.42.502,SurveyExpMetaMem,3.2.3,Win32,60
,,,,,,,,,,,,,,,,,,,,5,1.069999933,5,0.171000004,1,0,1200,87,1,1199,cookie,11114 ,2019-10-22_16h03.42.502,SurveyExpMetaMem,3.2.3,Win32,60
,,,,,,,,,,,,,,,,,,,,5,1.253999949,5,0.180999994,1,0,1200,18,1,1199,mail,11114 ,2019-10-22_16h03.42.502,SurveyExpMetaMem,3.2.3,Win32,60
,,,,,,,,,,,,,,,,,,,,7,1.878999949,3,0.31400013,1,0,1200,936,1,1199,assault,11114 ,2019-10-22_16h03.42.502,SurveyExpMetaMem,3.2.3,Win32,60
,,,,,,,,,,,,,,,,,,,,5,3.239000082,5,0.194000006,1,0,1200,1005,1,1199,pissed,11114 ,2019-10-22_16h03.42.502,SurveyExpMetaMem,3.2.3,Win32,60
,,,,,,,,,,,,,,,,,,,,5,1.05099988,5,0.195999861,1,0,1200,506,1,1199,lower,11114 ,2019-10-22_16h03.42.502,SurveyExpMetaMem,3.2.3,Win32,60
,,,,,,,,,,,,,,,,,,,,5,0.796999931,5,0.192000151,1,0,1200,667,1,1199,dew,11114 ,2019-10-22_16h03.42.502,SurveyExpMetaMem,3.2.3,Win32,60
,,,,,,,,,,,,,,,,,,,,5,0.661000013,5,0.177000046,1,0,1200,625,1,1199,hat,11114 ,2019-10-22_16h03.42.502,SurveyExpMetaMem,3.2.3,Win32,60
,,,,,,,,,,,,,,,,,,,,6,1.660000086,6,0.154000044,1,0,1200,195,1,1199,laughing,11114 ,2019-10-22_16h03.42.502,SurveyExpMetaMem,3.2.3,Win32,60
,,,,,,,,,,,,,,,,,,,,4,2.105999947,4,0.144999981,1,0,1200,1122,1,1199,gossip,11114 ,2019-10-22_16h03.42.502,SurveyExpMetaMem,3.2.3,Win32,60
,,,,,,,,,,,,,,,,,,,,5,5.970999956,5,0.167999983,1,0,1200,382,1,1199,vulnerable,11114 ,2019-10-22_16h03.42.502,SurveyExpMetaMem,3.2.3,Win32,60
,,,,,,,,,,,,,,,,,,,,7,1.63499999,7,0.569999933,1,0,1200,144,1,1199,aroused,11114 ,2019-10-22_16h03.42.502,SurveyExpMetaMem,3.2.3,Win32,60
,,,,,,,,,,,,,,,,,,,,8,3.05700016,8,0.184999943,1,0,1200,148,1,1199,victory,11114 ,2019-10-22_16h03.42.502,SurveyExpMetaMem,3.2.3,Win32,60
,,,,,,,,,,,,,,,,,,,,5,2.970000029,5,0.20600009,1,0,1200,1188,1,1199,swear,11114 ,2019-10-22_16h03.42.502,SurveyExpMetaMem,3.2.3,Win32,60
,,,,,,,,,,,,,,,,,,,,5,10.79999995,5,0.299000025,1,0,1200,596,1,1199,factory,11114 ,2019-10-22_16h03.42.502,SurveyExpMetaMem,3.2.3,Win32,60
,,,,,,,,,,,,,,,,,,,,5,2.86500001,5,0.200999975,1,0,1200,717,1,1199,modest,11114 ,2019-10-22_16h03.42.502,SurveyExpMetaMem,3.2.3,Win32,60
,,,,,,,,,,,,,,,,,,,,6,1.794999838,4,0.018000126,1,0,1200,1181,1,1199,blade,11114 ,2019-10-22_16h03.42.502,SurveyExpMetaMem,3.2.3,Win32,60
,,,,,,,,,,,,,,,,,,,,5,0.957000017,5,0.108999968,1,0,1200,738,1,1199,horse,11114 ,2019-10-22_16h03.42.502,SurveyExpMetaMem,3.2.3,Win32,60
,,,,,,,,,,,,,,,,,,,,6,1.467000008,4,0.036000013,1,0,1200,1113,1,1199,dagger,11114 ,2019-10-22_16h03.42.502,SurveyExpMetaMem,3.2.3,Win32,60
,,,,,,,,,,,,,,,,,,,,6,2.102999926,6,0.108999968,1,0,1200,242,1,1199,triumph,11114 ,2019-10-22_16h03.42.502,SurveyExpMetaMem,3.2.3,Win32,60
,,,,,,,,,,,,,,,,,,,,5,0.923000097,5,0.110000134,1,0,1200,661,1,1199,cow,11114 ,2019-10-22_16h03.42.502,SurveyExpMetaMem,3.2.3,Win32,60
,,,,,,,,,,,,,,,,,,,,5,2.124000072,5,0.095000029,1,0,1200,258,1,1199,children,11114 ,2019-10-22_16h03.42.502,SurveyExpMetaMem,3.2.3,Win32,60
,,,,,,,,,,,,,,,,,,,,5,1.014000177,5,0.107000113,1,0,1200,892,1,1199,untroubled,11114 ,2019-10-22_16h03.42.502,SurveyExpMetaMem,3.2.3,Win32,60
,,,,,,,,,,,,,,,,,,,,4,2.88499999,5,0.15199995,1,0,1200,965,1,1199,traffic,11114 ,2019-10-22_16h03.42.502,SurveyExpMetaMem,3.2.3,Win32,60
,,,,,,,,,,,,,,,,,,,,4,1.149999857,5,0.151000023,1,0,1200,664,1,1199,quiet,11114 ,2019-10-22_16h03.42.502,SurveyExpMetaMem,3.2.3,Win32,60
,,,,,,,,,,,,,,,,,,,,4,1.35800004,5,0.166000128,1,0,1200,129,1,1199,fly,11114 ,2019-10-22_16h03.42.502,SurveyExpMetaMem,3.2.3,Win32,60
,,,,,,,,,,,,,,,,,,,,5,1.822000027,5,0.187000036,1,0,1200,5,1,1199,drunk,11114 ,2019-10-22_16h03.42.502,SurveyExpMetaMem,3.2.3,Win32,60
,,,,,,,,,,,,,,,,,,,,5,2.427999973,5,0.154000044,1,0,1200,375,1,1199,manure,11114 ,2019-10-22_16h03.42.502,SurveyExpMetaMem,3.2.3,Win32,60
,,,,,,,,,,,,,,,,,,,,6,1.739000082,5,0.150000095,1,0,1200,43,1,1199,diamond,11114 ,2019-10-22_16h03.42.502,SurveyExpMetaMem,3.2.3,Win32,60
,,,,,,,,,,,,,,,,,,,,6,2.072000027,6,0.149999857,1,0,1200,197,1,1199,happy,11114 ,2019-10-22_16h03.42.502,SurveyExpMetaMem,3.2.3,Win32,60
,,,,,,,,,,,,,,,,,,,,5,2.643999815,5,0.160000086,1,0,1200,209,1,1199,husband,11114 ,2019-10-22_16h03.42.502,SurveyExpMetaMem,3.2.3,Win32,60
,,,,,,,,,,,,,,,,,,,,5,2.620000124,5,0.180000067,1,0,1200,433,1,1199,uninteresting,11114 ,2019-10-22_16h03.42.502,SurveyExpMetaMem,3.2.3,Win32,60
,,,,,,,,,,,,,,,,,,,,5,2.209000111,5,0.164999962,1,0,1200,852,1,1199,caring,11114 ,2019-10-22_16h03.42.502,SurveyExpMetaMem,3.2.3,Win32,60
,,,,,,,,,,,,,,,,,,,,5,1.851999998,5,0.166000128,1,0,1200,158,1,1199,engage,11114 ,2019-10-22_16h03.42.502,SurveyExpMetaMem,3.2.3,Win32,60
,,,,,,,,,,,,,,,,,,,,5,1.417000055,5,0.1650002,1,0,1200,418,1,1199,cheapskate,11114 ,2019-10-22_16h03.42.502,SurveyExpMetaMem,3.2.3,Win32,60
,,,,,,,,,,,,,,,,,,,,6,1.549999952,4,0.204999924,1,0,1200,987,1,1199,disgusted,11114 ,2019-10-22_16h03.42.502,SurveyExpMetaMem,3.2.3,Win32,60
,,,,,,,,,,,,,,,,,,,,5,1.606999874,5,0.179999828,1,0,1200,615,1,1199,lad,11114 ,2019-10-22_16h03.42.502,SurveyExpMetaMem,3.2.3,Win32,60
,,,,,,,,,,,,,,,,,,,,6,1.707999945,6,0.190000057,1,0,1200,91,1,1199,pretty,11114 ,2019-10-22_16h03.42.502,SurveyExpMetaMem,3.2.3,Win32,60
,,,,,,,,,,,,,,,,,,,,5,1.427999973,5,0.16899991,1,0,1200,683,1,1199,scarf,11114 ,2019-10-22_16h03.42.502,SurveyExpMetaMem,3.2.3,Win32,60
,,,,,,,,,,,,,,,,,,,,8,4.172999859,5,0.828000069,1,0,1200,1,1,1199,fuck,11114 ,2019-10-22_16h03.42.502,SurveyExpMetaMem,3.2.3,Win32,60
,,,,,,,,,,,,,,,,,,,,5,3.844000101,5,0.196000099,1,0,1200,561,1,1199,plain,11114 ,2019-10-22_16h03.42.502,SurveyExpMetaMem,3.2.3,Win32,60
,,,,,,,,,,,,,,,,,,,,8,2.546999931,2,0.555000067,1,0,1200,1010,1,1199,arson,11114 ,2019-10-22_16h03.42.502,SurveyExpMetaMem,3.2.3,Win32,60
,,,,,,,,,,,,,,,,,,,,5,1.0849998,5,0.286000013,1,0,1200,741,1,1199,wheat,11114 ,2019-10-22_16h03.42.502,SurveyExpMetaMem,3.2.3,Win32,60
,,,,,,,,,,,,,,,,,,,,5,2.546000004,4,0.046000004,1,0,1200,1131,1,1199,envious,11114 ,2019-10-22_16h03.42.502,SurveyExpMetaMem,3.2.3,Win32,60
,,,,,,,,,,,,,,,,,,,,5,1.372999907,5,0.10800004,1,0,1200,11,1,1199,astonished,11114 ,2019-10-22_16h03.42.502,SurveyExpMetaMem,3.2.3,Win32,60
,,,,,,,,,,,,,,,,,,,,5,0.952000141,5,0.119000196,1,0,1200,665,1,1199,read,11114 ,2019-10-22_16h03.42.502,SurveyExpMetaMem,3.2.3,Win32,60
,,,,,,,,,,,,,,,,,,,,5,0.707000017,5,0.122000217,1,0,1200,545,1,1199,tar,11114 ,2019-10-22_16h03.42.502,SurveyExpMetaMem,3.2.3,Win32,60
,,,,,,,,,,,,,,,,,,,,6,1.960999966,4,0.027000189,1,0,1200,1041,1,1199,sin,11114 ,2019-10-22_16h03.42.502,SurveyExpMetaMem,3.2.3,Win32,60
,,,,,,,,,,,,,,,,,,,,6,1.641000032,6,0.124000072,1,0,1200,235,1,1199,cheery,11114 ,2019-10-22_16h03.42.502,SurveyExpMetaMem,3.2.3,Win32,60
,,,,,,,,,,,,,,,,,,,,5,2.611000061,5,0.126000166,1,0,1200,205,1,1199,outspoken,11114 ,2019-10-22_16h03.42.502,SurveyExpMetaMem,3.2.3,Win32,60
,,,,,,,,,,,,,,,,,,,,5,1.5,4,0.052999973,1,0,1200,1035,1,1199,expel,11114 ,2019-10-22_16h03.42.502,SurveyExpMetaMem,3.2.3,Win32,60
,,,,,,,,,,,,,,,,,,,,5,1.054000139,5,0.126999855,1,0,1200,648,1,1199,beads,11114 ,2019-10-22_16h03.42.502,SurveyExpMetaMem,3.2.3,Win32,60
,,,,,,,,,,,,,,,,,,,,5,1.477999926,4,0.035000086,1,0,1200,1054,1,1199,jealous,11114 ,2019-10-22_16h03.42.502,SurveyExpMetaMem,3.2.3,Win32,60
,,,,,,,,,,,,,,,,,,,,5,4.092000008,4,0.021000147,1,0,1200,555,1,1199,school,11114 ,2019-10-22_16h03.42.502,SurveyExpMetaMem,3.2.3,Win32,60
,,,,,,,,,,,,,,,,,,,,5,2.648000002,5,0.142999887,1,0,1200,421,1,1199,stale,11114 ,2019-10-22_16h03.42.502,SurveyExpMetaMem,3.2.3,Win32,60
,,,,,,,,,,,,,,,,,,,,5,1.400000095,4,0.077000141,1,0,1200,308,1,1199,worthless,11114 ,2019-10-22_16h03.42.502,SurveyExpMetaMem,3.2.3,Win32,60
,,,,,,,,,,,,,,,,,,,,5,1.167000055,4,0.052000046,1,0,1200,446,1,1199,greedy,11114 ,2019-10-22_16h03.42.502,SurveyExpMetaMem,3.2.3,Win32,60
,,,,,,,,,,,,,,,,,,,,5,1.21600008,5,0.127000093,1,0,1200,510,1,1199,excuse,11114 ,2019-10-22_16h03.42.502,SurveyExpMetaMem,3.2.3,Win32,60
,,,,,,,,,,,,,,,,,,,,5,1.032000065,5,0.121999979,1,0,1200,1059,1,1199,harsh,11114 ,2019-10-22_16h03.42.502,SurveyExpMetaMem,3.2.3,Win32,60
,,,,,,,,,,,,,,,,,,,,5,1.785000086,5,0.101999998,1,0,1200,417,1,1199,dummy,11114 ,2019-10-22_16h03.42.502,SurveyExpMetaMem,3.2.3,Win32,60
,,,,,,,,,,,,,,,,,,,,5,0.961999893,5,0.139999866,1,0,1200,931,1,1199,overweight,11114 ,2019-10-22_16h03.42.502,SurveyExpMetaMem,3.2.3,Win32,60
,,,,,,,,,,,,,,,,,,,,6,2.798999786,4,0.029999971,1,0,1200,961,1,1199,crucify,11114 ,2019-10-22_16h03.42.502,SurveyExpMetaMem,3.2.3,Win32,60
,,,,,,,,,,,,,,,,,,,,5,1.245999813,5,0.122999907,1,0,1200,223,1,1199,fashion,11114 ,2019-10-22_16h03.42.502,SurveyExpMetaMem,3.2.3,Win32,60
,,,,,,,,,,,,,,,,,,,,3,2.115999937,5,0.04399991,1,0,1200,1146,1,1199,bug,11114 ,2019-10-22_16h03.42.502,SurveyExpMetaMem,3.2.3,Win32,60
,,,,,,,,,,,,,,,,,,,,3,1.180999994,5,0.050000191,1,0,1200,934,1,1199,sob,11114 ,2019-10-22_16h03.42.502,SurveyExpMetaMem,3.2.3,Win32,60
,,,,,,,,,,,,,,,,,,,,5,1.470000029,5,0.115999937,1,0,1200,368,1,1199,dreary,11114 ,2019-10-22_16h03.42.502,SurveyExpMetaMem,3.2.3,Win32,60
,,,,,,,,,,,,,,,,,,,,5,2.718999863,5,0.127000093,1,0,1200,1016,1,1199,awful,11114 ,2019-10-22_16h03.42.502,SurveyExpMetaMem,3.2.3,Win32,60
,,,,,,,,,,,,,,,,,,,,5,3.739000082,5,0.28399992,1,0,1200,106,1,1199,voyage,11114 ,2019-10-22_16h03.42.502,SurveyExpMetaMem,3.2.3,Win32,60
,,,,,,,,,,,,,,,,,,,,5,2.055999994,5,0.344000101,1,0,1200,381,1,1199,sloppy,11114 ,2019-10-22_16h03.42.502,SurveyExpMetaMem,3.2.3,Win32,60
,,,,,,,,,,,,,,,,,,,,5,0.838000059,5,0.185000181,1,0,1200,700,1,1199,frog,11114 ,2019-10-22_16h03.42.502,SurveyExpMetaMem,3.2.3,Win32,60
,,,,,,,,,,,,,,,,,,,,6,2.177999973,6,0.145999908,1,0,1200,24,1,1199,model,11114 ,2019-10-22_16h03.42.502,SurveyExpMetaMem,3.2.3,Win32,60
,,,,,,,,,,,,,,,,,,,,5,2.477999926,5,0.220999956,1,0,1200,116,1,1199,carnival,11114 ,2019-10-22_16h03.42.502,SurveyExpMetaMem,3.2.3,Win32,60
,,,,,,,,,,,,,,,,,,,,5,3.360000134,5,0.121000051,1,0,1200,470,1,1199,cynical,11114 ,2019-10-22_16h03.42.502,SurveyExpMetaMem,3.2.3,Win32,60
,,,,,,,,,,,,,,,,,,,,5,1.792000055,6,0.058000088,1,0,1200,692,1,1199,medicine,11114 ,2019-10-22_16h03.42.502,SurveyExpMetaMem,3.2.3,Win32,60
,,,,,,,,,,,,,,,,,,,,5,1.476999998,4,0.066999912,1,0,1200,328,1,1199,disgrace,11114 ,2019-10-22_16h03.42.502,SurveyExpMetaMem,3.2.3,Win32,60
,,,,,,,,,,,,,,,,,,,,5,1.891000032,4,0.037999868,1,0,1200,1159,1,1199,rifle,11114 ,2019-10-22_16h03.42.502,SurveyExpMetaMem,3.2.3,Win32,60
,,,,,,,,,,,,,,,,,,,,5,1.006000042,4,0.022000074,1,0,1200,928,1,1199,cruel,11114 ,2019-10-22_16h03.42.502,SurveyExpMetaMem,3.2.3,Win32,60
,,,,,,,,,,,,,,,,,,,,5,1.453000069,5,0.112999916,1,0,1200,785,1,1199,pond,11114 ,2019-10-22_16h03.42.502,SurveyExpMetaMem,3.2.3,Win32,60
,,,,,,,,,,,,,,,,,,,,5,3.008000135,6,0.018000126,1,0,1200,273,1,1199,worthwhile,11114 ,2019-10-22_16h03.42.502,SurveyExpMetaMem,3.2.3,Win32,60
,,,,,,,,,,,,,,,,,,,,5,2.179000139,5,0.120000124,1,0,1200,71,1,1199,spirit,11114 ,2019-10-22_16h03.42.502,SurveyExpMetaMem,3.2.3,Win32,60
,,,,,,,,,,,,,,,,,,,,5,1.364999771,4,0.019000053,1,0,1200,983,1,1199,demonic,11114 ,2019-10-22_16h03.42.502,SurveyExpMetaMem,3.2.3,Win32,60
,,,,,,,,,,,,,,,,,,,,5,3.072000027,4,0.033000231,1,0,1200,1120,1,1199,gun,11114 ,2019-10-22_16h03.42.502,SurveyExpMetaMem,3.2.3,Win32,60
,,,,,,,,,,,,,,,,,,,,5,2.066999912,5,0.131000042,1,0,1200,74,1,1199,explore,11114 ,2019-10-22_16h03.42.502,SurveyExpMetaMem,3.2.3,Win32,60
,,,,,,,,,,,,,,,,,,,,5,1.184000015,5,0.128999949,1,0,1200,632,1,1199,avenue,11114 ,2019-10-22_16h03.42.502,SurveyExpMetaMem,3.2.3,Win32,60
,,,,,,,,,,,,,,,,,,,,5,1.496999979,5,0.135999918,1,0,1200,427,1,1199,doubt,11114 ,2019-10-22_16h03.42.502,SurveyExpMetaMem,3.2.3,Win32,60
,,,,,,,,,,,,,,,,,,,,6,1.562000036,6,0.112999916,1,0,1200,286,1,1199,superstar,11114 ,2019-10-22_16h03.42.502,SurveyExpMetaMem,3.2.3,Win32,60
,,,,,,,,,,,,,,,,,,,,5,2.305000067,5,0.421000004,1,0,1200,1195,1,1199,speech,11114 ,2019-10-22_16h03.42.502,SurveyExpMetaMem,3.2.3,Win32,60
,,,,,,,,,,,,,,,,,,,,5,1.171000004,5,0.143000126,1,0,1200,499,1,1199,stop,11114 ,2019-10-22_16h03.42.502,SurveyExpMetaMem,3.2.3,Win32,60
,,,,,,,,,,,,,,,,,,,,5,2.227999926,5,0.111999989,1,0,1200,454,1,1199,damp,11114 ,2019-10-22_16h03.42.502,SurveyExpMetaMem,3.2.3,Win32,60
,,,,,,,,,,,,,,,,,,,,6,1.819000006,4,0.068000078,1,0,1200,1123,1,1199,haunt,11114 ,2019-10-22_16h03.42.502,SurveyExpMetaMem,3.2.3,Win32,60
,,,,,,,,,,,,,,,,,,,,5,1.256000042,5,0.099999905,1,0,1200,500,1,1199,nosey,11114 ,2019-10-22_16h03.42.502,SurveyExpMetaMem,3.2.3,Win32,60
,,,,,,,,,,,,,,,,,,,,5,1.782000065,5,0.111999989,1,0,1200,653,1,1199,detail,11114 ,2019-10-22_16h03.42.502,SurveyExpMetaMem,3.2.3,Win32,60
,,,,,,,,,,,,,,,,,,,,5,1.162999868,5,0.110999823,1,0,1200,473,1,1199,senseless,11114 ,2019-10-22_16h03.42.502,SurveyExpMetaMem,3.2.3,Win32,60
,,,,,,,,,,,,,,,,,,,,5,0.760999918,5,0.113000154,1,0,1200,600,1,1199,parlor,11114 ,2019-10-22_16h03.42.502,SurveyExpMetaMem,3.2.3,Win32,60
,,,,,,,,,,,,,,,,,,,,5,3.008000135,5,0.111999989,1,0,1200,72,1,1199,attract,11114 ,2019-10-22_16h03.42.502,SurveyExpMetaMem,3.2.3,Win32,60
,,,,,,,,,,,,,,,,,,,,5,1.671999931,5,0.120999813,1,0,1200,623,1,1199,suburban,11114 ,2019-10-22_16h03.42.502,SurveyExpMetaMem,3.2.3,Win32,60
,,,,,,,,,,,,,,,,,,,,7,2.299999952,5,0.059999943,1,0,1200,584,1,1199,anus,11114 ,2019-10-22_16h03.42.502,SurveyExpMetaMem,3.2.3,Win32,60
,,,,,,,,,,,,,,,,,,,,5,6.042999983,5,0.121999979,1,0,1200,989,1,1199,banish,11114 ,2019-10-22_16h03.42.502,SurveyExpMetaMem,3.2.3,Win32,60
,,,,,,,,,,,,,,,,,,,,5,0.820000172,5,0.111999989,1,0,1200,1138,1,1199,wail,11114 ,2019-10-22_16h03.42.502,SurveyExpMetaMem,3.2.3,Win32,60
,,,,,,,,,,,,,,,,,,,,7,1.976999998,3,2.950999975,1,0,1200,944,1,1199,kill,11114 ,2019-10-22_16h03.42.502,SurveyExpMetaMem,3.2.3,Win32,60
,,,,,,,,,,,,,,,,,,,,6,4.082999945,4,0.068000078,1,0,1200,981,1,1199,rage,11114 ,2019-10-22_16h03.42.502,SurveyExpMetaMem,3.2.3,Win32,60
,,,,,,,,,,,,,,,,,,,,5,2.914000034,4,0.036000013,1,0,1200,993,1,1199,remorse,11114 ,2019-10-22_16h03.42.502,SurveyExpMetaMem,3.2.3,Win32,60
,,,,,,,,,,,,,,,,,,,,5,1.22300005,5,0.135999918,1,0,1200,47,1,1199,enjoy,11114 ,2019-10-22_16h03.42.502,SurveyExpMetaMem,3.2.3,Win32,60
,,,,,,,,,,,,,,,,,,,,5,1.030999899,5,0.138000011,1,0,1200,203,1,1199,seal,11114 ,2019-10-22_16h03.42.502,SurveyExpMetaMem,3.2.3,Win32,60
,,,,,,,,,,,,,,,,,,,,5,1.009000063,5,0.157999992,1,0,1200,330,1,1199,sunburn,11114 ,2019-10-22_16h03.42.502,SurveyExpMetaMem,3.2.3,Win32,60
,,,,,,,,,,,,,,,,,,,,5,0.917000055,5,0.144999981,1,0,1200,639,1,1199,outlet,11114 ,2019-10-22_16h03.42.502,SurveyExpMetaMem,3.2.3,Win32,60
,,,,,,,,,,,,,,,,,,,,9,2.312000036,1,0.65199995,1,0,1200,900,1,1199,suicide,11114 ,2019-10-22_16h03.42.502,SurveyExpMetaMem,3.2.3,Win32,60
,,,,,,,,,,,,,,,,,,,,5,1.837000132,5,0.113999844,1,0,1200,217,1,1199,bravery,11114 ,2019-10-22_16h03.42.502,SurveyExpMetaMem,3.2.3,Win32,60
,,,,,,,,,,,,,,,,,,,,5,1.490999937,5,0.108999968,1,0,1200,46,1,1199,god,11114 ,2019-10-22_16h03.42.502,SurveyExpMetaMem,3.2.3,Win32,60
,,,,,,,,,,,,,,,,,,,,5,0.878999949,5,0.35800004,1,0,1200,688,1,1199,jelly,11114 ,2019-10-22_16h03.42.502,SurveyExpMetaMem,3.2.3,Win32,60
,,,,,,,,,,,,,,,,,,,,5,3.246999979,4,0.590999842,1,0,1200,1160,1,1199,enlist,11114 ,2019-10-22_16h03.42.502,SurveyExpMetaMem,3.2.3,Win32,60
,,,,,,,,,,,,,,,,,,,,5,0.837999821,5,0.253000021,1,0,1200,530,1,1199,erase,11114 ,2019-10-22_16h03.42.502,SurveyExpMetaMem,3.2.3,Win32,60
,,,,,,,,,,,,,,,,,,,,6,2.245000124,5,0.325999975,1,0,1200,1053,1,1199,surgery,11114 ,2019-10-22_16h03.42.502,SurveyExpMetaMem,3.2.3,Win32,60
,,,,,,,,,,,,,,,,,,,,5,1.068000078,5,0.167999983,1,0,1200,121,1,1199,self,11114 ,2019-10-22_16h03.42.502,SurveyExpMetaMem,3.2.3,Win32,60
,,,,,,,,,,,,,,,,,,,,7,3.059000015,4,1.296999931,1,0,1200,103,1,1199,conquest,11114 ,2019-10-22_16h03.42.502,SurveyExpMetaMem,3.2.3,Win32,60
,,,,,,,,,,,,,,,,,,,,5,1.356000185,5,0.273999929,1,0,1200,1194,1,1199,obsession,11114 ,2019-10-22_16h03.42.502,SurveyExpMetaMem,3.2.3,Win32,60
,,,,,,,,,,,,,,,,,,,,6,2.210000038,4,0.361000061,1,0,1200,941,1,1199,leprosy,11114 ,2019-10-22_16h03.42.502,SurveyExpMetaMem,3.2.3,Win32,60
,,,,,,,,,,,,,,,,,,,,5,0.861000061,5,0.189999819,1,0,1200,9,1,1199,try,11114 ,2019-10-22_16h03.42.502,SurveyExpMetaMem,3.2.3,Win32,60
,,,,,,,,,,,,,,,,,,,,5,0.850999832,5,0.197999954,1,0,1200,586,1,1199,cab,11114 ,2019-10-22_16h03.42.502,SurveyExpMetaMem,3.2.3,Win32,60
,,,,,,,,,,,,,,,,,,,,5,1.197999954,5,0.191999912,1,0,1200,829,1,1199,innocent,11114 ,2019-10-22_16h03.42.502,SurveyExpMetaMem,3.2.3,Win32,60
,,,,,,,,,,,,,,,,,,,,5,0.815999985,5,0.217000008,1,0,1200,774,1,1199,leaves,11114 ,2019-10-22_16h03.42.502,SurveyExpMetaMem,3.2.3,Win32,60
,,,,,,,,,,,,,,,,,,,,6,1.813000202,4,0.201999903,1,0,1200,1048,1,1199,paranoid,11114 ,2019-10-22_16h03.42.502,SurveyExpMetaMem,3.2.3,Win32,60
,,,,,,,,,,,,,,,,,,,,5,3.235999823,5,0.117000103,1,0,1200,83,1,1199,appreciative,11114 ,2019-10-22_16h03.42.502,SurveyExpMetaMem,3.2.3,Win32,60
,,,,,,,,,,,,,,,,,,,,5,1.452000141,5,0.117000103,1,0,1200,559,1,1199,lazy,11114 ,2019-10-22_16h03.42.502,SurveyExpMetaMem,3.2.3,Win32,60
,,,,,,,,,,,,,,,,,,,,5,2.705999851,4,0.016000032,1,0,1200,534,1,1199,rules,11114 ,2019-10-22_16h03.42.502,SurveyExpMetaMem,3.2.3,Win32,60
,,,,,,,,,,,,,,,,,,,,5,1.644999981,5,0.146999836,1,0,1200,7,1,1199,duet,11114 ,2019-10-22_16h03.42.502,SurveyExpMetaMem,3.2.3,Win32,60
,,,,,,,,,,,,,,,,,,,,5,1.493999958,5,0.130000114,1,0,1200,570,1,1199,muddy,11114 ,2019-10-22_16h03.42.502,SurveyExpMetaMem,3.2.3,Win32,60
,,,,,,,,,,,,,,,,,,,,5,1.787999868,5,0.138999939,1,0,1200,540,1,1199,derelict,11114 ,2019-10-22_16h03.42.502,SurveyExpMetaMem,3.2.3,Win32,60
,,,,,,,,,,,,,,,,,,,,5,1.607000113,5,0.135999918,1,0,1200,638,1,1199,quench,11114 ,2019-10-22_16h03.42.502,SurveyExpMetaMem,3.2.3,Win32,60
,,,,,,,,,,,,,,,,,,,,5,2.333999872,5,0.159999847,1,0,1200,340,1,1199,coward,11114 ,2019-10-22_16h03.42.502,SurveyExpMetaMem,3.2.3,Win32,60
,,,,,,,,,,,,,,,,,,,,3,1.924999952,5,0.270999908,1,0,1200,579,1,1199,bus,11114 ,2019-10-22_16h03.42.502,SurveyExpMetaMem,3.2.3,Win32,60
,,,,,,,,,,,,,,,,,,,,5,1.861999989,5,0.173000097,1,0,1200,685,1,1199,makeup,11114 ,2019-10-22_16h03.42.502,SurveyExpMetaMem,3.2.3,Win32,60
,,,,,,,,,,,,,,,,,,,,5,1.230000019,5,0.194000006,1,0,1200,19,1,1199,firefighter,11114 ,2019-10-22_16h03.42.502,SurveyExpMetaMem,3.2.3,Win32,60
,,,,,,,,,,,,,,,,,,,,5,1.186000109,5,0.55099988,1,0,1200,542,1,1199,loose,11114 ,2019-10-22_16h03.42.502,SurveyExpMetaMem,3.2.3,Win32,60
,,,,,,,,,,,,,,,,,,,,5,2.369999886,5,0.161000013,1,0,1200,684,1,1199,send,11114 ,2019-10-22_16h03.42.502,SurveyExpMetaMem,3.2.3,Win32,60
,,,,,,,,,,,,,,,,,,,,5,1.413000107,5,0.16899991,1,0,1200,794,1,1199,pray,11114 ,2019-10-22_16h03.42.502,SurveyExpMetaMem,3.2.3,Win32,60
,,,,,,,,,,,,,,,,,,,,5,1.08100009,5,0.161999941,1,0,1200,558,1,1199,punk,11114 ,2019-10-22_16h03.42.502,SurveyExpMetaMem,3.2.3,Win32,60
,,,,,,,,,,,,,,,,,,,,6,1.513999939,4,0.092000008,1,0,1200,906,1,1199,syphilis,11114 ,2019-10-22_16h03.42.502,SurveyExpMetaMem,3.2.3,Win32,60
,,,,,,,,,,,,,,,,,,,,7,3.004999876,4,0.074999809,1,0,1200,946,1,1199,amputate,11114 ,2019-10-22_16h03.42.502,SurveyExpMetaMem,3.2.3,Win32,60
,,,,,,,,,,,,,,,,,,,,5,1.161999941,5,0.368000031,1,0,1200,1145,1,1199,officer,11114 ,2019-10-22_16h03.42.502,SurveyExpMetaMem,3.2.3,Win32,60
,,,,,,,,,,,,,,,,,,,,3,1.731000185,5,0.10800004,1,0,1200,883,1,1199,sky,11114 ,2019-10-22_16h03.42.502,SurveyExpMetaMem,3.2.3,Win32,60
,,,,,,,,,,,,,,,,,,,,3,1.4150002,5,0.055000067,1,0,1200,703,1,1199,book,11114 ,2019-10-22_16h03.42.502,SurveyExpMetaMem,3.2.3,Win32,60
,,,,,,,,,,,,,,,,,,,,3,1.621000051,5,0.042999983,1,0,1200,846,1,1199,able,11114 ,2019-10-22_16h03.42.502,SurveyExpMetaMem,3.2.3,Win32,60
,,,,,,,,,,,,,,,,,,,,6,3.67599988,4,0.035000086,1,0,1200,1045,1,1199,scalding,11114 ,2019-10-22_16h03.42.502,SurveyExpMetaMem,3.2.3,Win32,60
,,,,,,,,,,,,,,,,,,,,6,1.407999992,4,0.056999922,1,0,1200,362,1,1199,despair,11114 ,2019-10-22_16h03.42.502,SurveyExpMetaMem,3.2.3,Win32,60
,,,,,,,,,,,,,,,,,,,,5,1.393000126,5,0.161000013,1,0,1200,797,1,1199,hamburger,11114 ,2019-10-22_16h03.42.502,SurveyExpMetaMem,3.2.3,Win32,60
,,,,,,,,,,,,,,,,,,,,5,1.532999992,5,0.164000034,1,0,1200,730,1,1199,slogan,11114 ,2019-10-22_16h03.42.502,SurveyExpMetaMem,3.2.3,Win32,60
,,,,,,,,,,,,,,,,,,,,5,0.889999866,5,0.417000055,1,0,1200,266,1,1199,juice,11114 ,2019-10-22_16h03.42.502,SurveyExpMetaMem,3.2.3,Win32,60
,,,,,,,,,,,,,,,,,,,,5,0.971000195,5,0.166000128,1,0,1200,576,1,1199,policy,11114 ,2019-10-22_16h03.42.502,SurveyExpMetaMem,3.2.3,Win32,60
,,,,,,,,,,,,,,,,,,,,5,2.146000147,4,0.02699995,1,0,1200,356,1,1199,mucous,11114 ,2019-10-22_16h03.42.502,SurveyExpMetaMem,3.2.3,Win32,60
,,,,,,,,,,,,,,,,,,,,5,1.222999811,5,0.154000044,1,0,1200,69,1,1199,special,11114 ,2019-10-22_16h03.42.502,SurveyExpMetaMem,3.2.3,Win32,60
,,,,,,,,,,,,,,,,,,,,5,1.737999916,5,0.126000166,1,0,1200,599,1,1199,obstinate,11114 ,2019-10-22_16h03.42.502,SurveyExpMetaMem,3.2.3,Win32,60
,,,,,,,,,,,,,,,,,,,,5,2.20600009,5,0.148999929,1,0,1200,436,1,1199,mediocre,11114 ,2019-10-22_16h03.42.502,SurveyExpMetaMem,3.2.3,Win32,60
