mouse_4.x,mouse_4.y,mouse_4.leftButton,mouse_4.midButton,mouse_4.rightButton,mouse.x,mouse.y,mouse.leftButton,mouse.midButton,mouse.rightButton,mouse_2.x,mouse_2.y,mouse_2.leftButton,mouse_2.midButton,mouse_2.rightButton,mouse_3.x,mouse_3.y,mouse_3.leftButton,mouse_3.midButton,mouse_3.rightButton,A_key_resp.keys,A_key_resp.rt,key_resp.keys,key_resp.rt,trials.thisRepN,trials.thisTrialN,trials.thisN,trials.thisIndex,trials.ran,trials.order,word,ParticipantID,date,expName,psychopyVersion,OS,frameRate
0.087037037,-0.033333333,1,0,0,0.006481481,-0.083333333,1,0,0,-0.026851852,-0.143518519,1,0,0,0.038888889,0.021296296,1,0,0,3,10.15999985,5,6.451999903,1,0,1200,856,1,1199,leisurely,11125,2019-10-23_13h11.05.171,SurveyExpMetaMem,3.2.3,Win32,60
,,,,,,,,,,,,,,,,,,,,6,12.52799988,5,5.286999941,1,0,1200,924,1,1199,terrible,11125,2019-10-23_13h11.05.171,SurveyExpMetaMem,3.2.3,Win32,60
,,,,,,,,,,,,,,,,,,,,6,5.904000044,7,52.94400001,1,0,1200,22,1,1199,doughnut,11125,2019-10-23_13h11.05.171,SurveyExpMetaMem,3.2.3,Win32,60
,,,,,,,,,,,,,,,,,,,,4,4.674999952,4,2.90899992,1,0,1200,426,1,1199,con,11125,2019-10-23_13h11.05.171,SurveyExpMetaMem,3.2.3,Win32,60
,,,,,,,,,,,,,,,,,,,,8,2.671000004,8,1.269000053,1,0,1200,39,1,1199,birth,11125,2019-10-23_13h11.05.171,SurveyExpMetaMem,3.2.3,Win32,60
,,,,,,,,,,,,,,,,,,,,4,10.00300002,2,2.167999983,1,0,1200,378,1,1199,dislike,11125,2019-10-23_13h11.05.171,SurveyExpMetaMem,3.2.3,Win32,60
,,,,,,,,,,,,,,,,,,,,2,3.519999981,3,2.684999943,1,0,1200,174,1,1199,snow,11125,2019-10-23_13h11.05.171,SurveyExpMetaMem,3.2.3,Win32,60
,,,,,,,,,,,,,,,,,,,,9,4.566999912,9,1.570999861,1,0,1200,138,1,1199,blessings,11125,2019-10-23_13h11.05.171,SurveyExpMetaMem,3.2.3,Win32,60
,,,,,,,,,,,,,,,,,,,,7,1.664000034,6,1.211999893,1,0,1200,153,1,1199,teach,11125,2019-10-23_13h11.05.171,SurveyExpMetaMem,3.2.3,Win32,60
,,,,,,,,,,,,,,,,,,,,6,3.842999935,1,4.601999998,1,0,1200,940,1,1199,war,11125,2019-10-23_13h11.05.171,SurveyExpMetaMem,3.2.3,Win32,60
,,,,,,,,,,,,,,,,,,,,5,2.838000059,5,1.761999846,1,0,1200,564,1,1199,wane,11125,2019-10-23_13h11.05.171,SurveyExpMetaMem,3.2.3,Win32,60
,,,,,,,,,,,,,,,,,,,,7,3.187999964,8,1.575999975,1,0,1200,172,1,1199,potential,11125,2019-10-23_13h11.05.171,SurveyExpMetaMem,3.2.3,Win32,60
,,,,,,,,,,,,,,,,,,,,3,4.054999828,3,4.003999949,1,0,1200,383,1,1199,messy,11125,2019-10-23_13h11.05.171,SurveyExpMetaMem,3.2.3,Win32,60
,,,,,,,,,,,,,,,,,,,,3,16.50300002,3,0.651000023,1,0,1200,1199,1,1199,expensive,11125,2019-10-23_13h11.05.171,SurveyExpMetaMem,3.2.3,Win32,60
,,,,,,,,,,,,,,,,,,,,6,2.261999846,6,1.000999928,1,0,1200,214,1,1199,revive,11125,2019-10-23_13h11.05.171,SurveyExpMetaMem,3.2.3,Win32,60
,,,,,,,,,,,,,,,,,,,,5,1.735000134,7,2.601999998,1,0,1200,212,1,1199,belief,11125,2019-10-23_13h11.05.171,SurveyExpMetaMem,3.2.3,Win32,60
,,,,,,,,,,,,,,,,,,,,2,1.481999874,6,1.04399991,1,0,1200,745,1,1199,inform,11125,2019-10-23_13h11.05.171,SurveyExpMetaMem,3.2.3,Win32,60
,,,,,,,,,,,,,,,,,,,,7,1.525000095,5,3.789000034,1,0,1200,1141,1,1199,shark,11125,2019-10-23_13h11.05.171,SurveyExpMetaMem,3.2.3,Win32,60
,,,,,,,,,,,,,,,,,,,,7,2.055999994,6,0.886000156,1,0,1200,262,1,1199,athletics,11125,2019-10-23_13h11.05.171,SurveyExpMetaMem,3.2.3,Win32,60
,,,,,,,,,,,,,,,,,,,,5,11.21000004,6,1.657999992,1,0,1200,490,1,1199,detached,11125,2019-10-23_13h11.05.171,SurveyExpMetaMem,3.2.3,Win32,60
,,,,,,,,,,,,,,,,,,,,2,3.438000202,6,2.350999832,1,0,1200,843,1,1199,garden,11125,2019-10-23_13h11.05.171,SurveyExpMetaMem,3.2.3,Win32,60
,,,,,,,,,,,,,,,,,,,,8,2.623000145,2,1.174999952,1,0,1200,915,1,1199,abuse,11125,2019-10-23_13h11.05.171,SurveyExpMetaMem,3.2.3,Win32,60
,,,,,,,,,,,,,,,,,,,,2,2.769000053,6,1.436000109,1,0,1200,389,1,1199,gloomy,11125,2019-10-23_13h11.05.171,SurveyExpMetaMem,3.2.3,Win32,60
,,,,,,,,,,,,,,,,,,,,2,2.475999832,6,0.906000137,1,0,1200,765,1,1199,candid,11125,2019-10-23_13h11.05.171,SurveyExpMetaMem,3.2.3,Win32,60
,,,,,,,,,,,,,,,,,,,,7,2.690000057,3,1.052000046,1,0,1200,973,1,1199,anger,11125,2019-10-23_13h11.05.171,SurveyExpMetaMem,3.2.3,Win32,60
,,,,,,,,,,,,,,,,,,,,4,2.826000214,5,1.50999999,1,0,1200,989,1,1199,banish,11125,2019-10-23_13h11.05.171,SurveyExpMetaMem,3.2.3,Win32,60
,,,,,,,,,,,,,,,,,,,,7,3.009000063,1,1.756999969,1,0,1200,908,1,1199,suffer,11125,2019-10-23_13h11.05.171,SurveyExpMetaMem,3.2.3,Win32,60
,,,,,,,,,,,,,,,,,,,,7,4.009000063,6,1.919999838,1,0,1200,886,1,1199,sunflower,11125,2019-10-23_13h11.05.171,SurveyExpMetaMem,3.2.3,Win32,60
,,,,,,,,,,,,,,,,,,,,4,3.848999977,3,1.315999985,1,0,1200,581,1,1199,dork,11125,2019-10-23_13h11.05.171,SurveyExpMetaMem,3.2.3,Win32,60
,,,,,,,,,,,,,,,,,,,,8,2.072000027,9,0.680000067,1,0,1200,164,1,1199,marry,11125,2019-10-23_13h11.05.171,SurveyExpMetaMem,3.2.3,Win32,60
,,,,,,,,,,,,,,,,,,,,8,6.167000055,1,1.296000004,1,0,1200,914,1,1199,fail,11125,2019-10-23_13h11.05.171,SurveyExpMetaMem,3.2.3,Win32,60
,,,,,,,,,,,,,,,,,,,,7,9.166000128,8,2.123000145,1,0,1200,282,1,1199,luck,11125,2019-10-23_13h11.05.171,SurveyExpMetaMem,3.2.3,Win32,60
,,,,,,,,,,,,,,,,,,,,6,71.78000021,3,0.975999832,1,0,1200,492,1,1199,naive,11125,2019-10-23_13h11.05.171,SurveyExpMetaMem,3.2.3,Win32,60
,,,,,,,,,,,,,,,,,,,,9,1.481000185,9,1.058000088,1,0,1200,141,1,1199,surprise,11125,2019-10-23_13h11.05.171,SurveyExpMetaMem,3.2.3,Win32,60
,,,,,,,,,,,,,,,,,,,,9,2.768000126,9,0.571000099,1,0,1200,291,1,1199,fantastic,11125,2019-10-23_13h11.05.171,SurveyExpMetaMem,3.2.3,Win32,60
,,,,,,,,,,,,,,,,,,,,5,2.161999941,5,0.151000023,1,0,1200,436,1,1199,mediocre,11125,2019-10-23_13h11.05.171,SurveyExpMetaMem,3.2.3,Win32,60
,,,,,,,,,,,,,,,,,,,,7,3.299000025,8,0.625,1,0,1200,170,1,1199,entertainment,11125,2019-10-23_13h11.05.171,SurveyExpMetaMem,3.2.3,Win32,60
,,,,,,,,,,,,,,,,,,,,9,1.931999922,9,0.219000101,1,0,1200,184,1,1199,surprised,11125,2019-10-23_13h11.05.171,SurveyExpMetaMem,3.2.3,Win32,60
,,,,,,,,,,,,,,,,,,,,5,4.358999968,9,1.007999897,1,0,1200,732,1,1199,humble,11125,2019-10-23_13h11.05.171,SurveyExpMetaMem,3.2.3,Win32,60
,,,,,,,,,,,,,,,,,,,,3,3.313999891,3,0.569000006,1,0,1200,110,1,1199,animal,11125,2019-10-23_13h11.05.171,SurveyExpMetaMem,3.2.3,Win32,60
,,,,,,,,,,,,,,,,,,,,7,4.789999962,7,0.319000006,1,0,1200,36,1,1199,puppy,11125,2019-10-23_13h11.05.171,SurveyExpMetaMem,3.2.3,Win32,60
,,,,,,,,,,,,,,,,,,,,9,6.470000029,5,2.688999891,1,0,1200,585,1,1199,tatter,11125,2019-10-23_13h11.05.171,SurveyExpMetaMem,3.2.3,Win32,60
,,,,,,,,,,,,,,,,,,,,3,5.180999994,4,1.041999817,1,0,1200,614,1,1199,crossword,11125,2019-10-23_13h11.05.171,SurveyExpMetaMem,3.2.3,Win32,60
,,,,,,,,,,,,,,,,,,,,5,3.287000179,6,2.990999937,1,0,1200,394,1,1199,dump,11125,2019-10-23_13h11.05.171,SurveyExpMetaMem,3.2.3,Win32,60
,,,,,,,,,,,,,,,,,,,,9,1.365999937,2,4.677000046,1,0,1200,380,1,1199,expire,11125,2019-10-23_13h11.05.171,SurveyExpMetaMem,3.2.3,Win32,60
,,,,,,,,,,,,,,,,,,,,5,2.297999859,5,0.861999989,1,0,1200,1177,1,1199,pang,11125,2019-10-23_13h11.05.171,SurveyExpMetaMem,3.2.3,Win32,60
,,,,,,,,,,,,,,,,,,,,6,4.786999941,1,0.467000008,1,0,1200,308,1,1199,worthless,11125,2019-10-23_13h11.05.171,SurveyExpMetaMem,3.2.3,Win32,60
,,,,,,,,,,,,,,,,,,,,3,5.467999935,3,2.671000004,1,0,1200,672,1,1199,ketchup,11125,2019-10-23_13h11.05.171,SurveyExpMetaMem,3.2.3,Win32,60
,,,,,,,,,,,,,,,,,,,,3,2.97300005,7,0.432999849,1,0,1200,266,1,1199,juice,11125,2019-10-23_13h11.05.171,SurveyExpMetaMem,3.2.3,Win32,60
,,,,,,,,,,,,,,,,,,,,2,2.328999996,3,2.421999931,1,0,1200,580,1,1199,fur,11125,2019-10-23_13h11.05.171,SurveyExpMetaMem,3.2.3,Win32,60
,,,,,,,,,,,,,,,,,,,,5,4.877000093,7,0.769000053,1,0,1200,502,1,1199,crap,11125,2019-10-23_13h11.05.171,SurveyExpMetaMem,3.2.3,Win32,60
,,,,,,,,,,,,,,,,,,,,7,5.23300004,8,0.704999924,1,0,1200,286,1,1199,superstar,11125,2019-10-23_13h11.05.171,SurveyExpMetaMem,3.2.3,Win32,60
,,,,,,,,,,,,,,,,,,,,7,3.011000156,6,1.556999922,1,0,1200,448,1,1199,depart,11125,2019-10-23_13h11.05.171,SurveyExpMetaMem,3.2.3,Win32,60
,,,,,,,,,,,,,,,,,,,,2,4.401000023,5,1.339000225,1,0,1200,752,1,1199,milk,11125,2019-10-23_13h11.05.171,SurveyExpMetaMem,3.2.3,Win32,60
,,,,,,,,,,,,,,,,,,,,6,3.101999998,3,1.529000044,1,0,1200,54,1,1199,alcohol,11125,2019-10-23_13h11.05.171,SurveyExpMetaMem,3.2.3,Win32,60
,,,,,,,,,,,,,,,,,,,,4,3.148000002,4,4.026000023,1,0,1200,609,1,1199,candlestick,11125,2019-10-23_13h11.05.171,SurveyExpMetaMem,3.2.3,Win32,60
,,,,,,,,,,,,,,,,,,,,5,1.700999975,5,0.251999855,1,0,1200,768,1,1199,trait,11125,2019-10-23_13h11.05.171,SurveyExpMetaMem,3.2.3,Win32,60
,,,,,,,,,,,,,,,,,,,,7,1.938999891,4,4.021999836,1,0,1200,918,1,1199,gunpoint,11125,2019-10-23_13h11.05.171,SurveyExpMetaMem,3.2.3,Win32,60
,,,,,,,,,,,,,,,,,,,,5,3.294999838,5,0.244999886,1,0,1200,883,1,1199,sky,11125,2019-10-23_13h11.05.171,SurveyExpMetaMem,3.2.3,Win32,60
,,,,,,,,,,,,,,,,,,,,5,2.901000023,4,2.309999943,1,0,1200,576,1,1199,policy,11125,2019-10-23_13h11.05.171,SurveyExpMetaMem,3.2.3,Win32,60
,,,,,,,,,,,,,,,,,,,,8,3.982999802,6,1.904999971,1,0,1200,1193,1,1199,damn,11125,2019-10-23_13h11.05.171,SurveyExpMetaMem,3.2.3,Win32,60
,,,,,,,,,,,,,,,,,,,,1,2.257999897,9,2.194000006,1,0,1200,870,1,1199,safe,11125,2019-10-23_13h11.05.171,SurveyExpMetaMem,3.2.3,Win32,60
,,,,,,,,,,,,,,,,,,,,6,5.582000017,4,1.572000027,1,0,1200,974,1,1199,roach,11125,2019-10-23_13h11.05.171,SurveyExpMetaMem,3.2.3,Win32,60
,,,,,,,,,,,,,,,,,,,,8,2.529999971,2,0.263999939,1,0,1200,971,1,1199,crash,11125,2019-10-23_13h11.05.171,SurveyExpMetaMem,3.2.3,Win32,60
,,,,,,,,,,,,,,,,,,,,9,3.190999985,9,0.63499999,1,0,1200,1064,1,1199,sinful,11125,2019-10-23_13h11.05.171,SurveyExpMetaMem,3.2.3,Win32,60
,,,,,,,,,,,,,,,,,,,,9,4.016000032,2,2.72300005,1,0,1200,167,1,1199,casino,11125,2019-10-23_13h11.05.171,SurveyExpMetaMem,3.2.3,Win32,60
,,,,,,,,,,,,,,,,,,,,1,6.195000172,7,1.250999928,1,0,1200,634,1,1199,glacier,11125,2019-10-23_13h11.05.171,SurveyExpMetaMem,3.2.3,Win32,60
,,,,,,,,,,,,,,,,,,,,8,3.919999838,3,1.027999878,1,0,1200,714,1,1199,courtyard,11125,2019-10-23_13h11.05.171,SurveyExpMetaMem,3.2.3,Win32,60
,,,,,,,,,,,,,,,,,,,,4,5.524999857,3,1.45600009,1,0,1200,258,1,1199,children,11125,2019-10-23_13h11.05.171,SurveyExpMetaMem,3.2.3,Win32,60
,,,,,,,,,,,,,,,,,,,,6,2.330000162,1,0.911999941,1,0,1200,367,1,1199,pathetic,11125,2019-10-23_13h11.05.171,SurveyExpMetaMem,3.2.3,Win32,60
,,,,,,,,,,,,,,,,,,,,5,2.351999998,5,0.181999922,1,0,1200,306,1,1199,gloom,11125,2019-10-23_13h11.05.171,SurveyExpMetaMem,3.2.3,Win32,60
,,,,,,,,,,,,,,,,,,,,5,1.024999857,5,0.370000124,1,0,1200,507,1,1199,smudge,11125,2019-10-23_13h11.05.171,SurveyExpMetaMem,3.2.3,Win32,60
,,,,,,,,,,,,,,,,,,,,5,1.727999926,6,0.105000019,1,0,1200,315,1,1199,zit,11125,2019-10-23_13h11.05.171,SurveyExpMetaMem,3.2.3,Win32,60
,,,,,,,,,,,,,,,,,,,,8,1.995999813,7,0.667999983,1,0,1200,837,1,1199,responsible,11125,2019-10-23_13h11.05.171,SurveyExpMetaMem,3.2.3,Win32,60
,,,,,,,,,,,,,,,,,,,,9,2.234999895,9,0.154000044,1,0,1200,29,1,1199,life,11125,2019-10-23_13h11.05.171,SurveyExpMetaMem,3.2.3,Win32,60
,,,,,,,,,,,,,,,,,,,,7,2.069000006,8,0.292000055,1,0,1200,21,1,1199,game,11125,2019-10-23_13h11.05.171,SurveyExpMetaMem,3.2.3,Win32,60
,,,,,,,,,,,,,,,,,,,,2,4.289000034,1,0.211999893,1,0,1200,330,1,1199,sunburn,11125,2019-10-23_13h11.05.171,SurveyExpMetaMem,3.2.3,Win32,60
,,,,,,,,,,,,,,,,,,,,7,4.802000046,2,1.180999994,1,0,1200,323,1,1199,ungrateful,11125,2019-10-23_13h11.05.171,SurveyExpMetaMem,3.2.3,Win32,60
,,,,,,,,,,,,,,,,,,,,8,3.036000013,1,0.65500021,1,0,1200,1090,1,1199,destruction,11125,2019-10-23_13h11.05.171,SurveyExpMetaMem,3.2.3,Win32,60
,,,,,,,,,,,,,,,,,,,,5,1.738000154,5,0.173000097,1,0,1200,467,1,1199,FALSE,11125,2019-10-23_13h11.05.171,SurveyExpMetaMem,3.2.3,Win32,60
,,,,,,,,,,,,,,,,,,,,7,3.163000107,2,0.57400012,1,0,1200,1016,1,1199,awful,11125,2019-10-23_13h11.05.171,SurveyExpMetaMem,3.2.3,Win32,60
,,,,,,,,,,,,,,,,,,,,8,3.717000008,5,2.111000061,1,0,1200,454,1,1199,damp,11125,2019-10-23_13h11.05.171,SurveyExpMetaMem,3.2.3,Win32,60
,,,,,,,,,,,,,,,,,,,,1,6.075999975,5,0.321000099,1,0,1200,524,1,1199,sigh,11125,2019-10-23_13h11.05.171,SurveyExpMetaMem,3.2.3,Win32,60
,,,,,,,,,,,,,,,,,,,,8,4.874000072,2,1.477999926,1,0,1200,981,1,1199,rage,11125,2019-10-23_13h11.05.171,SurveyExpMetaMem,3.2.3,Win32,60
,,,,,,,,,,,,,,,,,,,,5,1.402999878,5,0.289000034,1,0,1200,803,1,1199,tidy,11125,2019-10-23_13h11.05.171,SurveyExpMetaMem,3.2.3,Win32,60
,,,,,,,,,,,,,,,,,,,,5,1.104000092,5,0.311999798,1,0,1200,1043,1,1199,scold,11125,2019-10-23_13h11.05.171,SurveyExpMetaMem,3.2.3,Win32,60
,,,,,,,,,,,,,,,,,,,,5,2.003999949,4,0.34100008,1,0,1200,535,1,1199,ramble,11125,2019-10-23_13h11.05.171,SurveyExpMetaMem,3.2.3,Win32,60
,,,,,,,,,,,,,,,,,,,,7,3.037000179,8,0.721000195,1,0,1200,289,1,1199,concert,11125,2019-10-23_13h11.05.171,SurveyExpMetaMem,3.2.3,Win32,60
,,,,,,,,,,,,,,,,,,,,7,4.65199995,1,0.710000038,1,0,1200,920,1,1199,hurt,11125,2019-10-23_13h11.05.171,SurveyExpMetaMem,3.2.3,Win32,60
,,,,,,,,,,,,,,,,,,,,6,1.607000113,1,0.421999931,1,0,1200,317,1,1199,cry,11125,2019-10-23_13h11.05.171,SurveyExpMetaMem,3.2.3,Win32,60
,,,,,,,,,,,,,,,,,,,,8,1.595999956,2,0.876000166,1,0,1200,328,1,1199,disgrace,11125,2019-10-23_13h11.05.171,SurveyExpMetaMem,3.2.3,Win32,60
,,,,,,,,,,,,,,,,,,,,8,4.434999943,8,0.279999971,1,0,1200,1073,1,1199,bitch,11125,2019-10-23_13h11.05.171,SurveyExpMetaMem,3.2.3,Win32,60
,,,,,,,,,,,,,,,,,,,,5,2.057999849,5,0.194000006,1,0,1200,465,1,1199,void,11125,2019-10-23_13h11.05.171,SurveyExpMetaMem,3.2.3,Win32,60
,,,,,,,,,,,,,,,,,,,,8,2.170000076,1,1.095999956,1,0,1200,1028,1,1199,terror,11125,2019-10-23_13h11.05.171,SurveyExpMetaMem,3.2.3,Win32,60
,,,,,,,,,,,,,,,,,,,,6,4.851999998,6,1.09100008,1,0,1200,217,1,1199,bravery,11125,2019-10-23_13h11.05.171,SurveyExpMetaMem,3.2.3,Win32,60
,,,,,,,,,,,,,,,,,,,,5,1.575999975,5,0.217000008,1,0,1200,1063,1,1199,quarrel,11125,2019-10-23_13h11.05.171,SurveyExpMetaMem,3.2.3,Win32,60
,,,,,,,,,,,,,,,,,,,,9,3.822999954,1,0.726000071,1,0,1200,926,1,1199,dead,11125,2019-10-23_13h11.05.171,SurveyExpMetaMem,3.2.3,Win32,60
,,,,,,,,,,,,,,,,,,,,8,2.786000013,1,0.406000137,1,0,1200,319,1,1199,malaria,11125,2019-10-23_13h11.05.171,SurveyExpMetaMem,3.2.3,Win32,60
,,,,,,,,,,,,,,,,,,,,6,2.571999788,3,0.969000101,1,0,1200,417,1,1199,dummy,11125,2019-10-23_13h11.05.171,SurveyExpMetaMem,3.2.3,Win32,60
,,,,,,,,,,,,,,,,,,,,5,1.652999878,5,0.154000044,1,0,1200,743,1,1199,herbal,11125,2019-10-23_13h11.05.171,SurveyExpMetaMem,3.2.3,Win32,60
,,,,,,,,,,,,,,,,,,,,7,1.269999981,8,4.558999777,1,0,1200,834,1,1199,crown,11125,2019-10-23_13h11.05.171,SurveyExpMetaMem,3.2.3,Win32,60
,,,,,,,,,,,,,,,,,,,,9,2.052999973,9,0.239000082,1,0,1200,782,1,1199,open,11125,2019-10-23_13h11.05.171,SurveyExpMetaMem,3.2.3,Win32,60
,,,,,,,,,,,,,,,,,,,,6,2.628000021,2,0.371999979,1,0,1200,919,1,1199,loss,11125,2019-10-23_13h11.05.171,SurveyExpMetaMem,3.2.3,Win32,60
,,,,,,,,,,,,,,,,,,,,7,5.042000055,7,1.075999975,1,0,1200,64,1,1199,brain,11125,2019-10-23_13h11.05.171,SurveyExpMetaMem,3.2.3,Win32,60
,,,,,,,,,,,,,,,,,,,,5,2.262000084,4,2.054999828,1,0,1200,459,1,1199,heavy,11125,2019-10-23_13h11.05.171,SurveyExpMetaMem,3.2.3,Win32,60
,,,,,,,,,,,,,,,,,,,,3,3.637000084,4,1.712000132,1,0,1200,529,1,1199,small,11125,2019-10-23_13h11.05.171,SurveyExpMetaMem,3.2.3,Win32,60
,,,,,,,,,,,,,,,,,,,,5,1.944000006,5,0.686000109,1,0,1200,878,1,1199,sleep,11125,2019-10-23_13h11.05.171,SurveyExpMetaMem,3.2.3,Win32,60
,,,,,,,,,,,,,,,,,,,,4,3.642999887,2,1.038000107,1,0,1200,338,1,1199,obesity,11125,2019-10-23_13h11.05.171,SurveyExpMetaMem,3.2.3,Win32,60
,,,,,,,,,,,,,,,,,,,,8,2.414000034,8,0.405999899,1,0,1200,42,1,1199,accomplish,11125,2019-10-23_13h11.05.171,SurveyExpMetaMem,3.2.3,Win32,60
,,,,,,,,,,,,,,,,,,,,5,72.00900006,4,3.871000051,1,0,1200,432,1,1199,resign,11125,2019-10-23_13h11.05.171,SurveyExpMetaMem,3.2.3,Win32,60
,,,,,,,,,,,,,,,,,,,,5,3.299000025,4,0.367999792,1,0,1200,402,1,1199,dismissive,11125,2019-10-23_13h11.05.171,SurveyExpMetaMem,3.2.3,Win32,60
,,,,,,,,,,,,,,,,,,,,4,19.98000002,4,1.270000219,1,0,1200,399,1,1199,withdrawn,11125,2019-10-23_13h11.05.171,SurveyExpMetaMem,3.2.3,Win32,60
,,,,,,,,,,,,,,,,,,,,7,3.133000135,7,0.932999849,1,0,1200,201,1,1199,gorilla,11125,2019-10-23_13h11.05.171,SurveyExpMetaMem,3.2.3,Win32,60
,,,,,,,,,,,,,,,,,,,,3,2.858999968,3,2.246000051,1,0,1200,46,1,1199,god,11125,2019-10-23_13h11.05.171,SurveyExpMetaMem,3.2.3,Win32,60
,,,,,,,,,,,,,,,,,,,,5,2.13499999,5,0.212000132,1,0,1200,511,1,1199,slouch,11125,2019-10-23_13h11.05.171,SurveyExpMetaMem,3.2.3,Win32,60
,,,,,,,,,,,,,,,,,,,,7,1.604000092,7,1.234999895,1,0,1200,709,1,1199,ancestor,11125,2019-10-23_13h11.05.171,SurveyExpMetaMem,3.2.3,Win32,60
,,,,,,,,,,,,,,,,,,,,8,2.351999998,3,0.911000013,1,0,1200,1065,1,1199,slap,11125,2019-10-23_13h11.05.171,SurveyExpMetaMem,3.2.3,Win32,60
,,,,,,,,,,,,,,,,,,,,6,3.333999872,2,0.808000088,1,0,1200,150,1,1199,vodka,11125,2019-10-23_13h11.05.171,SurveyExpMetaMem,3.2.3,Win32,60
,,,,,,,,,,,,,,,,,,,,4,3.33100009,1,0.818000078,1,0,1200,477,1,1199,separate,11125,2019-10-23_13h11.05.171,SurveyExpMetaMem,3.2.3,Win32,60
,,,,,,,,,,,,,,,,,,,,6,7.872999907,1,0.787000179,1,0,1200,997,1,1199,injury,11125,2019-10-23_13h11.05.171,SurveyExpMetaMem,3.2.3,Win32,60
,,,,,,,,,,,,,,,,,,,,8,4.50999999,8,1.039000034,1,0,1200,766,1,1199,flag,11125,2019-10-23_13h11.05.171,SurveyExpMetaMem,3.2.3,Win32,60
,,,,,,,,,,,,,,,,,,,,7,8.638999939,5,1.237999916,1,0,1200,1180,1,1199,heat,11125,2019-10-23_13h11.05.171,SurveyExpMetaMem,3.2.3,Win32,60
,,,,,,,,,,,,,,,,,,,,7,1.339999914,5,1.143999815,1,0,1200,571,1,1199,marrow,11125,2019-10-23_13h11.05.171,SurveyExpMetaMem,3.2.3,Win32,60
,,,,,,,,,,,,,,,,,,,,7,6.152999878,7,1.148000002,1,0,1200,887,1,1199,elegant,11125,2019-10-23_13h11.05.171,SurveyExpMetaMem,3.2.3,Win32,60
,,,,,,,,,,,,,,,,,,,,5,4.372999907,5,0.571000099,1,0,1200,655,1,1199,name,11125,2019-10-23_13h11.05.171,SurveyExpMetaMem,3.2.3,Win32,60
,,,,,,,,,,,,,,,,,,,,8,2.622999907,3,1.2900002,1,0,1200,909,1,1199,terrified,11125,2019-10-23_13h11.05.171,SurveyExpMetaMem,3.2.3,Win32,60
,,,,,,,,,,,,,,,,,,,,5,7.101999998,5,0.374000072,1,0,1200,612,1,1199,propeller,11125,2019-10-23_13h11.05.171,SurveyExpMetaMem,3.2.3,Win32,60
,,,,,,,,,,,,,,,,,,,,3,2.670000076,9,1.939999819,1,0,1200,881,1,1199,protected,11125,2019-10-23_13h11.05.171,SurveyExpMetaMem,3.2.3,Win32,60
,,,,,,,,,,,,,,,,,,,,6,13.45700002,6,3.65199995,1,0,1200,1022,1,1199,creepy,11125,2019-10-23_13h11.05.171,SurveyExpMetaMem,3.2.3,Win32,60
,,,,,,,,,,,,,,,,,,,,7,7.25999999,1,1.004000187,1,0,1200,1087,1,1199,affair,11125,2019-10-23_13h11.05.171,SurveyExpMetaMem,3.2.3,Win32,60
,,,,,,,,,,,,,,,,,,,,5,3.685000181,1,1.269999981,1,0,1200,301,1,1199,sad,11125,2019-10-23_13h11.05.171,SurveyExpMetaMem,3.2.3,Win32,60
,,,,,,,,,,,,,,,,,,,,6,2.558000088,2,0.963000059,1,0,1200,931,1,1199,overweight,11125,2019-10-23_13h11.05.171,SurveyExpMetaMem,3.2.3,Win32,60
,,,,,,,,,,,,,,,,,,,,5,1.429000139,5,0.204999924,1,0,1200,1136,1,1199,appall,11125,2019-10-23_13h11.05.171,SurveyExpMetaMem,3.2.3,Win32,60
,,,,,,,,,,,,,,,,,,,,6,2.203999996,8,0.82400012,1,0,1200,737,1,1199,lamb,11125,2019-10-23_13h11.05.171,SurveyExpMetaMem,3.2.3,Win32,60
,,,,,,,,,,,,,,,,,,,,5,1.555999994,5,0.246999979,1,0,1200,2,1,1199,zealous,11125,2019-10-23_13h11.05.171,SurveyExpMetaMem,3.2.3,Win32,60
,,,,,,,,,,,,,,,,,,,,6,2.874000072,2,0.690999985,1,0,1200,530,1,1199,erase,11125,2019-10-23_13h11.05.171,SurveyExpMetaMem,3.2.3,Win32,60
,,,,,,,,,,,,,,,,,,,,5,9.286000013,5,0.721000195,1,0,1200,578,1,1199,govern,11125,2019-10-23_13h11.05.171,SurveyExpMetaMem,3.2.3,Win32,60
,,,,,,,,,,,,,,,,,,,,8,2.89199996,1,1.101999998,1,0,1200,925,1,1199,disloyal,11125,2019-10-23_13h11.05.171,SurveyExpMetaMem,3.2.3,Win32,60
,,,,,,,,,,,,,,,,,,,,4,5.152999878,3,1.430999994,1,0,1200,24,1,1199,model,11125,2019-10-23_13h11.05.171,SurveyExpMetaMem,3.2.3,Win32,60
,,,,,,,,,,,,,,,,,,,,5,3.210000038,5,0.248000145,1,0,1200,370,1,1199,rodent,11125,2019-10-23_13h11.05.171,SurveyExpMetaMem,3.2.3,Win32,60
,,,,,,,,,,,,,,,,,,,,9,1.801000118,9,1.051000118,1,0,1200,295,1,1199,passion,11125,2019-10-23_13h11.05.171,SurveyExpMetaMem,3.2.3,Win32,60
,,,,,,,,,,,,,,,,,,,,3,5.784000158,2,1.180999994,1,0,1200,18,1,1199,mail,11125,2019-10-23_13h11.05.171,SurveyExpMetaMem,3.2.3,Win32,60
,,,,,,,,,,,,,,,,,,,,7,3.434000015,8,2.252000093,1,0,1200,1151,1,1199,drama,11125,2019-10-23_13h11.05.171,SurveyExpMetaMem,3.2.3,Win32,60
,,,,,,,,,,,,,,,,,,,,6,3.825999975,4,0.488000154,1,0,1200,523,1,1199,witch,11125,2019-10-23_13h11.05.171,SurveyExpMetaMem,3.2.3,Win32,60
,,,,,,,,,,,,,,,,,,,,5,1.503999949,5,0.28000021,1,0,1200,332,1,1199,sewage,11125,2019-10-23_13h11.05.171,SurveyExpMetaMem,3.2.3,Win32,60
,,,,,,,,,,,,,,,,,,,,7,1.819999933,2,1.730999947,1,0,1200,979,1,1199,harassment,11125,2019-10-23_13h11.05.171,SurveyExpMetaMem,3.2.3,Win32,60
,,,,,,,,,,,,,,,,,,,,9,11.75699997,9,1.148999929,1,0,1200,84,1,1199,eat,11125,2019-10-23_13h11.05.171,SurveyExpMetaMem,3.2.3,Win32,60
,,,,,,,,,,,,,,,,,,,,5,3.258999825,5,0.228999853,1,0,1200,561,1,1199,plain,11125,2019-10-23_13h11.05.171,SurveyExpMetaMem,3.2.3,Win32,60
,,,,,,,,,,,,,,,,,,,,8,2.03399992,9,2.066999912,1,0,1200,285,1,1199,gold,11125,2019-10-23_13h11.05.171,SurveyExpMetaMem,3.2.3,Win32,60
,,,,,,,,,,,,,,,,,,,,5,2.595000029,4,1.136000156,1,0,1200,419,1,1199,immature,11125,2019-10-23_13h11.05.171,SurveyExpMetaMem,3.2.3,Win32,60
,,,,,,,,,,,,,,,,,,,,8,3.260999918,6,4.069000006,1,0,1200,1041,1,1199,sin,11125,2019-10-23_13h11.05.171,SurveyExpMetaMem,3.2.3,Win32,60
,,,,,,,,,,,,,,,,,,,,9,3.009000063,1,0.649999857,1,0,1200,1108,1,1199,spider,11125,2019-10-23_13h11.05.171,SurveyExpMetaMem,3.2.3,Win32,60
,,,,,,,,,,,,,,,,,,,,4,3.461999893,3,2.005000114,1,0,1200,333,1,1199,weak,11125,2019-10-23_13h11.05.171,SurveyExpMetaMem,3.2.3,Win32,60
,,,,,,,,,,,,,,,,,,,,4,8.016000032,3,1.097000122,1,0,1200,805,1,1199,autumn,11125,2019-10-23_13h11.05.171,SurveyExpMetaMem,3.2.3,Win32,60
,,,,,,,,,,,,,,,,,,,,5,2.846000195,2,2.155999899,1,0,1200,1086,1,1199,irritate,11125,2019-10-23_13h11.05.171,SurveyExpMetaMem,3.2.3,Win32,60
,,,,,,,,,,,,,,,,,,,,9,2.085999966,9,1.344000101,1,0,1200,1127,1,1199,spank,11125,2019-10-23_13h11.05.171,SurveyExpMetaMem,3.2.3,Win32,60
,,,,,,,,,,,,,,,,,,,,5,4.054999828,5,1.023000002,1,0,1200,994,1,1199,repulsed,11125,2019-10-23_13h11.05.171,SurveyExpMetaMem,3.2.3,Win32,60
,,,,,,,,,,,,,,,,,,,,8,2.055999994,4,8.322999954,1,0,1200,1068,1,1199,riot,11125,2019-10-23_13h11.05.171,SurveyExpMetaMem,3.2.3,Win32,60
,,,,,,,,,,,,,,,,,,,,7,1.421000004,7,2.719000101,1,0,1200,134,1,1199,dollar,11125,2019-10-23_13h11.05.171,SurveyExpMetaMem,3.2.3,Win32,60
,,,,,,,,,,,,,,,,,,,,6,1.80700016,7,0.00999999,1,0,1200,113,1,1199,bridesmaid,11125,2019-10-23_13h11.05.171,SurveyExpMetaMem,3.2.3,Win32,60
,,,,,,,,,,,,,,,,,,,,5,3.19299984,5,0.267999887,1,0,1200,836,1,1199,lounge,11125,2019-10-23_13h11.05.171,SurveyExpMetaMem,3.2.3,Win32,60
,,,,,,,,,,,,,,,,,,,,6,1.180999994,5,0.333999872,1,0,1200,464,1,1199,tick,11125,2019-10-23_13h11.05.171,SurveyExpMetaMem,3.2.3,Win32,60
,,,,,,,,,,,,,,,,,,,,4,0.911999941,6,0.669999838,1,0,1200,913,1,1199,ulcer,11125,2019-10-23_13h11.05.171,SurveyExpMetaMem,3.2.3,Win32,60
,,,,,,,,,,,,,,,,,,,,4,3.348999977,7,1.173000097,1,0,1200,849,1,1199,blue,11125,2019-10-23_13h11.05.171,SurveyExpMetaMem,3.2.3,Win32,60
,,,,,,,,,,,,,,,,,,,,4,2.032000065,3,1.265000105,1,0,1200,548,1,1199,vague,11125,2019-10-23_13h11.05.171,SurveyExpMetaMem,3.2.3,Win32,60
,,,,,,,,,,,,,,,,,,,,6,0.996000051,7,0.684999943,1,0,1200,1198,1,1199,lightning,11125,2019-10-23_13h11.05.171,SurveyExpMetaMem,3.2.3,Win32,60
,,,,,,,,,,,,,,,,,,,,7,2.173999786,3,0.328999996,1,0,1200,357,1,1199,whine,11125,2019-10-23_13h11.05.171,SurveyExpMetaMem,3.2.3,Win32,60
,,,,,,,,,,,,,,,,,,,,7,1.118000031,6,0.352999926,1,0,1200,242,1,1199,triumph,11125,2019-10-23_13h11.05.171,SurveyExpMetaMem,3.2.3,Win32,60
,,,,,,,,,,,,,,,,,,,,7,3.731999874,3,0.360000134,1,0,1200,318,1,1199,disappointment,11125,2019-10-23_13h11.05.171,SurveyExpMetaMem,3.2.3,Win32,60
,,,,,,,,,,,,,,,,,,,,7,1.78000021,7,0.435000181,1,0,1200,557,1,1199,class,11125,2019-10-23_13h11.05.171,SurveyExpMetaMem,3.2.3,Win32,60
,,,,,,,,,,,,,,,,,,,,8,2.952000141,9,0.806999922,1,0,1200,97,1,1199,enthusiastic,11125,2019-10-23_13h11.05.171,SurveyExpMetaMem,3.2.3,Win32,60
,,,,,,,,,,,,,,,,,,,,5,1.691999912,5,0.221999884,1,0,1200,729,1,1199,velvet,11125,2019-10-23_13h11.05.171,SurveyExpMetaMem,3.2.3,Win32,60
,,,,,,,,,,,,,,,,,,,,7,1.506999969,7,0.75,1,0,1200,6,1,1199,chest,11125,2019-10-23_13h11.05.171,SurveyExpMetaMem,3.2.3,Win32,60
,,,,,,,,,,,,,,,,,,,,7,1.075000048,6,1.588999987,1,0,1200,859,1,1199,serene,11125,2019-10-23_13h11.05.171,SurveyExpMetaMem,3.2.3,Win32,60
,,,,,,,,,,,,,,,,,,,,5,1.062999964,6,0.502000093,1,0,1200,728,1,1199,patio,11125,2019-10-23_13h11.05.171,SurveyExpMetaMem,3.2.3,Win32,60
,,,,,,,,,,,,,,,,,,,,4,1.18900013,4,1.33100009,1,0,1200,923,1,1199,punish,11125,2019-10-23_13h11.05.171,SurveyExpMetaMem,3.2.3,Win32,60
,,,,,,,,,,,,,,,,,,,,3,0.008000135,2,2.796000004,1,0,1200,353,1,1199,blister,11125,2019-10-23_13h11.05.171,SurveyExpMetaMem,3.2.3,Win32,60
,,,,,,,,,,,,,,,,,,,,4,2.356999874,2,0.516000032,1,0,1200,1048,1,1199,paranoid,11125,2019-10-23_13h11.05.171,SurveyExpMetaMem,3.2.3,Win32,60
,,,,,,,,,,,,,,,,,,,,7,1.436000109,9,1.255000114,1,0,1200,69,1,1199,special,11125,2019-10-23_13h11.05.171,SurveyExpMetaMem,3.2.3,Win32,60
,,,,,,,,,,,,,,,,,,,,8,2.786999941,4,0.912999868,1,0,1200,1000,1,1199,threat,11125,2019-10-23_13h11.05.171,SurveyExpMetaMem,3.2.3,Win32,60
,,,,,,,,,,,,,,,,,,,,7,1.937999964,8,1.967999935,1,0,1200,665,1,1199,read,11125,2019-10-23_13h11.05.171,SurveyExpMetaMem,3.2.3,Win32,60
,,,,,,,,,,,,,,,,,,,,7,1.882999897,8,1.190000057,1,0,1200,218,1,1199,charming,11125,2019-10-23_13h11.05.171,SurveyExpMetaMem,3.2.3,Win32,60
,,,,,,,,,,,,,,,,,,,,7,1.568000078,6,0.971999884,1,0,1200,718,1,1199,flow,11125,2019-10-23_13h11.05.171,SurveyExpMetaMem,3.2.3,Win32,60
,,,,,,,,,,,,,,,,,,,,3,1.680999994,7,0.835999966,1,0,1200,863,1,1199,fireplace,11125,2019-10-23_13h11.05.171,SurveyExpMetaMem,3.2.3,Win32,60
,,,,,,,,,,,,,,,,,,,,8,2.618000031,3,1.618999958,1,0,1200,1115,1,1199,invade,11125,2019-10-23_13h11.05.171,SurveyExpMetaMem,3.2.3,Win32,60
,,,,,,,,,,,,,,,,,,,,7,3.765000105,7,0.852999926,1,0,1200,767,1,1199,civil,11125,2019-10-23_13h11.05.171,SurveyExpMetaMem,3.2.3,Win32,60
,,,,,,,,,,,,,,,,,,,,6,1.019999981,7,2.687999964,1,0,1200,34,1,1199,personality,11125,2019-10-23_13h11.05.171,SurveyExpMetaMem,3.2.3,Win32,60
,,,,,,,,,,,,,,,,,,,,4,2.644999981,3,0.496999979,1,0,1200,443,1,1199,incorrect,11125,2019-10-23_13h11.05.171,SurveyExpMetaMem,3.2.3,Win32,60
,,,,,,,,,,,,,,,,,,,,7,1.136999846,6,0.018999815,1,0,1200,140,1,1199,riches,11125,2019-10-23_13h11.05.171,SurveyExpMetaMem,3.2.3,Win32,60
,,,,,,,,,,,,,,,,,,,,5,3.805000067,5,0.536000013,1,0,1200,590,1,1199,stool,11125,2019-10-23_13h11.05.171,SurveyExpMetaMem,3.2.3,Win32,60
,,,,,,,,,,,,,,,,,,,,3,2.576999903,2,1.907000065,1,0,1200,534,1,1199,rules,11125,2019-10-23_13h11.05.171,SurveyExpMetaMem,3.2.3,Win32,60
,,,,,,,,,,,,,,,,,,,,5,1.325999975,5,0.914000034,1,0,1200,592,1,1199,sweep,11125,2019-10-23_13h11.05.171,SurveyExpMetaMem,3.2.3,Win32,60
,,,,,,,,,,,,,,,,,,,,7,2.008000135,7,1.625,1,0,1200,89,1,1199,cruiseship,11125,2019-10-23_13h11.05.171,SurveyExpMetaMem,3.2.3,Win32,60
,,,,,,,,,,,,,,,,,,,,9,1.619999886,9,0.187000036,1,0,1200,215,1,1199,salary,11125,2019-10-23_13h11.05.171,SurveyExpMetaMem,3.2.3,Win32,60
,,,,,,,,,,,,,,,,,,,,3,3.504999876,3,0.44299984,1,0,1200,408,1,1199,bore,11125,2019-10-23_13h11.05.171,SurveyExpMetaMem,3.2.3,Win32,60
,,,,,,,,,,,,,,,,,,,,5,2.404999971,5,0.157999992,1,0,1200,650,1,1199,native,11125,2019-10-23_13h11.05.171,SurveyExpMetaMem,3.2.3,Win32,60
,,,,,,,,,,,,,,,,,,,,6,1.342999935,6,0.588999987,1,0,1200,700,1,1199,frog,11125,2019-10-23_13h11.05.171,SurveyExpMetaMem,3.2.3,Win32,60
,,,,,,,,,,,,,,,,,,,,7,1.838000059,4,0.177000046,1,0,1200,552,1,1199,shadow,11125,2019-10-23_13h11.05.171,SurveyExpMetaMem,3.2.3,Win32,60
,,,,,,,,,,,,,,,,,,,,6,2.789000034,3,0.323999882,1,0,1200,663,1,1199,trout,11125,2019-10-23_13h11.05.171,SurveyExpMetaMem,3.2.3,Win32,60
,,,,,,,,,,,,,,,,,,,,5,1.029999971,2,0.654999971,1,0,1200,400,1,1199,urine,11125,2019-10-23_13h11.05.171,SurveyExpMetaMem,3.2.3,Win32,60
,,,,,,,,,,,,,,,,,,,,5,1.144999981,6,0.661000013,1,0,1200,721,1,1199,contemporary,11125,2019-10-23_13h11.05.171,SurveyExpMetaMem,3.2.3,Win32,60
,,,,,,,,,,,,,,,,,,,,5,1.819999933,8,0.36500001,1,0,1200,657,1,1199,peanut,11125,2019-10-23_13h11.05.171,SurveyExpMetaMem,3.2.3,Win32,60
,,,,,,,,,,,,,,,,,,,,6,2.582999945,4,0.506999969,1,0,1200,1074,1,1199,detain,11125,2019-10-23_13h11.05.171,SurveyExpMetaMem,3.2.3,Win32,60
,,,,,,,,,,,,,,,,,,,,8,3.201999903,1,0.50999999,1,0,1200,912,1,1199,rabies,11125,2019-10-23_13h11.05.171,SurveyExpMetaMem,3.2.3,Win32,60
,,,,,,,,,,,,,,,,,,,,6,1.573999882,2,0.737999916,1,0,1200,978,1,1199,starving,11125,2019-10-23_13h11.05.171,SurveyExpMetaMem,3.2.3,Win32,60
,,,,,,,,,,,,,,,,,,,,5,2.33100009,7,0.196000099,1,0,1200,241,1,1199,car,11125,2019-10-23_13h11.05.171,SurveyExpMetaMem,3.2.3,Win32,60
,,,,,,,,,,,,,,,,,,,,5,2.102999926,7,1.516000032,1,0,1200,181,1,1199,fascinate,11125,2019-10-23_13h11.05.171,SurveyExpMetaMem,3.2.3,Win32,60
,,,,,,,,,,,,,,,,,,,,8,2.217000008,8,0.577000141,1,0,1200,168,1,1199,mate,11125,2019-10-23_13h11.05.171,SurveyExpMetaMem,3.2.3,Win32,60
,,,,,,,,,,,,,,,,,,,,7,1.120000124,7,1.121000051,1,0,1200,1124,1,1199,seize,11125,2019-10-23_13h11.05.171,SurveyExpMetaMem,3.2.3,Win32,60
,,,,,,,,,,,,,,,,,,,,4,2.984999895,3,0.496000051,1,0,1200,451,1,1199,lame,11125,2019-10-23_13h11.05.171,SurveyExpMetaMem,3.2.3,Win32,60
,,,,,,,,,,,,,,,,,,,,7,2.306999922,1,0.802999973,1,0,1200,911,1,1199,rejection,11125,2019-10-23_13h11.05.171,SurveyExpMetaMem,3.2.3,Win32,60
,,,,,,,,,,,,,,,,,,,,4,86.10700011,3,5.378999949,1,0,1200,210,1,1199,elephant,11125,2019-10-23_13h11.05.171,SurveyExpMetaMem,3.2.3,Win32,60
,,,,,,,,,,,,,,,,,,,,6,1.930999994,6,0.441999912,1,0,1200,1174,1,1199,beast,11125,2019-10-23_13h11.05.171,SurveyExpMetaMem,3.2.3,Win32,60
,,,,,,,,,,,,,,,,,,,,6,2.052999973,3,1.15899992,1,0,1200,1104,1,1199,avalanche,11125,2019-10-23_13h11.05.171,SurveyExpMetaMem,3.2.3,Win32,60
,,,,,,,,,,,,,,,,,,,,3,2.401000023,2,0.470999956,1,0,1200,542,1,1199,loose,11125,2019-10-23_13h11.05.171,SurveyExpMetaMem,3.2.3,Win32,60
,,,,,,,,,,,,,,,,,,,,4,2.95299983,3,0.368999958,1,0,1200,366,1,1199,fatigue,11125,2019-10-23_13h11.05.171,SurveyExpMetaMem,3.2.3,Win32,60
,,,,,,,,,,,,,,,,,,,,6,2.749000072,2,0.534000158,1,0,1200,999,1,1199,burdened,11125,2019-10-23_13h11.05.171,SurveyExpMetaMem,3.2.3,Win32,60
,,,,,,,,,,,,,,,,,,,,7,1.467000008,7,0.894999981,1,0,1200,707,1,1199,adapt,11125,2019-10-23_13h11.05.171,SurveyExpMetaMem,3.2.3,Win32,60
,,,,,,,,,,,,,,,,,,,,7,4.467999935,6,1.013999939,1,0,1200,520,1,1199,gullible,11125,2019-10-23_13h11.05.171,SurveyExpMetaMem,3.2.3,Win32,60
,,,,,,,,,,,,,,,,,,,,5,2.023000002,4,0.347000122,1,0,1200,1035,1,1199,expel,11125,2019-10-23_13h11.05.171,SurveyExpMetaMem,3.2.3,Win32,60
,,,,,,,,,,,,,,,,,,,,6,1.805000067,7,0.679000139,1,0,1200,884,1,1199,grateful,11125,2019-10-23_13h11.05.171,SurveyExpMetaMem,3.2.3,Win32,60
,,,,,,,,,,,,,,,,,,,,7,2.083999872,7,0.267000198,1,0,1200,731,1,1199,decency,11125,2019-10-23_13h11.05.171,SurveyExpMetaMem,3.2.3,Win32,60
,,,,,,,,,,,,,,,,,,,,7,2.443000078,4,0.868000031,1,0,1200,1106,1,1199,pushy,11125,2019-10-23_13h11.05.171,SurveyExpMetaMem,3.2.3,Win32,60
,,,,,,,,,,,,,,,,,,,,5,4.827000141,3,0.536000013,1,0,1200,1069,1,1199,defeat,11125,2019-10-23_13h11.05.171,SurveyExpMetaMem,3.2.3,Win32,60
,,,,,,,,,,,,,,,,,,,,6,10.70299983,7,0.82400012,1,0,1200,70,1,1199,cartoon,11125,2019-10-23_13h11.05.171,SurveyExpMetaMem,3.2.3,Win32,60
,,,,,,,,,,,,,,,,,,,,4,1.758999825,7,0.504000187,1,0,1200,826,1,1199,poem,11125,2019-10-23_13h11.05.171,SurveyExpMetaMem,3.2.3,Win32,60
,,,,,,,,,,,,,,,,,,,,6,3.253999949,3,0.536999941,1,0,1200,1081,1,1199,damage,11125,2019-10-23_13h11.05.171,SurveyExpMetaMem,3.2.3,Win32,60
,,,,,,,,,,,,,,,,,,,,3,2.05099988,6,1.178000212,1,0,1200,354,1,1199,cowardice,11125,2019-10-23_13h11.05.171,SurveyExpMetaMem,3.2.3,Win32,60
,,,,,,,,,,,,,,,,,,,,7,6.623000145,7,0.985999823,1,0,1200,236,1,1199,amaze,11125,2019-10-23_13h11.05.171,SurveyExpMetaMem,3.2.3,Win32,60
,,,,,,,,,,,,,,,,,,,,6,2.605999947,1,2.108999968,1,0,1200,379,1,1199,slob,11125,2019-10-23_13h11.05.171,SurveyExpMetaMem,3.2.3,Win32,60
,,,,,,,,,,,,,,,,,,,,7,2.815999985,6,0.772000074,1,0,1200,96,1,1199,joke,11125,2019-10-23_13h11.05.171,SurveyExpMetaMem,3.2.3,Win32,60
,,,,,,,,,,,,,,,,,,,,5,1.827000141,5,1.255000114,1,0,1200,111,1,1199,band,11125,2019-10-23_13h11.05.171,SurveyExpMetaMem,3.2.3,Win32,60
,,,,,,,,,,,,,,,,,,,,5,1.366000175,5,0.146000147,1,0,1200,438,1,1199,dull,11125,2019-10-23_13h11.05.171,SurveyExpMetaMem,3.2.3,Win32,60
,,,,,,,,,,,,,,,,,,,,6,1.521999836,4,0.195999861,1,0,1200,133,1,1199,prosperous,11125,2019-10-23_13h11.05.171,SurveyExpMetaMem,3.2.3,Win32,60
,,,,,,,,,,,,,,,,,,,,3,3.655999899,3,0.161000013,1,0,1200,701,1,1199,telephone,11125,2019-10-23_13h11.05.171,SurveyExpMetaMem,3.2.3,Win32,60
,,,,,,,,,,,,,,,,,,,,6,2.28399992,2,0.528000116,1,0,1200,948,1,1199,pain,11125,2019-10-23_13h11.05.171,SurveyExpMetaMem,3.2.3,Win32,60
,,,,,,,,,,,,,,,,,,,,7,1.529999971,8,0.532999992,1,0,1200,841,1,1199,bathtub,11125,2019-10-23_13h11.05.171,SurveyExpMetaMem,3.2.3,Win32,60
,,,,,,,,,,,,,,,,,,,,6,4.987999916,2,0.604999781,1,0,1200,347,1,1199,unpleasant,11125,2019-10-23_13h11.05.171,SurveyExpMetaMem,3.2.3,Win32,60
,,,,,,,,,,,,,,,,,,,,3,2.13499999,2,1.143000126,1,0,1200,1168,1,1199,financial,11125,2019-10-23_13h11.05.171,SurveyExpMetaMem,3.2.3,Win32,60
,,,,,,,,,,,,,,,,,,,,7,1.285000086,6,1.565000057,1,0,1200,868,1,1199,grace,11125,2019-10-23_13h11.05.171,SurveyExpMetaMem,3.2.3,Win32,60
,,,,,,,,,,,,,,,,,,,,7,1.595000029,8,1.039000034,1,0,1200,876,1,1199,politeness,11125,2019-10-23_13h11.05.171,SurveyExpMetaMem,3.2.3,Win32,60
,,,,,,,,,,,,,,,,,,,,9,2.203000069,9,0.648000002,1,0,1200,62,1,1199,interested,11125,2019-10-23_13h11.05.171,SurveyExpMetaMem,3.2.3,Win32,60
,,,,,,,,,,,,,,,,,,,,7,3.884000063,6,0.588999987,1,0,1200,121,1,1199,self,11125,2019-10-23_13h11.05.171,SurveyExpMetaMem,3.2.3,Win32,60
,,,,,,,,,,,,,,,,,,,,5,1.868000031,4,0.218999863,1,0,1200,818,1,1199,priest,11125,2019-10-23_13h11.05.171,SurveyExpMetaMem,3.2.3,Win32,60
,,,,,,,,,,,,,,,,,,,,4,2.828000069,2,0.812000036,1,0,1200,487,1,1199,junk,11125,2019-10-23_13h11.05.171,SurveyExpMetaMem,3.2.3,Win32,60
,,,,,,,,,,,,,,,,,,,,5,0.950999975,5,0.313999891,1,0,1200,395,1,1199,lack,11125,2019-10-23_13h11.05.171,SurveyExpMetaMem,3.2.3,Win32,60
,,,,,,,,,,,,,,,,,,,,4,0.944999933,3,0.504000187,1,0,1200,509,1,1199,ash,11125,2019-10-23_13h11.05.171,SurveyExpMetaMem,3.2.3,Win32,60
,,,,,,,,,,,,,,,,,,,,5,1.405999899,3,2.769000053,1,0,1200,583,1,1199,obey,11125,2019-10-23_13h11.05.171,SurveyExpMetaMem,3.2.3,Win32,60
,,,,,,,,,,,,,,,,,,,,7,3.111999989,2,0.657999992,1,0,1200,1019,1,1199,fraud,11125,2019-10-23_13h11.05.171,SurveyExpMetaMem,3.2.3,Win32,60
,,,,,,,,,,,,,,,,,,,,7,1.529999971,8,0.008999825,1,0,1200,950,1,1199,murder,11125,2019-10-23_13h11.05.171,SurveyExpMetaMem,3.2.3,Win32,60
,,,,,,,,,,,,,,,,,,,,5,9.101999998,4,0.430000067,1,0,1200,786,1,1199,afternoon,11125,2019-10-23_13h11.05.171,SurveyExpMetaMem,3.2.3,Win32,60
,,,,,,,,,,,,,,,,,,,,5,1.017000198,4,0.861999989,1,0,1200,706,1,1199,cat,11125,2019-10-23_13h11.05.171,SurveyExpMetaMem,3.2.3,Win32,60
,,,,,,,,,,,,,,,,,,,,7,4.420000076,8,0.572000027,1,0,1200,190,1,1199,rescue,11125,2019-10-23_13h11.05.171,SurveyExpMetaMem,3.2.3,Win32,60
,,,,,,,,,,,,,,,,,,,,5,3.303999901,2,1.007999897,1,0,1200,431,1,1199,itch,11125,2019-10-23_13h11.05.171,SurveyExpMetaMem,3.2.3,Win32,60
,,,,,,,,,,,,,,,,,,,,5,5.164000034,5,0.265000105,1,0,1200,988,1,1199,deserter,11125,2019-10-23_13h11.05.171,SurveyExpMetaMem,3.2.3,Win32,60
,,,,,,,,,,,,,,,,,,,,4,6.455000162,3,1.052999973,1,0,1200,932,1,1199,bankrupt,11125,2019-10-23_13h11.05.171,SurveyExpMetaMem,3.2.3,Win32,60
,,,,,,,,,,,,,,,,,,,,8,1.888000011,9,1.267999887,1,0,1200,176,1,1199,champ,11125,2019-10-23_13h11.05.171,SurveyExpMetaMem,3.2.3,Win32,60
,,,,,,,,,,,,,,,,,,,,5,3.443000078,6,0.187999964,1,0,1200,401,1,1199,feeble,11125,2019-10-23_13h11.05.171,SurveyExpMetaMem,3.2.3,Win32,60
,,,,,,,,,,,,,,,,,,,,4,1.953000069,3,1.046000004,1,0,1200,610,1,1199,miniature,11125,2019-10-23_13h11.05.171,SurveyExpMetaMem,3.2.3,Win32,60
,,,,,,,,,,,,,,,,,,,,3,2.54399991,2,0.984999895,1,0,1200,1154,1,1199,politics,11125,2019-10-23_13h11.05.171,SurveyExpMetaMem,3.2.3,Win32,60
,,,,,,,,,,,,,,,,,,,,5,1.319000006,5,1.069000006,1,0,1200,611,1,1199,herring,11125,2019-10-23_13h11.05.171,SurveyExpMetaMem,3.2.3,Win32,60
,,,,,,,,,,,,,,,,,,,,6,3.74000001,8,0.970000029,1,0,1200,711,1,1199,sympathetic,11125,2019-10-23_13h11.05.171,SurveyExpMetaMem,3.2.3,Win32,60
,,,,,,,,,,,,,,,,,,,,7,2.124000072,3,0.855000019,1,0,1200,902,1,1199,rejected,11125,2019-10-23_13h11.05.171,SurveyExpMetaMem,3.2.3,Win32,60
,,,,,,,,,,,,,,,,,,,,8,2.757999897,8,0.809999943,1,0,1200,792,1,1199,moral,11125,2019-10-23_13h11.05.171,SurveyExpMetaMem,3.2.3,Win32,60
,,,,,,,,,,,,,,,,,,,,9,1.801000118,9,0.611999989,1,0,1200,234,1,1199,redeem,11125,2019-10-23_13h11.05.171,SurveyExpMetaMem,3.2.3,Win32,60
,,,,,,,,,,,,,,,,,,,,6,1.329999924,5,0.46999979,1,0,1200,374,1,1199,sluggish,11125,2019-10-23_13h11.05.171,SurveyExpMetaMem,3.2.3,Win32,60
,,,,,,,,,,,,,,,,,,,,5,1.723999977,5,0.256999969,1,0,1200,648,1,1199,beads,11125,2019-10-23_13h11.05.171,SurveyExpMetaMem,3.2.3,Win32,60
,,,,,,,,,,,,,,,,,,,,6,1.421999931,2,0.582000017,1,0,1200,1066,1,1199,annoy,11125,2019-10-23_13h11.05.171,SurveyExpMetaMem,3.2.3,Win32,60
,,,,,,,,,,,,,,,,,,,,7,1.525000095,8,1.512000084,1,0,1200,82,1,1199,stunning,11125,2019-10-23_13h11.05.171,SurveyExpMetaMem,3.2.3,Win32,60
,,,,,,,,,,,,,,,,,,,,8,2.986000061,9,0.210000038,1,0,1200,246,1,1199,complete,11125,2019-10-23_13h11.05.171,SurveyExpMetaMem,3.2.3,Win32,60
,,,,,,,,,,,,,,,,,,,,9,1.555000067,9,0.295000076,1,0,1200,169,1,1199,aid,11125,2019-10-23_13h11.05.171,SurveyExpMetaMem,3.2.3,Win32,60
,,,,,,,,,,,,,,,,,,,,7,1.139000177,4,0.816999912,1,0,1200,531,1,1199,omit,11125,2019-10-23_13h11.05.171,SurveyExpMetaMem,3.2.3,Win32,60
,,,,,,,,,,,,,,,,,,,,5,0.85800004,5,0.184000015,1,0,1200,678,1,1199,lightbulb,11125,2019-10-23_13h11.05.171,SurveyExpMetaMem,3.2.3,Win32,60
,,,,,,,,,,,,,,,,,,,,9,1.613000154,9,0.157999992,1,0,1200,274,1,1199,song,11125,2019-10-23_13h11.05.171,SurveyExpMetaMem,3.2.3,Win32,60
,,,,,,,,,,,,,,,,,,,,7,2.375,4,0.614000082,1,0,1200,587,1,1199,dissolve,11125,2019-10-23_13h11.05.171,SurveyExpMetaMem,3.2.3,Win32,60
,,,,,,,,,,,,,,,,,,,,9,2.759000063,9,0.184999943,1,0,1200,682,1,1199,camel,11125,2019-10-23_13h11.05.171,SurveyExpMetaMem,3.2.3,Win32,60
,,,,,,,,,,,,,,,,,,,,8,2.669000149,8,0.177000046,1,0,1200,58,1,1199,boost,11125,2019-10-23_13h11.05.171,SurveyExpMetaMem,3.2.3,Win32,60
,,,,,,,,,,,,,,,,,,,,5,3.499000072,5,0.20299983,1,0,1200,668,1,1199,unit,11125,2019-10-23_13h11.05.171,SurveyExpMetaMem,3.2.3,Win32,60
,,,,,,,,,,,,,,,,,,,,5,0.904999971,3,0.537000179,1,0,1200,594,1,1199,moss,11125,2019-10-23_13h11.05.171,SurveyExpMetaMem,3.2.3,Win32,60
,,,,,,,,,,,,,,,,,,,,7,2.512000084,8,0.243000031,1,0,1200,797,1,1199,hamburger,11125,2019-10-23_13h11.05.171,SurveyExpMetaMem,3.2.3,Win32,60
,,,,,,,,,,,,,,,,,,,,6,2.003000021,2,1.513999939,1,0,1200,1098,1,1199,confused,11125,2019-10-23_13h11.05.171,SurveyExpMetaMem,3.2.3,Win32,60
,,,,,,,,,,,,,,,,,,,,1,3.019000053,6,0.851999998,1,0,1200,847,1,1199,moon,11125,2019-10-23_13h11.05.171,SurveyExpMetaMem,3.2.3,Win32,60
,,,,,,,,,,,,,,,,,,,,7,5.349999905,8,0.475999832,1,0,1200,35,1,1199,bright,11125,2019-10-23_13h11.05.171,SurveyExpMetaMem,3.2.3,Win32,60
,,,,,,,,,,,,,,,,,,,,6,1.881999969,8,0.430000067,1,0,1200,798,1,1199,crystal,11125,2019-10-23_13h11.05.171,SurveyExpMetaMem,3.2.3,Win32,60
,,,,,,,,,,,,,,,,,,,,4,3.920000076,5,0.914000034,1,0,1200,748,1,1199,town,11125,2019-10-23_13h11.05.171,SurveyExpMetaMem,3.2.3,Win32,60
,,,,,,,,,,,,,,,,,,,,8,1.369999886,7,0.86500001,1,0,1200,178,1,1199,alive,11125,2019-10-23_13h11.05.171,SurveyExpMetaMem,3.2.3,Win32,60
,,,,,,,,,,,,,,,,,,,,5,1.463999987,5,0.213000059,1,0,1200,283,1,1199,elated,11125,2019-10-23_13h11.05.171,SurveyExpMetaMem,3.2.3,Win32,60
,,,,,,,,,,,,,,,,,,,,5,1.624000072,3,0.487000227,1,0,1200,414,1,1199,pity,11125,2019-10-23_13h11.05.171,SurveyExpMetaMem,3.2.3,Win32,60
,,,,,,,,,,,,,,,,,,,,7,3.05099988,8,0.500999928,1,0,1200,78,1,1199,energetic,11125,2019-10-23_13h11.05.171,SurveyExpMetaMem,3.2.3,Win32,60
,,,,,,,,,,,,,,,,,,,,7,1.818000078,3,0.586999893,1,0,1200,946,1,1199,amputate,11125,2019-10-23_13h11.05.171,SurveyExpMetaMem,3.2.3,Win32,60
,,,,,,,,,,,,,,,,,,,,5,1.986999989,4,0.838000059,1,0,1200,539,1,1199,novice,11125,2019-10-23_13h11.05.171,SurveyExpMetaMem,3.2.3,Win32,60
,,,,,,,,,,,,,,,,,,,,9,2.253000021,9,0.292999983,1,0,1200,98,1,1199,affection,11125,2019-10-23_13h11.05.171,SurveyExpMetaMem,3.2.3,Win32,60
,,,,,,,,,,,,,,,,,,,,8,2.041999817,3,0.910000086,1,0,1200,983,1,1199,demonic,11125,2019-10-23_13h11.05.171,SurveyExpMetaMem,3.2.3,Win32,60
,,,,,,,,,,,,,,,,,,,,7,9.589999914,4,0.588000059,1,0,1200,1157,1,1199,slayer,11125,2019-10-23_13h11.05.171,SurveyExpMetaMem,3.2.3,Win32,60
,,,,,,,,,,,,,,,,,,,,8,1.36500001,7,0.775000095,1,0,1200,290,1,1199,enthusiasm,11125,2019-10-23_13h11.05.171,SurveyExpMetaMem,3.2.3,Win32,60
,,,,,,,,,,,,,,,,,,,,7,1.057999849,4,1.719000101,1,0,1200,1094,1,1199,disruptive,11125,2019-10-23_13h11.05.171,SurveyExpMetaMem,3.2.3,Win32,60
,,,,,,,,,,,,,,,,,,,,7,2.018999815,3,0.930999994,1,0,1200,1088,1,1199,forbid,11125,2019-10-23_13h11.05.171,SurveyExpMetaMem,3.2.3,Win32,60
,,,,,,,,,,,,,,,,,,,,4,12.50800014,4,0.631999969,1,0,1200,311,1,1199,discomfort,11125,2019-10-23_13h11.05.171,SurveyExpMetaMem,3.2.3,Win32,60
,,,,,,,,,,,,,,,,,,,,6,1.087000132,6,1.319999933,1,0,1200,769,1,1199,relate,11125,2019-10-23_13h11.05.171,SurveyExpMetaMem,3.2.3,Win32,60
,,,,,,,,,,,,,,,,,,,,6,1.055999994,3,1.101999998,1,0,1200,189,1,1199,thoughtful,11125,2019-10-23_13h11.05.171,SurveyExpMetaMem,3.2.3,Win32,60
,,,,,,,,,,,,,,,,,,,,8,8.530999899,7,1.034000158,1,0,1200,204,1,1199,crazy,11125,2019-10-23_13h11.05.171,SurveyExpMetaMem,3.2.3,Win32,60
,,,,,,,,,,,,,,,,,,,,8,2.087999821,5,0.238000154,1,0,1200,785,1,1199,pond,11125,2019-10-23_13h11.05.171,SurveyExpMetaMem,3.2.3,Win32,60
,,,,,,,,,,,,,,,,,,,,7,0.90199995,9,1.210999966,1,0,1200,41,1,1199,progress,11125,2019-10-23_13h11.05.171,SurveyExpMetaMem,3.2.3,Win32,60
,,,,,,,,,,,,,,,,,,,,3,2.611999989,6,1.679000139,1,0,1200,864,1,1199,blanket,11125,2019-10-23_13h11.05.171,SurveyExpMetaMem,3.2.3,Win32,60
,,,,,,,,,,,,,,,,,,,,8,5.68200016,9,2.270999908,1,0,1200,278,1,1199,king,11125,2019-10-23_13h11.05.171,SurveyExpMetaMem,3.2.3,Win32,60
,,,,,,,,,,,,,,,,,,,,7,3.036999941,8,1.120000124,1,0,1200,807,1,1199,person,11125,2019-10-23_13h11.05.171,SurveyExpMetaMem,3.2.3,Win32,60
,,,,,,,,,,,,,,,,,,,,8,19.86299992,7,0.778000116,1,0,1200,832,1,1199,candy,11125,2019-10-23_13h11.05.171,SurveyExpMetaMem,3.2.3,Win32,60
,,,,,,,,,,,,,,,,,,,,8,2.026000023,4,0.678999901,1,0,1200,8,1,1199,extreme,11125,2019-10-23_13h11.05.171,SurveyExpMetaMem,3.2.3,Win32,60
,,,,,,,,,,,,,,,,,,,,4,3.388999939,2,0.507999897,1,0,1200,387,1,1199,tax,11125,2019-10-23_13h11.05.171,SurveyExpMetaMem,3.2.3,Win32,60
,,,,,,,,,,,,,,,,,,,,8,5,3,0.695999861,1,0,1200,1062,1,1199,shoplifter,11125,2019-10-23_13h11.05.171,SurveyExpMetaMem,3.2.3,Win32,60
,,,,,,,,,,,,,,,,,,,,8,3.512999773,8,0.355999947,1,0,1200,287,1,1199,optimistic,11125,2019-10-23_13h11.05.171,SurveyExpMetaMem,3.2.3,Win32,60
,,,,,,,,,,,,,,,,,,,,7,1.010999918,5,0.703999996,1,0,1200,232,1,1199,prosper,11125,2019-10-23_13h11.05.171,SurveyExpMetaMem,3.2.3,Win32,60
,,,,,,,,,,,,,,,,,,,,7,1.235000134,8,0.454999924,1,0,1200,182,1,1199,genius,11125,2019-10-23_13h11.05.171,SurveyExpMetaMem,3.2.3,Win32,60
,,,,,,,,,,,,,,,,,,,,8,1.884000063,8,0.389000177,1,0,1200,83,1,1199,appreciative,11125,2019-10-23_13h11.05.171,SurveyExpMetaMem,3.2.3,Win32,60
,,,,,,,,,,,,,,,,,,,,2,6.623000145,1,0.56400013,1,0,1200,518,1,1199,report,11125,2019-10-23_13h11.05.171,SurveyExpMetaMem,3.2.3,Win32,60
,,,,,,,,,,,,,,,,,,,,5,3.33100009,5,0.289999962,1,0,1200,629,1,1199,barn,11125,2019-10-23_13h11.05.171,SurveyExpMetaMem,3.2.3,Win32,60
,,,,,,,,,,,,,,,,,,,,6,1.399999857,5,0.211999893,1,0,1200,620,1,1199,spray,11125,2019-10-23_13h11.05.171,SurveyExpMetaMem,3.2.3,Win32,60
,,,,,,,,,,,,,,,,,,,,7,0.513999939,4,0.460999966,1,0,1200,964,1,1199,grieve,11125,2019-10-23_13h11.05.171,SurveyExpMetaMem,3.2.3,Win32,60
,,,,,,,,,,,,,,,,,,,,7,1.020999908,3,2.087000132,1,0,1200,335,1,1199,decay,11125,2019-10-23_13h11.05.171,SurveyExpMetaMem,3.2.3,Win32,60
,,,,,,,,,,,,,,,,,,,,4,1.133999825,3,0.555999994,1,0,1200,462,1,1199,shallow,11125,2019-10-23_13h11.05.171,SurveyExpMetaMem,3.2.3,Win32,60
,,,,,,,,,,,,,,,,,,,,6,0.723999977,4,0.621000051,1,0,1200,203,1,1199,seal,11125,2019-10-23_13h11.05.171,SurveyExpMetaMem,3.2.3,Win32,60
,,,,,,,,,,,,,,,,,,,,7,0.70600009,7,0.553999901,1,0,1200,779,1,1199,shampoo,11125,2019-10-23_13h11.05.171,SurveyExpMetaMem,3.2.3,Win32,60
,,,,,,,,,,,,,,,,,,,,6,0.726999998,7,0.677999973,1,0,1200,546,1,1199,solemn,11125,2019-10-23_13h11.05.171,SurveyExpMetaMem,3.2.3,Win32,60
,,,,,,,,,,,,,,,,,,,,5,0.710000038,3,0.838999987,1,0,1200,314,1,1199,hopeless,11125,2019-10-23_13h11.05.171,SurveyExpMetaMem,3.2.3,Win32,60
,,,,,,,,,,,,,,,,,,,,7,2.93599987,3,0.447000027,1,0,1200,1182,1,1199,pierce,11125,2019-10-23_13h11.05.171,SurveyExpMetaMem,3.2.3,Win32,60
,,,,,,,,,,,,,,,,,,,,6,1.266000032,4,0.428999901,1,0,1200,929,1,1199,mutilation,11125,2019-10-23_13h11.05.171,SurveyExpMetaMem,3.2.3,Win32,60
,,,,,,,,,,,,,,,,,,,,5,1.345000029,2,0.702000141,1,0,1200,373,1,1199,ignorance,11125,2019-10-23_13h11.05.171,SurveyExpMetaMem,3.2.3,Win32,60
,,,,,,,,,,,,,,,,,,,,4,2.506999969,3,1.023000002,1,0,1200,733,1,1199,poetry,11125,2019-10-23_13h11.05.171,SurveyExpMetaMem,3.2.3,Win32,60
,,,,,,,,,,,,,,,,,,,,6,1.986000061,3,0.506000042,1,0,1200,1018,1,1199,distress,11125,2019-10-23_13h11.05.171,SurveyExpMetaMem,3.2.3,Win32,60
,,,,,,,,,,,,,,,,,,,,4,2.657000065,1,0.663000107,1,0,1200,484,1,1199,leave,11125,2019-10-23_13h11.05.171,SurveyExpMetaMem,3.2.3,Win32,60
,,,,,,,,,,,,,,,,,,,,5,1.192000151,3,0.51699996,1,0,1200,975,1,1199,insecure,11125,2019-10-23_13h11.05.171,SurveyExpMetaMem,3.2.3,Win32,60
,,,,,,,,,,,,,,,,,,,,3,1.407000065,3,0.200999975,1,0,1200,405,1,1199,fatigued,11125,2019-10-23_13h11.05.171,SurveyExpMetaMem,3.2.3,Win32,60
,,,,,,,,,,,,,,,,,,,,6,0.812000036,3,0.289000034,1,0,1200,681,1,1199,fig,11125,2019-10-23_13h11.05.171,SurveyExpMetaMem,3.2.3,Win32,60
,,,,,,,,,,,,,,,,,,,,6,0.629999876,7,0.325999975,1,0,1200,1153,1,1199,mangle,11125,2019-10-23_13h11.05.171,SurveyExpMetaMem,3.2.3,Win32,60
,,,,,,,,,,,,,,,,,,,,4,0.612999916,6,0.262000084,1,0,1200,471,1,1199,chump,11125,2019-10-23_13h11.05.171,SurveyExpMetaMem,3.2.3,Win32,60
,,,,,,,,,,,,,,,,,,,,5,0.48300004,3,0.251999855,1,0,1200,1083,1,1199,delayed,11125,2019-10-23_13h11.05.171,SurveyExpMetaMem,3.2.3,Win32,60
,,,,,,,,,,,,,,,,,,,,5,0.398000002,6,0.513000011,1,0,1200,776,1,1199,doll,11125,2019-10-23_13h11.05.171,SurveyExpMetaMem,3.2.3,Win32,60
,,,,,,,,,,,,,,,,,,,,4,0.539999962,5,0.302000046,1,0,1200,746,1,1199,proper,11125,2019-10-23_13h11.05.171,SurveyExpMetaMem,3.2.3,Win32,60
,,,,,,,,,,,,,,,,,,,,6,0.651000023,8,0.779999971,1,0,1200,654,1,1199,brief,11125,2019-10-23_13h11.05.171,SurveyExpMetaMem,3.2.3,Win32,60
,,,,,,,,,,,,,,,,,,,,7,0.036999941,7,0.641000032,1,0,1200,1194,1,1199,obsession,11125,2019-10-23_13h11.05.171,SurveyExpMetaMem,3.2.3,Win32,60
,,,,,,,,,,,,,,,,,,,,7,1.703999996,6,0.244999886,1,0,1200,159,1,1199,teenager,11125,2019-10-23_13h11.05.171,SurveyExpMetaMem,3.2.3,Win32,60
,,,,,,,,,,,,,,,,,,,,7,0.700000048,7,0.23300004,1,0,1200,741,1,1199,wheat,11125,2019-10-23_13h11.05.171,SurveyExpMetaMem,3.2.3,Win32,60
,,,,,,,,,,,,,,,,,,,,6,0.200999975,5,0.788000107,1,0,1200,173,1,1199,hope,11125,2019-10-23_13h11.05.171,SurveyExpMetaMem,3.2.3,Win32,60
,,,,,,,,,,,,,,,,,,,,4,0.450999975,4,0.388999939,1,0,1200,791,1,1199,shoes,11125,2019-10-23_13h11.05.171,SurveyExpMetaMem,3.2.3,Win32,60
,,,,,,,,,,,,,,,,,,,,3,0.273000002,3,0.41899991,1,0,1200,117,1,1199,powerful,11125,2019-10-23_13h11.05.171,SurveyExpMetaMem,3.2.3,Win32,60
,,,,,,,,,,,,,,,,,,,,5,1.122999907,1,2.580999851,1,0,1200,1071,1,1199,uncomfortable,11125,2019-10-23_13h11.05.171,SurveyExpMetaMem,3.2.3,Win32,60
,,,,,,,,,,,,,,,,,,,,8,1.990999937,4,0.480000019,1,0,1200,533,1,1199,busy,11125,2019-10-23_13h11.05.171,SurveyExpMetaMem,3.2.3,Win32,60
,,,,,,,,,,,,,,,,,,,,6,19.67799997,2,0.500999928,1,0,1200,992,1,1199,addict,11125,2019-10-23_13h11.05.171,SurveyExpMetaMem,3.2.3,Win32,60
,,,,,,,,,,,,,,,,,,,,7,3.273000002,3,1.30099988,1,0,1200,608,1,1199,carrot,11125,2019-10-23_13h11.05.171,SurveyExpMetaMem,3.2.3,Win32,60
,,,,,,,,,,,,,,,,,,,,7,14.06299996,3,0.53399992,1,0,1200,949,1,1199,thief,11125,2019-10-23_13h11.05.171,SurveyExpMetaMem,3.2.3,Win32,60
,,,,,,,,,,,,,,,,,,,,9,2.247999907,2,0.542999983,1,0,1200,967,1,1199,horrible,11125,2019-10-23_13h11.05.171,SurveyExpMetaMem,3.2.3,Win32,60
,,,,,,,,,,,,,,,,,,,,5,1.476999998,5,0.162999868,1,0,1200,165,1,1199,sizzle,11125,2019-10-23_13h11.05.171,SurveyExpMetaMem,3.2.3,Win32,60
,,,,,,,,,,,,,,,,,,,,3,4.983999968,2,0.457000017,1,0,1200,1079,1,1199,critic,11125,2019-10-23_13h11.05.171,SurveyExpMetaMem,3.2.3,Win32,60
,,,,,,,,,,,,,,,,,,,,7,1.532999992,8,0.980999947,1,0,1200,265,1,1199,invent,11125,2019-10-23_13h11.05.171,SurveyExpMetaMem,3.2.3,Win32,60
,,,,,,,,,,,,,,,,,,,,9,1.686000109,9,0.128999949,1,0,1200,292,1,1199,birthday,11125,2019-10-23_13h11.05.171,SurveyExpMetaMem,3.2.3,Win32,60
,,,,,,,,,,,,,,,,,,,,4,1.476999998,3,0.895999908,1,0,1200,305,1,1199,frown,11125,2019-10-23_13h11.05.171,SurveyExpMetaMem,3.2.3,Win32,60
,,,,,,,,,,,,,,,,,,,,7,1.239000082,8,0.726999998,1,0,1200,105,1,1199,curious,11125,2019-10-23_13h11.05.171,SurveyExpMetaMem,3.2.3,Win32,60
,,,,,,,,,,,,,,,,,,,,7,12.18499994,8,3.67200017,1,0,1200,894,1,1199,sunset,11125,2019-10-23_13h11.05.171,SurveyExpMetaMem,3.2.3,Win32,60
,,,,,,,,,,,,,,,,,,,,5,6.012000084,6,1.823000193,1,0,1200,679,1,1199,yellow,11125,2019-10-23_13h11.05.171,SurveyExpMetaMem,3.2.3,Win32,60
,,,,,,,,,,,,,,,,,,,,7,1.621999979,3,0.65899992,1,0,1200,1109,1,1199,germ,11125,2019-10-23_13h11.05.171,SurveyExpMetaMem,3.2.3,Win32,60
,,,,,,,,,,,,,,,,,,,,7,2.753999949,4,2.230999947,1,0,1200,1137,1,1199,knife,11125,2019-10-23_13h11.05.171,SurveyExpMetaMem,3.2.3,Win32,60
,,,,,,,,,,,,,,,,,,,,5,1.953999996,6,2.289999962,1,0,1200,1195,1,1199,speech,11125,2019-10-23_13h11.05.171,SurveyExpMetaMem,3.2.3,Win32,60
,,,,,,,,,,,,,,,,,,,,4,5.594000101,4,0.774999857,1,0,1200,259,1,1199,thin,11125,2019-10-23_13h11.05.171,SurveyExpMetaMem,3.2.3,Win32,60
,,,,,,,,,,,,,,,,,,,,5,3.831999779,6,1.255000114,1,0,1200,943,1,1199,trauma,11125,2019-10-23_13h11.05.171,SurveyExpMetaMem,3.2.3,Win32,60
,,,,,,,,,,,,,,,,,,,,2,3.899999857,3,1.228999853,1,0,1200,740,1,1199,groceries,11125,2019-10-23_13h11.05.171,SurveyExpMetaMem,3.2.3,Win32,60
,,,,,,,,,,,,,,,,,,,,6,7.983999968,7,0.586999893,1,0,1200,845,1,1199,honey,11125,2019-10-23_13h11.05.171,SurveyExpMetaMem,3.2.3,Win32,60
,,,,,,,,,,,,,,,,,,,,3,1.933999777,1,1.186000109,1,0,1200,694,1,1199,pecan,11125,2019-10-23_13h11.05.171,SurveyExpMetaMem,3.2.3,Win32,60
,,,,,,,,,,,,,,,,,,,,5,4.651000023,3,0.312000036,1,0,1200,345,1,1199,unfortunate,11125,2019-10-23_13h11.05.171,SurveyExpMetaMem,3.2.3,Win32,60
,,,,,,,,,,,,,,,,,,,,6,1.220000029,3,0.34800005,1,0,1200,956,1,1199,crushed,11125,2019-10-23_13h11.05.171,SurveyExpMetaMem,3.2.3,Win32,60
,,,,,,,,,,,,,,,,,,,,7,1.401000023,7,0.235999823,1,0,1200,605,1,1199,year,11125,2019-10-23_13h11.05.171,SurveyExpMetaMem,3.2.3,Win32,60
,,,,,,,,,,,,,,,,,,,,8,2.078999996,9,0.481999874,1,0,1200,161,1,1199,limousine,11125,2019-10-23_13h11.05.171,SurveyExpMetaMem,3.2.3,Win32,60
,,,,,,,,,,,,,,,,,,,,7,1.917999983,6,0.838000059,1,0,1200,671,1,1199,windmill,11125,2019-10-23_13h11.05.171,SurveyExpMetaMem,3.2.3,Win32,60
,,,,,,,,,,,,,,,,,,,,5,1.217999935,3,0.221999884,1,0,1200,506,1,1199,lower,11125,2019-10-23_13h11.05.171,SurveyExpMetaMem,3.2.3,Win32,60
,,,,,,,,,,,,,,,,,,,,7,1.364000082,7,0.671999931,1,0,1200,43,1,1199,diamond,11125,2019-10-23_13h11.05.171,SurveyExpMetaMem,3.2.3,Win32,60
,,,,,,,,,,,,,,,,,,,,6,0.694000006,4,0.44299984,1,0,1200,922,1,1199,nightmare,11125,2019-10-23_13h11.05.171,SurveyExpMetaMem,3.2.3,Win32,60
,,,,,,,,,,,,,,,,,,,,6,0.536999941,3,0.656000137,1,0,1200,897,1,1199,peaceful,11125,2019-10-23_13h11.05.171,SurveyExpMetaMem,3.2.3,Win32,60
,,,,,,,,,,,,,,,,,,,,5,2.24000001,4,0.539000034,1,0,1200,636,1,1199,refine,11125,2019-10-23_13h11.05.171,SurveyExpMetaMem,3.2.3,Win32,60
,,,,,,,,,,,,,,,,,,,,7,1.720000029,8,0.509000063,1,0,1200,144,1,1199,aroused,11125,2019-10-23_13h11.05.171,SurveyExpMetaMem,3.2.3,Win32,60
,,,,,,,,,,,,,,,,,,,,4,3.148000002,3,2.961999893,1,0,1200,635,1,1199,sensitive,11125,2019-10-23_13h11.05.171,SurveyExpMetaMem,3.2.3,Win32,60
,,,,,,,,,,,,,,,,,,,,3,6.794000149,7,1.880000114,1,0,1200,71,1,1199,spirit,11125,2019-10-23_13h11.05.171,SurveyExpMetaMem,3.2.3,Win32,60
,,,,,,,,,,,,,,,,,,,,7,3.891000032,7,1.229000092,1,0,1200,1172,1,1199,overwhelmed,11125,2019-10-23_13h11.05.171,SurveyExpMetaMem,3.2.3,Win32,60
,,,,,,,,,,,,,,,,,,,,5,24.03399992,4,0.311000109,1,0,1200,802,1,1199,familiar,11125,2019-10-23_13h11.05.171,SurveyExpMetaMem,3.2.3,Win32,60
,,,,,,,,,,,,,,,,,,,,4,98.5940001,3,0.555000067,1,0,1200,705,1,1199,tolerant,11125,2019-10-23_13h11.05.171,SurveyExpMetaMem,3.2.3,Win32,60
,,,,,,,,,,,,,,,,,,,,4,4.786999941,3,0.338000059,1,0,1200,310,1,1199,lonely,11125,2019-10-23_13h11.05.171,SurveyExpMetaMem,3.2.3,Win32,60
,,,,,,,,,,,,,,,,,,,,6,3.351000071,6,3.129000187,1,0,1200,848,1,1199,graceful,11125,2019-10-23_13h11.05.171,SurveyExpMetaMem,3.2.3,Win32,60
,,,,,,,,,,,,,,,,,,,,6,5.53399992,4,3.308000088,1,0,1200,660,1,1199,rock,11125,2019-10-23_13h11.05.171,SurveyExpMetaMem,3.2.3,Win32,60
,,,,,,,,,,,,,,,,,,,,6,74.15799999,4,2.013000011,1,0,1200,1147,1,1199,demand,11125,2019-10-23_13h11.05.171,SurveyExpMetaMem,3.2.3,Win32,60
,,,,,,,,,,,,,,,,,,,,6,9.878000021,7,0.855000019,1,0,1200,550,1,1199,fart,11125,2019-10-23_13h11.05.171,SurveyExpMetaMem,3.2.3,Win32,60
,,,,,,,,,,,,,,,,,,,,6,2.233999968,4,1.807999849,1,0,1200,1155,1,1199,tangle,11125,2019-10-23_13h11.05.171,SurveyExpMetaMem,3.2.3,Win32,60
,,,,,,,,,,,,,,,,,,,,4,225.573,5,0.016000032,1,0,1200,463,1,1199,limp,11125,2019-10-23_13h11.05.171,SurveyExpMetaMem,3.2.3,Win32,60
,,,,,,,,,,,,,,,,,,,,6,2.01699996,4,1.910000086,1,0,1200,118,1,1199,conquer,11125,2019-10-23_13h11.05.171,SurveyExpMetaMem,3.2.3,Win32,60
,,,,,,,,,,,,,,,,,,,,7,3.264000177,8,0.530999899,1,0,1200,143,1,1199,weekend,11125,2019-10-23_13h11.05.171,SurveyExpMetaMem,3.2.3,Win32,60
,,,,,,,,,,,,,,,,,,,,5,1.626999855,6,1.347000122,1,0,1200,641,1,1199,writer,11125,2019-10-23_13h11.05.171,SurveyExpMetaMem,3.2.3,Win32,60
,,,,,,,,,,,,,,,,,,,,6,3.266000032,7,0.697000027,1,0,1200,936,1,1199,assault,11125,2019-10-23_13h11.05.171,SurveyExpMetaMem,3.2.3,Win32,60
,,,,,,,,,,,,,,,,,,,,4,5.618000031,6,0.89199996,1,0,1200,727,1,1199,author,11125,2019-10-23_13h11.05.171,SurveyExpMetaMem,3.2.3,Win32,60
,,,,,,,,,,,,,,,,,,,,7,1.536999941,7,0.952000141,1,0,1200,254,1,1199,crush,11125,2019-10-23_13h11.05.171,SurveyExpMetaMem,3.2.3,Win32,60
,,,,,,,,,,,,,,,,,,,,7,10.48399997,8,0.398000002,1,0,1200,186,1,1199,holiday,11125,2019-10-23_13h11.05.171,SurveyExpMetaMem,3.2.3,Win32,60
,,,,,,,,,,,,,,,,,,,,6,1.256000042,3,0.517999887,1,0,1200,1080,1,1199,broken,11125,2019-10-23_13h11.05.171,SurveyExpMetaMem,3.2.3,Win32,60
,,,,,,,,,,,,,,,,,,,,6,3.171000004,7,0.573999882,1,0,1200,112,1,1199,jaguar,11125,2019-10-23_13h11.05.171,SurveyExpMetaMem,3.2.3,Win32,60
,,,,,,,,,,,,,,,,,,,,5,1.200000048,5,0.226999998,1,0,1200,699,1,1199,leg,11125,2019-10-23_13h11.05.171,SurveyExpMetaMem,3.2.3,Win32,60
,,,,,,,,,,,,,,,,,,,,6,1.009000063,6,0.536999941,1,0,1200,828,1,1199,cooperative,11125,2019-10-23_13h11.05.171,SurveyExpMetaMem,3.2.3,Win32,60
,,,,,,,,,,,,,,,,,,,,5,1.996999979,6,0.174999952,1,0,1200,553,1,1199,corner,11125,2019-10-23_13h11.05.171,SurveyExpMetaMem,3.2.3,Win32,60
,,,,,,,,,,,,,,,,,,,,7,0.846999884,5,0.309000015,1,0,1200,1009,1,1199,frightened,11125,2019-10-23_13h11.05.171,SurveyExpMetaMem,3.2.3,Win32,60
,,,,,,,,,,,,,,,,,,,,7,0.555000067,6,0.363000154,1,0,1200,355,1,1199,graveyard,11125,2019-10-23_13h11.05.171,SurveyExpMetaMem,3.2.3,Win32,60
,,,,,,,,,,,,,,,,,,,,3,0.586999893,6,1.052000046,1,0,1200,873,1,1199,useful,11125,2019-10-23_13h11.05.171,SurveyExpMetaMem,3.2.3,Win32,60
,,,,,,,,,,,,,,,,,,,,4,0.813999891,6,1.502000093,1,0,1200,600,1,1199,parlor,11125,2019-10-23_13h11.05.171,SurveyExpMetaMem,3.2.3,Win32,60
,,,,,,,,,,,,,,,,,,,,6,0.922999859,4,0.527999878,1,0,1200,205,1,1199,outspoken,11125,2019-10-23_13h11.05.171,SurveyExpMetaMem,3.2.3,Win32,60
,,,,,,,,,,,,,,,,,,,,6,0.693000078,7,0.347000122,1,0,1200,690,1,1199,similar,11125,2019-10-23_13h11.05.171,SurveyExpMetaMem,3.2.3,Win32,60
,,,,,,,,,,,,,,,,,,,,5,0.523000002,3,1.309000015,1,0,1200,397,1,1199,complaint,11125,2019-10-23_13h11.05.171,SurveyExpMetaMem,3.2.3,Win32,60
,,,,,,,,,,,,,,,,,,,,6,0.529999971,5,0.006000042,1,0,1200,615,1,1199,lad,11125,2019-10-23_13h11.05.171,SurveyExpMetaMem,3.2.3,Win32,60
,,,,,,,,,,,,,,,,,,,,4,0.986000061,6,0.558000088,1,0,1200,545,1,1199,tar,11125,2019-10-23_13h11.05.171,SurveyExpMetaMem,3.2.3,Win32,60
,,,,,,,,,,,,,,,,,,,,7,1.430000067,7,0.698000193,1,0,1200,216,1,1199,vigorous,11125,2019-10-23_13h11.05.171,SurveyExpMetaMem,3.2.3,Win32,60
,,,,,,,,,,,,,,,,,,,,6,1.751999855,2,1.066999912,1,0,1200,900,1,1199,suicide,11125,2019-10-23_13h11.05.171,SurveyExpMetaMem,3.2.3,Win32,60
,,,,,,,,,,,,,,,,,,,,7,1.496999979,8,0.315000057,1,0,1200,149,1,1199,loved,11125,2019-10-23_13h11.05.171,SurveyExpMetaMem,3.2.3,Win32,60
,,,,,,,,,,,,,,,,,,,,6,0.866999865,7,0.753999949,1,0,1200,37,1,1199,magnificence,11125,2019-10-23_13h11.05.171,SurveyExpMetaMem,3.2.3,Win32,60
,,,,,,,,,,,,,,,,,,,,6,1.13499999,5,0.46999979,1,0,1200,697,1,1199,clarinet,11125,2019-10-23_13h11.05.171,SurveyExpMetaMem,3.2.3,Win32,60
,,,,,,,,,,,,,,,,,,,,5,0.873999834,7,0.250999928,1,0,1200,503,1,1199,sludge,11125,2019-10-23_13h11.05.171,SurveyExpMetaMem,3.2.3,Win32,60
,,,,,,,,,,,,,,,,,,,,7,1.654000044,6,1.321000099,1,0,1200,725,1,1199,checkerboard,11125,2019-10-23_13h11.05.171,SurveyExpMetaMem,3.2.3,Win32,60
,,,,,,,,,,,,,,,,,,,,4,2.029999971,3,0.453999996,1,0,1200,406,1,1199,tired,11125,2019-10-23_13h11.05.171,SurveyExpMetaMem,3.2.3,Win32,60
,,,,,,,,,,,,,,,,,,,,6,2.119999886,3,0.804999828,1,0,1200,574,1,1199,distracted,11125,2019-10-23_13h11.05.171,SurveyExpMetaMem,3.2.3,Win32,60
,,,,,,,,,,,,,,,,,,,,5,1.311000109,5,0.289000034,1,0,1200,780,1,1199,grass,11125,2019-10-23_13h11.05.171,SurveyExpMetaMem,3.2.3,Win32,60
,,,,,,,,,,,,,,,,,,,,6,0.726999998,7,0.26699996,1,0,1200,476,1,1199,warden,11125,2019-10-23_13h11.05.171,SurveyExpMetaMem,3.2.3,Win32,60
,,,,,,,,,,,,,,,,,,,,6,0.785000086,6,0.009000063,1,0,1200,1159,1,1199,rifle,11125,2019-10-23_13h11.05.171,SurveyExpMetaMem,3.2.3,Win32,60
,,,,,,,,,,,,,,,,,,,,5,0.983999968,4,0.36500001,1,0,1200,757,1,1199,sentiment,11125,2019-10-23_13h11.05.171,SurveyExpMetaMem,3.2.3,Win32,60
,,,,,,,,,,,,,,,,,,,,5,0.751999855,6,0.296999931,1,0,1200,871,1,1199,comfort,11125,2019-10-23_13h11.05.171,SurveyExpMetaMem,3.2.3,Win32,60
,,,,,,,,,,,,,,,,,,,,7,1.061000109,7,0.903000116,1,0,1200,1189,1,1199,lava,11125,2019-10-23_13h11.05.171,SurveyExpMetaMem,3.2.3,Win32,60
,,,,,,,,,,,,,,,,,,,,3,2.102999926,6,0.354000092,1,0,1200,880,1,1199,security,11125,2019-10-23_13h11.05.171,SurveyExpMetaMem,3.2.3,Win32,60
,,,,,,,,,,,,,,,,,,,,7,2.842000008,3,1.121000051,1,0,1200,208,1,1199,wild,11125,2019-10-23_13h11.05.171,SurveyExpMetaMem,3.2.3,Win32,60
,,,,,,,,,,,,,,,,,,,,5,2.231999874,6,0.153000116,1,0,1200,120,1,1199,imaginative,11125,2019-10-23_13h11.05.171,SurveyExpMetaMem,3.2.3,Win32,60
,,,,,,,,,,,,,,,,,,,,6,0.849999905,3,0.347000122,1,0,1200,320,1,1199,deformed,11125,2019-10-23_13h11.05.171,SurveyExpMetaMem,3.2.3,Win32,60
,,,,,,,,,,,,,,,,,,,,5,0.755000114,6,0.24000001,1,0,1200,789,1,1199,green,11125,2019-10-23_13h11.05.171,SurveyExpMetaMem,3.2.3,Win32,60
,,,,,,,,,,,,,,,,,,,,4,0.611999989,6,0.452000141,1,0,1200,995,1,1199,cult,11125,2019-10-23_13h11.05.171,SurveyExpMetaMem,3.2.3,Win32,60
,,,,,,,,,,,,,,,,,,,,4,0.55099988,3,0.291000128,1,0,1200,595,1,1199,vacuum,11125,2019-10-23_13h11.05.171,SurveyExpMetaMem,3.2.3,Win32,60
,,,,,,,,,,,,,,,,,,,,5,0.531000137,6,0.274000168,1,0,1200,568,1,1199,therapy,11125,2019-10-23_13h11.05.171,SurveyExpMetaMem,3.2.3,Win32,60
,,,,,,,,,,,,,,,,,,,,6,0.725999832,7,0.250999928,1,0,1200,1067,1,1199,wicked,11125,2019-10-23_13h11.05.171,SurveyExpMetaMem,3.2.3,Win32,60
,,,,,,,,,,,,,,,,,,,,6,0.609999895,7,0.287000179,1,0,1200,4,1,1199,night,11125,2019-10-23_13h11.05.171,SurveyExpMetaMem,3.2.3,Win32,60
,,,,,,,,,,,,,,,,,,,,4,0.661999941,3,0.434999943,1,0,1200,984,1,1199,despairing,11125,2019-10-23_13h11.05.171,SurveyExpMetaMem,3.2.3,Win32,60
,,,,,,,,,,,,,,,,,,,,7,1.723999977,3,0.326999903,1,0,1200,1055,1,1199,alarm,11125,2019-10-23_13h11.05.171,SurveyExpMetaMem,3.2.3,Win32,60
,,,,,,,,,,,,,,,,,,,,4,1.351999998,6,0.245000124,1,0,1200,616,1,1199,coat,11125,2019-10-23_13h11.05.171,SurveyExpMetaMem,3.2.3,Win32,60
,,,,,,,,,,,,,,,,,,,,6,0.804000139,4,0.285999775,1,0,1200,917,1,1199,slave,11125,2019-10-23_13h11.05.171,SurveyExpMetaMem,3.2.3,Win32,60
,,,,,,,,,,,,,,,,,,,,6,1.265000105,3,0.940999985,1,0,1200,392,1,1199,moody,11125,2019-10-23_13h11.05.171,SurveyExpMetaMem,3.2.3,Win32,60
,,,,,,,,,,,,,,,,,,,,5,1.950999975,5,0.122999907,1,0,1200,145,1,1199,me,11125,2019-10-23_13h11.05.171,SurveyExpMetaMem,3.2.3,Win32,60
,,,,,,,,,,,,,,,,,,,,6,1.188999891,3,0.212000132,1,0,1200,125,1,1199,dancing,11125,2019-10-23_13h11.05.171,SurveyExpMetaMem,3.2.3,Win32,60
,,,,,,,,,,,,,,,,,,,,5,0.876000166,3,0.238000154,1,0,1200,191,1,1199,compassion,11125,2019-10-23_13h11.05.171,SurveyExpMetaMem,3.2.3,Win32,60
,,,,,,,,,,,,,,,,,,,,7,1.634000063,8,0.577000141,1,0,1200,237,1,1199,beautiful,11125,2019-10-23_13h11.05.171,SurveyExpMetaMem,3.2.3,Win32,60
,,,,,,,,,,,,,,,,,,,,7,1.794999838,8,0.229000092,1,0,1200,800,1,1199,authentic,11125,2019-10-23_13h11.05.171,SurveyExpMetaMem,3.2.3,Win32,60
,,,,,,,,,,,,,,,,,,,,6,1.618999958,5,0.450999975,1,0,1200,276,1,1199,pastry,11125,2019-10-23_13h11.05.171,SurveyExpMetaMem,3.2.3,Win32,60
,,,,,,,,,,,,,,,,,,,,6,4.620999813,7,0.861000061,1,0,1200,156,1,1199,gym,11125,2019-10-23_13h11.05.171,SurveyExpMetaMem,3.2.3,Win32,60
,,,,,,,,,,,,,,,,,,,,5,2.350000143,6,0.178999901,1,0,1200,470,1,1199,cynical,11125,2019-10-23_13h11.05.171,SurveyExpMetaMem,3.2.3,Win32,60
,,,,,,,,,,,,,,,,,,,,7,1.55700016,9,1.367000103,1,0,1200,896,1,1199,cuddle,11125,2019-10-23_13h11.05.171,SurveyExpMetaMem,3.2.3,Win32,60
,,,,,,,,,,,,,,,,,,,,7,3.184000015,8,0.629999876,1,0,1200,252,1,1199,infatuated,11125,2019-10-23_13h11.05.171,SurveyExpMetaMem,3.2.3,Win32,60
,,,,,,,,,,,,,,,,,,,,7,1.623000145,7,0.645999908,1,0,1200,1049,1,1199,electrocute,11125,2019-10-23_13h11.05.171,SurveyExpMetaMem,3.2.3,Win32,60
,,,,,,,,,,,,,,,,,,,,8,1.556999922,8,0.767999887,1,0,1200,783,1,1199,sprinkle,11125,2019-10-23_13h11.05.171,SurveyExpMetaMem,3.2.3,Win32,60
,,,,,,,,,,,,,,,,,,,,6,1.289000034,5,0.519999981,1,0,1200,993,1,1199,remorse,11125,2019-10-23_13h11.05.171,SurveyExpMetaMem,3.2.3,Win32,60
,,,,,,,,,,,,,,,,,,,,5,0.225000143,1,1.86500001,1,0,1200,903,1,1199,cancer,11125,2019-10-23_13h11.05.171,SurveyExpMetaMem,3.2.3,Win32,60
,,,,,,,,,,,,,,,,,,,,5,4.053999901,4,0.534999847,1,0,1200,526,1,1199,dry,11125,2019-10-23_13h11.05.171,SurveyExpMetaMem,3.2.3,Win32,60
,,,,,,,,,,,,,,,,,,,,6,3.128000021,7,0.794999838,1,0,1200,209,1,1199,husband,11125,2019-10-23_13h11.05.171,SurveyExpMetaMem,3.2.3,Win32,60
,,,,,,,,,,,,,,,,,,,,4,1.751000166,1,0.779999971,1,0,1200,1078,1,1199,trouble,11125,2019-10-23_13h11.05.171,SurveyExpMetaMem,3.2.3,Win32,60
,,,,,,,,,,,,,,,,,,,,6,2.756000042,7,3.112999916,1,0,1200,844,1,1199,soul,11125,2019-10-23_13h11.05.171,SurveyExpMetaMem,3.2.3,Win32,60
,,,,,,,,,,,,,,,,,,,,7,0.861000061,7,0.436000109,1,0,1200,160,1,1199,reunion,11125,2019-10-23_13h11.05.171,SurveyExpMetaMem,3.2.3,Win32,60
,,,,,,,,,,,,,,,,,,,,5,0.75,7,1.339999914,1,0,1200,675,1,1199,golfer,11125,2019-10-23_13h11.05.171,SurveyExpMetaMem,3.2.3,Win32,60
,,,,,,,,,,,,,,,,,,,,5,0.710000038,5,0.534000158,1,0,1200,491,1,1199,meek,11125,2019-10-23_13h11.05.171,SurveyExpMetaMem,3.2.3,Win32,60
,,,,,,,,,,,,,,,,,,,,6,0.842999935,6,0.574999809,1,0,1200,817,1,1199,countryside,11125,2019-10-23_13h11.05.171,SurveyExpMetaMem,3.2.3,Win32,60
,,,,,,,,,,,,,,,,,,,,6,1.116999865,5,0.474999905,1,0,1200,1085,1,1199,sever,11125,2019-10-23_13h11.05.171,SurveyExpMetaMem,3.2.3,Win32,60
,,,,,,,,,,,,,,,,,,,,8,2.953999996,7,0.617999792,1,0,1200,1135,1,1199,thirsty,11125,2019-10-23_13h11.05.171,SurveyExpMetaMem,3.2.3,Win32,60
,,,,,,,,,,,,,,,,,,,,6,1.38499999,5,0.608999968,1,0,1200,713,1,1199,mobile,11125,2019-10-23_13h11.05.171,SurveyExpMetaMem,3.2.3,Win32,60
,,,,,,,,,,,,,,,,,,,,5,0.719000101,7,0.424000025,1,0,1200,1197,1,1199,command,11125,2019-10-23_13h11.05.171,SurveyExpMetaMem,3.2.3,Win32,60
,,,,,,,,,,,,,,,,,,,,5,1.473999977,5,0.195000172,1,0,1200,820,1,1199,oxygen,11125,2019-10-23_13h11.05.171,SurveyExpMetaMem,3.2.3,Win32,60
,,,,,,,,,,,,,,,,,,,,5,0.154999971,6,1.164000034,1,0,1200,1196,1,1199,breathless,11125,2019-10-23_13h11.05.171,SurveyExpMetaMem,3.2.3,Win32,60
,,,,,,,,,,,,,,,,,,,,6,3.756999969,5,0.551999807,1,0,1200,662,1,1199,bib,11125,2019-10-23_13h11.05.171,SurveyExpMetaMem,3.2.3,Win32,60
,,,,,,,,,,,,,,,,,,,,5,0.648000002,7,0.177999973,1,0,1200,638,1,1199,quench,11125,2019-10-23_13h11.05.171,SurveyExpMetaMem,3.2.3,Win32,60
,,,,,,,,,,,,,,,,,,,,7,1.274000168,3,0.520999908,1,0,1200,1107,1,1199,snake,11125,2019-10-23_13h11.05.171,SurveyExpMetaMem,3.2.3,Win32,60
,,,,,,,,,,,,,,,,,,,,7,1.771999836,8,0.19299984,1,0,1200,647,1,1199,accord,11125,2019-10-23_13h11.05.171,SurveyExpMetaMem,3.2.3,Win32,60
,,,,,,,,,,,,,,,,,,,,8,0.974999905,7,0.68200016,1,0,1200,59,1,1199,sports,11125,2019-10-23_13h11.05.171,SurveyExpMetaMem,3.2.3,Win32,60
,,,,,,,,,,,,,,,,,,,,7,1.752000093,7,0.253999949,1,0,1200,1084,1,1199,uneasy,11125,2019-10-23_13h11.05.171,SurveyExpMetaMem,3.2.3,Win32,60
,,,,,,,,,,,,,,,,,,,,8,1.269000053,7,0.320000172,1,0,1200,3,1,1199,nudist,11125,2019-10-23_13h11.05.171,SurveyExpMetaMem,3.2.3,Win32,60
,,,,,,,,,,,,,,,,,,,,5,1.68900013,3,2.667000055,1,0,1200,302,1,1199,loneliness,11125,2019-10-23_13h11.05.171,SurveyExpMetaMem,3.2.3,Win32,60
,,,,,,,,,,,,,,,,,,,,7,0.907000065,4,0.917000055,1,0,1200,270,1,1199,toddler,11125,2019-10-23_13h11.05.171,SurveyExpMetaMem,3.2.3,Win32,60
,,,,,,,,,,,,,,,,,,,,7,0.73300004,5,0.463999987,1,0,1200,567,1,1199,folly,11125,2019-10-23_13h11.05.171,SurveyExpMetaMem,3.2.3,Win32,60
,,,,,,,,,,,,,,,,,,,,5,3.500999928,3,0.559999943,1,0,1200,38,1,1199,cheeseburger,11125,2019-10-23_13h11.05.171,SurveyExpMetaMem,3.2.3,Win32,60
,,,,,,,,,,,,,,,,,,,,5,2.041000128,7,0.173000097,1,0,1200,537,1,1199,absurd,11125,2019-10-23_13h11.05.171,SurveyExpMetaMem,3.2.3,Win32,60
,,,,,,,,,,,,,,,,,,,,6,0.006000042,7,0.704999924,1,0,1200,693,1,1199,key,11125,2019-10-23_13h11.05.171,SurveyExpMetaMem,3.2.3,Win32,60
,,,,,,,,,,,,,,,,,,,,4,0.52699995,6,0.307999849,1,0,1200,1072,1,1199,bothered,11125,2019-10-23_13h11.05.171,SurveyExpMetaMem,3.2.3,Win32,60
,,,,,,,,,,,,,,,,,,,,7,0.773000002,7,0.600000143,1,0,1200,677,1,1199,handwriting,11125,2019-10-23_13h11.05.171,SurveyExpMetaMem,3.2.3,Win32,60
,,,,,,,,,,,,,,,,,,,,4,0.445999861,2,0.569000006,1,0,1200,959,1,1199,divorce,11125,2019-10-23_13h11.05.171,SurveyExpMetaMem,3.2.3,Win32,60
,,,,,,,,,,,,,,,,,,,,5,1.034999847,2,0.301000118,1,0,1200,972,1,1199,homicide,11125,2019-10-23_13h11.05.171,SurveyExpMetaMem,3.2.3,Win32,60
,,,,,,,,,,,,,,,,,,,,5,0.746999979,7,0.229000092,1,0,1200,659,1,1199,hair,11125,2019-10-23_13h11.05.171,SurveyExpMetaMem,3.2.3,Win32,60
,,,,,,,,,,,,,,,,,,,,7,0.617999792,8,0.843000174,1,0,1200,296,1,1199,awesome,11125,2019-10-23_13h11.05.171,SurveyExpMetaMem,3.2.3,Win32,60
,,,,,,,,,,,,,,,,,,,,7,0.788000107,7,0.244999886,1,0,1200,130,1,1199,great,11125,2019-10-23_13h11.05.171,SurveyExpMetaMem,3.2.3,Win32,60
,,,,,,,,,,,,,,,,,,,,7,0.837000132,7,0.22300005,1,0,1200,114,1,1199,raise,11125,2019-10-23_13h11.05.171,SurveyExpMetaMem,3.2.3,Win32,60
,,,,,,,,,,,,,,,,,,,,8,1.15899992,9,1.434999943,1,0,1200,25,1,1199,charisma,11125,2019-10-23_13h11.05.171,SurveyExpMetaMem,3.2.3,Win32,60
,,,,,,,,,,,,,,,,,,,,5,1.822000027,2,0.286000013,1,0,1200,455,1,1199,chubby,11125,2019-10-23_13h11.05.171,SurveyExpMetaMem,3.2.3,Win32,60
,,,,,,,,,,,,,,,,,,,,7,1.121000051,2,0.429999828,1,0,1200,1012,1,1199,gunshot,11125,2019-10-23_13h11.05.171,SurveyExpMetaMem,3.2.3,Win32,60
,,,,,,,,,,,,,,,,,,,,3,2.386000156,2,0.54700017,1,0,1200,458,1,1199,refuse,11125,2019-10-23_13h11.05.171,SurveyExpMetaMem,3.2.3,Win32,60
,,,,,,,,,,,,,,,,,,,,7,1.068000078,2,0.302000046,1,0,1200,901,1,1199,rape,11125,2019-10-23_13h11.05.171,SurveyExpMetaMem,3.2.3,Win32,60
,,,,,,,,,,,,,,,,,,,,4,19.88900018,1,0.363000154,1,0,1200,348,1,1199,impotent,11125,2019-10-23_13h11.05.171,SurveyExpMetaMem,3.2.3,Win32,60
,,,,,,,,,,,,,,,,,,,,6,8.97300005,6,0.954000235,1,0,1200,77,1,1199,adore,11125,2019-10-23_13h11.05.171,SurveyExpMetaMem,3.2.3,Win32,60
,,,,,,,,,,,,,,,,,,,,7,16.58299994,7,0.846999884,1,0,1200,224,1,1199,strengthen,11125,2019-10-23_13h11.05.171,SurveyExpMetaMem,3.2.3,Win32,60
,,,,,,,,,,,,,,,,,,,,5,1.934999943,6,0.54399991,1,0,1200,361,1,1199,glum,11125,2019-10-23_13h11.05.171,SurveyExpMetaMem,3.2.3,Win32,60
,,,,,,,,,,,,,,,,,,,,5,1.328999996,5,0.470000029,1,0,1200,510,1,1199,excuse,11125,2019-10-23_13h11.05.171,SurveyExpMetaMem,3.2.3,Win32,60
,,,,,,,,,,,,,,,,,,,,7,2.805000067,7,0.435000181,1,0,1200,263,1,1199,answer,11125,2019-10-23_13h11.05.171,SurveyExpMetaMem,3.2.3,Win32,60
,,,,,,,,,,,,,,,,,,,,5,7.451999903,3,0.369000196,1,0,1200,906,1,1199,syphilis,11125,2019-10-23_13h11.05.171,SurveyExpMetaMem,3.2.3,Win32,60
,,,,,,,,,,,,,,,,,,,,3,1.729000092,2,0.207999945,1,0,1200,391,1,1199,detach,11125,2019-10-23_13h11.05.171,SurveyExpMetaMem,3.2.3,Win32,60
,,,,,,,,,,,,,,,,,,,,7,5.65199995,7,2.157999992,1,0,1200,227,1,1199,musician,11125,2019-10-23_13h11.05.171,SurveyExpMetaMem,3.2.3,Win32,60
,,,,,,,,,,,,,,,,,,,,5,1.926000118,3,0.519999981,1,0,1200,692,1,1199,medicine,11125,2019-10-23_13h11.05.171,SurveyExpMetaMem,3.2.3,Win32,60
,,,,,,,,,,,,,,,,,,,,3,10.35800004,7,0.667000055,1,0,1200,777,1,1199,casual,11125,2019-10-23_13h11.05.171,SurveyExpMetaMem,3.2.3,Win32,60
,,,,,,,,,,,,,,,,,,,,7,1.635999918,6,0.790999889,1,0,1200,1076,1,1199,embarrassed,11125,2019-10-23_13h11.05.171,SurveyExpMetaMem,3.2.3,Win32,60
,,,,,,,,,,,,,,,,,,,,5,1.161000013,5,0.298999786,1,0,1200,865,1,1199,bliss,11125,2019-10-23_13h11.05.171,SurveyExpMetaMem,3.2.3,Win32,60
,,,,,,,,,,,,,,,,,,,,6,1.411000013,3,0.45600009,1,0,1200,1031,1,1199,fear,11125,2019-10-23_13h11.05.171,SurveyExpMetaMem,3.2.3,Win32,60
,,,,,,,,,,,,,,,,,,,,5,3.972000122,5,0.124000072,1,0,1200,573,1,1199,cease,11125,2019-10-23_13h11.05.171,SurveyExpMetaMem,3.2.3,Win32,60
,,,,,,,,,,,,,,,,,,,,4,1.197999954,4,0.121999979,1,0,1200,872,1,1199,dignified,11125,2019-10-23_13h11.05.171,SurveyExpMetaMem,3.2.3,Win32,60
,,,,,,,,,,,,,,,,,,,,5,0.552000046,5,0.149999857,1,0,1200,1117,1,1199,court,11125,2019-10-23_13h11.05.171,SurveyExpMetaMem,3.2.3,Win32,60
,,,,,,,,,,,,,,,,,,,,6,2.657000065,3,0.244999886,1,0,1200,676,1,1199,straighten,11125,2019-10-23_13h11.05.171,SurveyExpMetaMem,3.2.3,Win32,60
,,,,,,,,,,,,,,,,,,,,7,1.23300004,3,0.167999983,1,0,1200,762,1,1199,orchestra,11125,2019-10-23_13h11.05.171,SurveyExpMetaMem,3.2.3,Win32,60
,,,,,,,,,,,,,,,,,,,,5,2.296000004,3,0.193000078,1,0,1200,1110,1,1199,bastard,11125,2019-10-23_13h11.05.171,SurveyExpMetaMem,3.2.3,Win32,60
,,,,,,,,,,,,,,,,,,,,7,1.93900013,4,0.884000063,1,0,1200,128,1,1199,supper,11125,2019-10-23_13h11.05.171,SurveyExpMetaMem,3.2.3,Win32,60
,,,,,,,,,,,,,,,,,,,,6,3.217000008,4,0.433000088,1,0,1200,685,1,1199,makeup,11125,2019-10-23_13h11.05.171,SurveyExpMetaMem,3.2.3,Win32,60
,,,,,,,,,,,,,,,,,,,,4,3.596999884,2,0.554999828,1,0,1200,555,1,1199,school,11125,2019-10-23_13h11.05.171,SurveyExpMetaMem,3.2.3,Win32,60
,,,,,,,,,,,,,,,,,,,,6,2.177000046,5,0.329999924,1,0,1200,1181,1,1199,blade,11125,2019-10-23_13h11.05.171,SurveyExpMetaMem,3.2.3,Win32,60
,,,,,,,,,,,,,,,,,,,,6,1.333000183,6,1.703000069,1,0,1200,73,1,1199,rhythm,11125,2019-10-23_13h11.05.171,SurveyExpMetaMem,3.2.3,Win32,60
,,,,,,,,,,,,,,,,,,,,5,0.460000038,6,1.171999931,1,0,1200,517,1,1199,habit,11125,2019-10-23_13h11.05.171,SurveyExpMetaMem,3.2.3,Win32,60
,,,,,,,,,,,,,,,,,,,,6,0.789000034,5,0.334000111,1,0,1200,683,1,1199,scarf,11125,2019-10-23_13h11.05.171,SurveyExpMetaMem,3.2.3,Win32,60
,,,,,,,,,,,,,,,,,,,,5,0.872999907,5,0.32799983,1,0,1200,88,1,1199,ambitious,11125,2019-10-23_13h11.05.171,SurveyExpMetaMem,3.2.3,Win32,60
,,,,,,,,,,,,,,,,,,,,7,0.546000004,6,0.292999983,1,0,1200,606,1,1199,easel,11125,2019-10-23_13h11.05.171,SurveyExpMetaMem,3.2.3,Win32,60
,,,,,,,,,,,,,,,,,,,,5,0.436000109,5,0.457999945,1,0,1200,331,1,1199,casket,11125,2019-10-23_13h11.05.171,SurveyExpMetaMem,3.2.3,Win32,60
,,,,,,,,,,,,,,,,,,,,3,0.259000063,3,0.612999916,1,0,1200,1118,1,1199,frantic,11125,2019-10-23_13h11.05.171,SurveyExpMetaMem,3.2.3,Win32,60
,,,,,,,,,,,,,,,,,,,,4,0.413000107,5,0.009000063,1,0,1200,412,1,1199,mucus,11125,2019-10-23_13h11.05.171,SurveyExpMetaMem,3.2.3,Win32,60
,,,,,,,,,,,,,,,,,,,,5,0.353999853,7,0.851999998,1,0,1200,639,1,1199,outlet,11125,2019-10-23_13h11.05.171,SurveyExpMetaMem,3.2.3,Win32,60
,,,,,,,,,,,,,,,,,,,,5,0.225000143,6,0.513000011,1,0,1200,514,1,1199,defer,11125,2019-10-23_13h11.05.171,SurveyExpMetaMem,3.2.3,Win32,60
,,,,,,,,,,,,,,,,,,,,7,0.221999884,4,0.289999962,1,0,1200,344,1,1199,pessimistic,11125,2019-10-23_13h11.05.171,SurveyExpMetaMem,3.2.3,Win32,60
,,,,,,,,,,,,,,,,,,,,5,0.379999876,5,0.247999907,1,0,1200,382,1,1199,vulnerable,11125,2019-10-23_13h11.05.171,SurveyExpMetaMem,3.2.3,Win32,60
,,,,,,,,,,,,,,,,,,,,6,0.172999859,6,0.26699996,1,0,1200,710,1,1199,gender,11125,2019-10-23_13h11.05.171,SurveyExpMetaMem,3.2.3,Win32,60
,,,,,,,,,,,,,,,,,,,,4,0.933000088,5,0.503999949,1,0,1200,1013,1,1199,guilty,11125,2019-10-23_13h11.05.171,SurveyExpMetaMem,3.2.3,Win32,60
,,,,,,,,,,,,,,,,,,,,5,1.319999933,5,0.142999887,1,0,1200,513,1,1199,bland,11125,2019-10-23_13h11.05.171,SurveyExpMetaMem,3.2.3,Win32,60
,,,,,,,,,,,,,,,,,,,,7,1.426999807,7,0.480999947,1,0,1200,68,1,1199,perfect,11125,2019-10-23_13h11.05.171,SurveyExpMetaMem,3.2.3,Win32,60
,,,,,,,,,,,,,,,,,,,,5,0.381999969,5,0.24000001,1,0,1200,473,1,1199,senseless,11125,2019-10-23_13h11.05.171,SurveyExpMetaMem,3.2.3,Win32,60
,,,,,,,,,,,,,,,,,,,,4,0.245999813,6,0.559000015,1,0,1200,322,1,1199,widow,11125,2019-10-23_13h11.05.171,SurveyExpMetaMem,3.2.3,Win32,60
,,,,,,,,,,,,,,,,,,,,6,0.230000019,4,0.292999983,1,0,1200,1186,1,1199,goddamn,11125,2019-10-23_13h11.05.171,SurveyExpMetaMem,3.2.3,Win32,60
,,,,,,,,,,,,,,,,,,,,6,0.779000044,6,0.313999891,1,0,1200,811,1,1199,tenderness,11125,2019-10-23_13h11.05.171,SurveyExpMetaMem,3.2.3,Win32,60
,,,,,,,,,,,,,,,,,,,,7,1.302999973,3,0.348999977,1,0,1200,944,1,1199,kill,11125,2019-10-23_13h11.05.171,SurveyExpMetaMem,3.2.3,Win32,60
,,,,,,,,,,,,,,,,,,,,6,2.024999857,4,0.794999838,1,0,1200,350,1,1199,inadequate,11125,2019-10-23_13h11.05.171,SurveyExpMetaMem,3.2.3,Win32,60
,,,,,,,,,,,,,,,,,,,,5,1.644000053,7,0.592000008,1,0,1200,640,1,1199,cabin,11125,2019-10-23_13h11.05.171,SurveyExpMetaMem,3.2.3,Win32,60
,,,,,,,,,,,,,,,,,,,,8,0.008999825,9,3.17599988,1,0,1200,288,1,1199,tasty,11125,2019-10-23_13h11.05.171,SurveyExpMetaMem,3.2.3,Win32,60
,,,,,,,,,,,,,,,,,,,,9,1.669000149,9,0.486000061,1,0,1200,187,1,1199,excite,11125,2019-10-23_13h11.05.171,SurveyExpMetaMem,3.2.3,Win32,60
,,,,,,,,,,,,,,,,,,,,6,1.369000196,5,0.344000101,1,0,1200,220,1,1199,reef,11125,2019-10-23_13h11.05.171,SurveyExpMetaMem,3.2.3,Win32,60
,,,,,,,,,,,,,,,,,,,,7,1.038999796,7,0.579999924,1,0,1200,827,1,1199,saint,11125,2019-10-23_13h11.05.171,SurveyExpMetaMem,3.2.3,Win32,60
,,,,,,,,,,,,,,,,,,,,4,0.718999863,4,0.334000111,1,0,1200,726,1,1199,crackers,11125,2019-10-23_13h11.05.171,SurveyExpMetaMem,3.2.3,Win32,60
,,,,,,,,,,,,,,,,,,,,5,0.805999994,5,0.635999918,1,0,1200,422,1,1199,doubtful,11125,2019-10-23_13h11.05.171,SurveyExpMetaMem,3.2.3,Win32,60
,,,,,,,,,,,,,,,,,,,,6,0.59100008,4,0.950000048,1,0,1200,570,1,1199,muddy,11125,2019-10-23_13h11.05.171,SurveyExpMetaMem,3.2.3,Win32,60
,,,,,,,,,,,,,,,,,,,,7,1.155999899,3,0.588999987,1,0,1200,945,1,1199,demon,11125,2019-10-23_13h11.05.171,SurveyExpMetaMem,3.2.3,Win32,60
,,,,,,,,,,,,,,,,,,,,8,1.536000013,3,0.652999878,1,0,1200,1185,1,1199,shotgun,11125,2019-10-23_13h11.05.171,SurveyExpMetaMem,3.2.3,Win32,60
,,,,,,,,,,,,,,,,,,,,7,0.578000069,6,0.017999887,1,0,1200,40,1,1199,kissing,11125,2019-10-23_13h11.05.171,SurveyExpMetaMem,3.2.3,Win32,60
,,,,,,,,,,,,,,,,,,,,7,1.243000031,8,0.542000055,1,0,1200,91,1,1199,pretty,11125,2019-10-23_13h11.05.171,SurveyExpMetaMem,3.2.3,Win32,60
,,,,,,,,,,,,,,,,,,,,6,0.586999893,9,0.923999786,1,0,1200,977,1,1199,choke,11125,2019-10-23_13h11.05.171,SurveyExpMetaMem,3.2.3,Win32,60
,,,,,,,,,,,,,,,,,,,,7,2.096999884,7,0.621000051,1,0,1200,239,1,1199,compassionate,11125,2019-10-23_13h11.05.171,SurveyExpMetaMem,3.2.3,Win32,60
,,,,,,,,,,,,,,,,,,,,5,1.282000065,7,0.534999847,1,0,1200,233,1,1199,exhilaration,11125,2019-10-23_13h11.05.171,SurveyExpMetaMem,3.2.3,Win32,60
,,,,,,,,,,,,,,,,,,,,4,3.059000015,5,1.470000029,1,0,1200,541,1,1199,apathy,11125,2019-10-23_13h11.05.171,SurveyExpMetaMem,3.2.3,Win32,60
,,,,,,,,,,,,,,,,,,,,8,1.024000168,8,0.547999859,1,0,1200,1021,1,1199,attack,11125,2019-10-23_13h11.05.171,SurveyExpMetaMem,3.2.3,Win32,60
,,,,,,,,,,,,,,,,,,,,4,1.963000059,1,0.487999916,1,0,1200,985,1,1199,pollution,11125,2019-10-23_13h11.05.171,SurveyExpMetaMem,3.2.3,Win32,60
,,,,,,,,,,,,,,,,,,,,6,1.122000217,7,0.447000027,1,0,1200,1134,1,1199,obsessed,11125,2019-10-23_13h11.05.171,SurveyExpMetaMem,3.2.3,Win32,60
,,,,,,,,,,,,,,,,,,,,5,1.157999992,5,0.282000065,1,0,1200,1010,1,1199,arson,11125,2019-10-23_13h11.05.171,SurveyExpMetaMem,3.2.3,Win32,60
,,,,,,,,,,,,,,,,,,,,4,3.525999784,6,0.726000071,1,0,1200,554,1,1199,label,11125,2019-10-23_13h11.05.171,SurveyExpMetaMem,3.2.3,Win32,60
,,,,,,,,,,,,,,,,,,,,7,1.253999949,4,0.65899992,1,0,1200,586,1,1199,cab,11125,2019-10-23_13h11.05.171,SurveyExpMetaMem,3.2.3,Win32,60
,,,,,,,,,,,,,,,,,,,,7,1.844000101,8,0.24000001,1,0,1200,80,1,1199,wonderful,11125,2019-10-23_13h11.05.171,SurveyExpMetaMem,3.2.3,Win32,60
,,,,,,,,,,,,,,,,,,,,5,1.513000011,5,0.17200017,1,0,1200,603,1,1199,mane,11125,2019-10-23_13h11.05.171,SurveyExpMetaMem,3.2.3,Win32,60
,,,,,,,,,,,,,,,,,,,,7,5.555000067,3,0.458999872,1,0,1200,441,1,1199,prohibit,11125,2019-10-23_13h11.05.171,SurveyExpMetaMem,3.2.3,Win32,60
,,,,,,,,,,,,,,,,,,,,7,5.145999908,3,1.160000086,1,0,1200,340,1,1199,coward,11125,2019-10-23_13h11.05.171,SurveyExpMetaMem,3.2.3,Win32,60
,,,,,,,,,,,,,,,,,,,,8,7.06400013,8,0.546000004,1,0,1200,19,1,1199,firefighter,11125,2019-10-23_13h11.05.171,SurveyExpMetaMem,3.2.3,Win32,60
,,,,,,,,,,,,,,,,,,,,7,1.891000032,3,0.518000126,1,0,1200,442,1,1199,foolish,11125,2019-10-23_13h11.05.171,SurveyExpMetaMem,3.2.3,Win32,60
,,,,,,,,,,,,,,,,,,,,5,3.167999983,4,0.435000181,1,0,1200,821,1,1199,cottage,11125,2019-10-23_13h11.05.171,SurveyExpMetaMem,3.2.3,Win32,60
,,,,,,,,,,,,,,,,,,,,6,1.220999956,5,0.569000006,1,0,1200,563,1,1199,stupor,11125,2019-10-23_13h11.05.171,SurveyExpMetaMem,3.2.3,Win32,60
,,,,,,,,,,,,,,,,,,,,8,2.540999889,9,0.56400013,1,0,1200,107,1,1199,sandwich,11125,2019-10-23_13h11.05.171,SurveyExpMetaMem,3.2.3,Win32,60
,,,,,,,,,,,,,,,,,,,,8,1.526000023,3,0.947000027,1,0,1200,793,1,1199,virtue,11125,2019-10-23_13h11.05.171,SurveyExpMetaMem,3.2.3,Win32,60
,,,,,,,,,,,,,,,,,,,,5,1.821000099,5,0.613000154,1,0,1200,1017,1,1199,aggravated,11125,2019-10-23_13h11.05.171,SurveyExpMetaMem,3.2.3,Win32,60
,,,,,,,,,,,,,,,,,,,,7,1.075999975,8,1.072999954,1,0,1200,825,1,1199,swan,11125,2019-10-23_13h11.05.171,SurveyExpMetaMem,3.2.3,Win32,60
,,,,,,,,,,,,,,,,,,,,5,3.84100008,5,0.197000027,1,0,1200,1075,1,1199,apprehension,11125,2019-10-23_13h11.05.171,SurveyExpMetaMem,3.2.3,Win32,60
,,,,,,,,,,,,,,,,,,,,4,1.095999956,6,0.540999889,1,0,1200,321,1,1199,wart,11125,2019-10-23_13h11.05.171,SurveyExpMetaMem,3.2.3,Win32,60
,,,,,,,,,,,,,,,,,,,,4,2.107000113,2,1.075999975,1,0,1200,365,1,1199,discouraged,11125,2019-10-23_13h11.05.171,SurveyExpMetaMem,3.2.3,Win32,60
,,,,,,,,,,,,,,,,,,,,7,2.351999998,8,0.622999907,1,0,1200,60,1,1199,bikini,11125,2019-10-23_13h11.05.171,SurveyExpMetaMem,3.2.3,Win32,60
,,,,,,,,,,,,,,,,,,,,6,3.644000053,3,1.539000034,1,0,1200,129,1,1199,fly,11125,2019-10-23_13h11.05.171,SurveyExpMetaMem,3.2.3,Win32,60
,,,,,,,,,,,,,,,,,,,,6,2.070999861,2,0.79399991,1,0,1200,556,1,1199,allege,11125,2019-10-23_13h11.05.171,SurveyExpMetaMem,3.2.3,Win32,60
,,,,,,,,,,,,,,,,,,,,6,1.477999926,6,0.291999817,1,0,1200,736,1,1199,hawk,11125,2019-10-23_13h11.05.171,SurveyExpMetaMem,3.2.3,Win32,60
,,,,,,,,,,,,,,,,,,,,7,0.95600009,5,0.746000051,1,0,1200,482,1,1199,cell,11125,2019-10-23_13h11.05.171,SurveyExpMetaMem,3.2.3,Win32,60
,,,,,,,,,,,,,,,,,,,,7,1.286999941,6,1.631000042,1,0,1200,775,1,1199,pancakes,11125,2019-10-23_13h11.05.171,SurveyExpMetaMem,3.2.3,Win32,60
,,,,,,,,,,,,,,,,,,,,6,2.021999836,4,0.544000149,1,0,1200,483,1,1199,condescension,11125,2019-10-23_13h11.05.171,SurveyExpMetaMem,3.2.3,Win32,60
,,,,,,,,,,,,,,,,,,,,3,4.397000074,6,0.512000084,1,0,1200,764,1,1199,coin,11125,2019-10-23_13h11.05.171,SurveyExpMetaMem,3.2.3,Win32,60
,,,,,,,,,,,,,,,,,,,,6,3.567000151,2,0.700999975,1,0,1200,352,1,1199,negligent,11125,2019-10-23_13h11.05.171,SurveyExpMetaMem,3.2.3,Win32,60
,,,,,,,,,,,,,,,,,,,,5,3.092999935,3,0.642999887,1,0,1200,1045,1,1199,scalding,11125,2019-10-23_13h11.05.171,SurveyExpMetaMem,3.2.3,Win32,60
,,,,,,,,,,,,,,,,,,,,7,2.1650002,3,0.894000053,1,0,1200,494,1,1199,butcher,11125,2019-10-23_13h11.05.171,SurveyExpMetaMem,3.2.3,Win32,60
,,,,,,,,,,,,,,,,,,,,3,1.79399991,6,1.270999908,1,0,1200,544,1,1199,snail,11125,2019-10-23_13h11.05.171,SurveyExpMetaMem,3.2.3,Win32,60
,,,,,,,,,,,,,,,,,,,,7,44.79500008,3,0.5,1,0,1200,316,1,1199,sorrow,11125,2019-10-23_13h11.05.171,SurveyExpMetaMem,3.2.3,Win32,60
,,,,,,,,,,,,,,,,,,,,4,3.553999901,8,0.868999958,1,0,1200,297,1,1199,pleasure,11125,2019-10-23_13h11.05.171,SurveyExpMetaMem,3.2.3,Win32,60
,,,,,,,,,,,,,,,,,,,,8,1.648999929,9,0.816000223,1,0,1200,198,1,1199,comedy,11125,2019-10-23_13h11.05.171,SurveyExpMetaMem,3.2.3,Win32,60
,,,,,,,,,,,,,,,,,,,,4,3.021000147,5,1.088999987,1,0,1200,1144,1,1199,yelp,11125,2019-10-23_13h11.05.171,SurveyExpMetaMem,3.2.3,Win32,60
,,,,,,,,,,,,,,,,,,,,6,4.256000042,4,0.953999996,1,0,1200,437,1,1199,blubber,11125,2019-10-23_13h11.05.171,SurveyExpMetaMem,3.2.3,Win32,60
,,,,,,,,,,,,,,,,,,,,8,1.613999844,8,0.28399992,1,0,1200,86,1,1199,talent,11125,2019-10-23_13h11.05.171,SurveyExpMetaMem,3.2.3,Win32,60
,,,,,,,,,,,,,,,,,,,,7,3.887000084,8,1.621000051,1,0,1200,281,1,1199,summer,11125,2019-10-23_13h11.05.171,SurveyExpMetaMem,3.2.3,Win32,60
,,,,,,,,,,,,,,,,,,,,6,1.853000164,5,0.802999973,1,0,1200,543,1,1199,gloat,11125,2019-10-23_13h11.05.171,SurveyExpMetaMem,3.2.3,Win32,60
,,,,,,,,,,,,,,,,,,,,6,1.885999918,3,0.303999901,1,0,1200,381,1,1199,sloppy,11125,2019-10-23_13h11.05.171,SurveyExpMetaMem,3.2.3,Win32,60
,,,,,,,,,,,,,,,,,,,,8,2.231000185,3,0.478000164,1,0,1200,990,1,1199,enraged,11125,2019-10-23_13h11.05.171,SurveyExpMetaMem,3.2.3,Win32,60
,,,,,,,,,,,,,,,,,,,,6,2.258000135,2,0.559999943,1,0,1200,1162,1,1199,baffle,11125,2019-10-23_13h11.05.171,SurveyExpMetaMem,3.2.3,Win32,60
,,,,,,,,,,,,,,,,,,,,6,6.071000099,1,0.994999886,1,0,1200,479,1,1199,period,11125,2019-10-23_13h11.05.171,SurveyExpMetaMem,3.2.3,Win32,60
,,,,,,,,,,,,,,,,,,,,6,9.41899991,5,0.226000071,1,0,1200,1178,1,1199,weight,11125,2019-10-23_13h11.05.171,SurveyExpMetaMem,3.2.3,Win32,60
,,,,,,,,,,,,,,,,,,,,8,1.323999882,2,0.661999941,1,0,1200,907,1,1199,terrorist,11125,2019-10-23_13h11.05.171,SurveyExpMetaMem,3.2.3,Win32,60
,,,,,,,,,,,,,,,,,,,,7,1.570999861,2,0.863000154,1,0,1200,461,1,1199,ail,11125,2019-10-23_13h11.05.171,SurveyExpMetaMem,3.2.3,Win32,60
,,,,,,,,,,,,,,,,,,,,9,1.513000011,9,0.519000053,1,0,1200,108,1,1199,naked,11125,2019-10-23_13h11.05.171,SurveyExpMetaMem,3.2.3,Win32,60
,,,,,,,,,,,,,,,,,,,,8,3.435000181,2,0.700999975,1,0,1200,958,1,1199,traitor,11125,2019-10-23_13h11.05.171,SurveyExpMetaMem,3.2.3,Win32,60
,,,,,,,,,,,,,,,,,,,,5,2.705999851,5,0.164000034,1,0,1200,689,1,1199,land,11125,2019-10-23_13h11.05.171,SurveyExpMetaMem,3.2.3,Win32,60
,,,,,,,,,,,,,,,,,,,,8,1.539999962,2,0.917999983,1,0,1200,1179,1,1199,nerves,11125,2019-10-23_13h11.05.171,SurveyExpMetaMem,3.2.3,Win32,60
,,,,,,,,,,,,,,,,,,,,5,5.088999987,5,0.721999884,1,0,1200,602,1,1199,vegetable,11125,2019-10-23_13h11.05.171,SurveyExpMetaMem,3.2.3,Win32,60
,,,,,,,,,,,,,,,,,,,,7,2.368000031,2,2.927999973,1,0,1200,154,1,1199,race,11125,2019-10-23_13h11.05.171,SurveyExpMetaMem,3.2.3,Win32,60
,,,,,,,,,,,,,,,,,,,,7,5.570999861,4,1.815000057,1,0,1200,221,1,1199,sparkle,11125,2019-10-23_13h11.05.171,SurveyExpMetaMem,3.2.3,Win32,60
,,,,,,,,,,,,,,,,,,,,7,1.403000116,3,3.105999947,1,0,1200,607,1,1199,greyhound,11125,2019-10-23_13h11.05.171,SurveyExpMetaMem,3.2.3,Win32,60
,,,,,,,,,,,,,,,,,,,,7,1.552000046,1,0.606999874,1,0,1200,351,1,1199,germs,11125,2019-10-23_13h11.05.171,SurveyExpMetaMem,3.2.3,Win32,60
,,,,,,,,,,,,,,,,,,,,8,1.606000185,1,0.489000082,1,0,1200,420,1,1199,smoke,11125,2019-10-23_13h11.05.171,SurveyExpMetaMem,3.2.3,Win32,60
,,,,,,,,,,,,,,,,,,,,8,1.460999966,8,0.163000107,1,0,1200,93,1,1199,smiling,11125,2019-10-23_13h11.05.171,SurveyExpMetaMem,3.2.3,Win32,60
,,,,,,,,,,,,,,,,,,,,7,3.677000046,8,0.490999937,1,0,1200,243,1,1199,fame,11125,2019-10-23_13h11.05.171,SurveyExpMetaMem,3.2.3,Win32,60
,,,,,,,,,,,,,,,,,,,,4,2.768999815,7,0.424000025,1,0,1200,891,1,1199,kind,11125,2019-10-23_13h11.05.171,SurveyExpMetaMem,3.2.3,Win32,60
,,,,,,,,,,,,,,,,,,,,5,2.441999912,5,0.445000172,1,0,1200,790,1,1199,binoculars,11125,2019-10-23_13h11.05.171,SurveyExpMetaMem,3.2.3,Win32,60
,,,,,,,,,,,,,,,,,,,,9,1.369999886,9,0.671000004,1,0,1200,115,1,1199,sexual,11125,2019-10-23_13h11.05.171,SurveyExpMetaMem,3.2.3,Win32,60
,,,,,,,,,,,,,,,,,,,,9,3.121000051,7,1.105000019,1,0,1200,193,1,1199,party,11125,2019-10-23_13h11.05.171,SurveyExpMetaMem,3.2.3,Win32,60
,,,,,,,,,,,,,,,,,,,,5,14.94300008,5,1.924000025,1,0,1200,1169,1,1199,enforcement,11125,2019-10-23_13h11.05.171,SurveyExpMetaMem,3.2.3,Win32,60
,,,,,,,,,,,,,,,,,,,,6,1.587999821,8,0.88499999,1,0,1200,810,1,1199,polite,11125,2019-10-23_13h11.05.171,SurveyExpMetaMem,3.2.3,Win32,60
,,,,,,,,,,,,,,,,,,,,6,5.129000187,4,0.785000086,1,0,1200,410,1,1199,tarnish,11125,2019-10-23_13h11.05.171,SurveyExpMetaMem,3.2.3,Win32,60
,,,,,,,,,,,,,,,,,,,,4,3.319000006,6,0.904000044,1,0,1200,280,1,1199,cookout,11125,2019-10-23_13h11.05.171,SurveyExpMetaMem,3.2.3,Win32,60
,,,,,,,,,,,,,,,,,,,,7,2.193000078,4,1.476000071,1,0,1200,1145,1,1199,officer,11125,2019-10-23_13h11.05.171,SurveyExpMetaMem,3.2.3,Win32,60
,,,,,,,,,,,,,,,,,,,,8,3.154999971,3,0.477999926,1,0,1200,1011,1,1199,robber,11125,2019-10-23_13h11.05.171,SurveyExpMetaMem,3.2.3,Win32,60
,,,,,,,,,,,,,,,,,,,,8,21.01899981,8,0.757000208,1,0,1200,293,1,1199,succeed,11125,2019-10-23_13h11.05.171,SurveyExpMetaMem,3.2.3,Win32,60
,,,,,,,,,,,,,,,,,,,,7,3.59499979,3,0.555999994,1,0,1200,1192,1,1199,startled,11125,2019-10-23_13h11.05.171,SurveyExpMetaMem,3.2.3,Win32,60
,,,,,,,,,,,,,,,,,,,,4,4.539999962,8,0.485999823,1,0,1200,7,1,1199,duet,11125,2019-10-23_13h11.05.171,SurveyExpMetaMem,3.2.3,Win32,60
,,,,,,,,,,,,,,,,,,,,7,0.993000031,7,0.671000004,1,0,1200,637,1,1199,flock,11125,2019-10-23_13h11.05.171,SurveyExpMetaMem,3.2.3,Win32,60
,,,,,,,,,,,,,,,,,,,,7,2.378000021,8,0.484999895,1,0,1200,135,1,1199,applause,11125,2019-10-23_13h11.05.171,SurveyExpMetaMem,3.2.3,Win32,60
,,,,,,,,,,,,,,,,,,,,7,2.651000023,4,0.407999992,1,0,1200,102,1,1199,motorcycle,11125,2019-10-23_13h11.05.171,SurveyExpMetaMem,3.2.3,Win32,60
,,,,,,,,,,,,,,,,,,,,7,1.260999918,4,0.286999941,1,0,1200,688,1,1199,jelly,11125,2019-10-23_13h11.05.171,SurveyExpMetaMem,3.2.3,Win32,60
,,,,,,,,,,,,,,,,,,,,4,2.483999968,8,2.365999937,1,0,1200,26,1,1199,inspired,11125,2019-10-23_13h11.05.171,SurveyExpMetaMem,3.2.3,Win32,60
,,,,,,,,,,,,,,,,,,,,4,1.89199996,8,0.607000113,1,0,1200,23,1,1199,earn,11125,2019-10-23_13h11.05.171,SurveyExpMetaMem,3.2.3,Win32,60
,,,,,,,,,,,,,,,,,,,,7,2.888999939,1,0.728999853,1,0,1200,334,1,1199,trash,11125,2019-10-23_13h11.05.171,SurveyExpMetaMem,3.2.3,Win32,60
,,,,,,,,,,,,,,,,,,,,7,1.902999878,3,0.503000021,1,0,1200,372,1,1199,inferior,11125,2019-10-23_13h11.05.171,SurveyExpMetaMem,3.2.3,Win32,60
,,,,,,,,,,,,,,,,,,,,5,9.012000084,7,1.003999949,1,0,1200,277,1,1199,cupcake,11125,2019-10-23_13h11.05.171,SurveyExpMetaMem,3.2.3,Win32,60
,,,,,,,,,,,,,,,,,,,,4,1.578000069,3,0.221000195,1,0,1200,597,1,1199,drool,11125,2019-10-23_13h11.05.171,SurveyExpMetaMem,3.2.3,Win32,60
,,,,,,,,,,,,,,,,,,,,4,0.657000065,6,0.477999926,1,0,1200,495,1,1199,dust,11125,2019-10-23_13h11.05.171,SurveyExpMetaMem,3.2.3,Win32,60
,,,,,,,,,,,,,,,,,,,,5,0.019999981,7,1.587000132,1,0,1200,142,1,1199,christmas,11125,2019-10-23_13h11.05.171,SurveyExpMetaMem,3.2.3,Win32,60
,,,,,,,,,,,,,,,,,,,,3,2.388000011,3,0.687999964,1,0,1200,738,1,1199,horse,11125,2019-10-23_13h11.05.171,SurveyExpMetaMem,3.2.3,Win32,60
,,,,,,,,,,,,,,,,,,,,6,2.489000082,3,0.340999842,1,0,1200,575,1,1199,paragraph,11125,2019-10-23_13h11.05.171,SurveyExpMetaMem,3.2.3,Win32,60
,,,,,,,,,,,,,,,,,,,,6,2.888000011,7,0.873000145,1,0,1200,838,1,1199,nestle,11125,2019-10-23_13h11.05.171,SurveyExpMetaMem,3.2.3,Win32,60
,,,,,,,,,,,,,,,,,,,,5,0.559000015,4,3.088999987,1,0,1200,968,1,1199,insult,11125,2019-10-23_13h11.05.171,SurveyExpMetaMem,3.2.3,Win32,60
,,,,,,,,,,,,,,,,,,,,8,1.811999798,3,0.472000122,1,0,1200,1105,1,1199,flee,11125,2019-10-23_13h11.05.171,SurveyExpMetaMem,3.2.3,Win32,60
,,,,,,,,,,,,,,,,,,,,8,1.069999933,3,0.703000069,1,0,1200,1188,1,1199,swear,11125,2019-10-23_13h11.05.171,SurveyExpMetaMem,3.2.3,Win32,60
,,,,,,,,,,,,,,,,,,,,8,14.89100003,3,0.606999874,1,0,1200,835,1,1199,helpful,11125,2019-10-23_13h11.05.171,SurveyExpMetaMem,3.2.3,Win32,60
,,,,,,,,,,,,,,,,,,,,7,4.951999903,4,0.243000031,1,0,1200,404,1,1199,nuisance,11125,2019-10-23_13h11.05.171,SurveyExpMetaMem,3.2.3,Win32,60
,,,,,,,,,,,,,,,,,,,,8,1.235999823,7,2.694000006,1,0,1200,126,1,1199,rich,11125,2019-10-23_13h11.05.171,SurveyExpMetaMem,3.2.3,Win32,60
,,,,,,,,,,,,,,,,,,,,7,39.94000006,4,0.403000116,1,0,1200,231,1,1199,cherish,11125,2019-10-23_13h11.05.171,SurveyExpMetaMem,3.2.3,Win32,60
,,,,,,,,,,,,,,,,,,,,6,2.911999941,4,0.329999924,1,0,1200,854,1,1199,river,11125,2019-10-23_13h11.05.171,SurveyExpMetaMem,3.2.3,Win32,60
,,,,,,,,,,,,,,,,,,,,8,1.38499999,1,0.537000179,1,0,1200,980,1,1199,liar,11125,2019-10-23_13h11.05.171,SurveyExpMetaMem,3.2.3,Win32,60
,,,,,,,,,,,,,,,,,,,,6,1.501000166,7,0.177000046,1,0,1200,851,1,1199,cool,11125,2019-10-23_13h11.05.171,SurveyExpMetaMem,3.2.3,Win32,60
,,,,,,,,,,,,,,,,,,,,7,2.773999929,2,0.502000093,1,0,1200,325,1,1199,disability,11125,2019-10-23_13h11.05.171,SurveyExpMetaMem,3.2.3,Win32,60
,,,,,,,,,,,,,,,,,,,,8,1.151000023,2,0.620000124,1,0,1200,486,1,1199,fool,11125,2019-10-23_13h11.05.171,SurveyExpMetaMem,3.2.3,Win32,60
,,,,,,,,,,,,,,,,,,,,5,1.688000202,5,0.148999929,1,0,1200,1091,1,1199,cram,11125,2019-10-23_13h11.05.171,SurveyExpMetaMem,3.2.3,Win32,60
,,,,,,,,,,,,,,,,,,,,3,1.669000149,1,0.621999979,1,0,1200,1077,1,1199,unsure,11125,2019-10-23_13h11.05.171,SurveyExpMetaMem,3.2.3,Win32,60
,,,,,,,,,,,,,,,,,,,,6,1.552999973,7,1.140000105,1,0,1200,50,1,1199,bolt,11125,2019-10-23_13h11.05.171,SurveyExpMetaMem,3.2.3,Win32,60
,,,,,,,,,,,,,,,,,,,,5,1.657999992,3,0.445999861,1,0,1200,369,1,1199,blind,11125,2019-10-23_13h11.05.171,SurveyExpMetaMem,3.2.3,Win32,60
,,,,,,,,,,,,,,,,,,,,5,1.906000137,5,0.460999966,1,0,1200,784,1,1199,logical,11125,2019-10-23_13h11.05.171,SurveyExpMetaMem,3.2.3,Win32,60
,,,,,,,,,,,,,,,,,,,,6,3.328999996,3,0.335000038,1,0,1200,346,1,1199,alcoholism,11125,2019-10-23_13h11.05.171,SurveyExpMetaMem,3.2.3,Win32,60
,,,,,,,,,,,,,,,,,,,,6,3.285000086,3,0.180000067,1,0,1200,131,1,1199,treat,11125,2019-10-23_13h11.05.171,SurveyExpMetaMem,3.2.3,Win32,60
,,,,,,,,,,,,,,,,,,,,8,1.495000124,8,0.788000107,1,0,1200,76,1,1199,midnight,11125,2019-10-23_13h11.05.171,SurveyExpMetaMem,3.2.3,Win32,60
,,,,,,,,,,,,,,,,,,,,5,2.513000011,6,0.240999937,1,0,1200,755,1,1199,soap,11125,2019-10-23_13h11.05.171,SurveyExpMetaMem,3.2.3,Win32,60
,,,,,,,,,,,,,,,,,,,,3,86.75200009,3,0.937000036,1,0,1200,481,1,1199,melancholy,11125,2019-10-23_13h11.05.171,SurveyExpMetaMem,3.2.3,Win32,60
,,,,,,,,,,,,,,,,,,,,6,1.139000177,3,0.177000046,1,0,1200,674,1,1199,fitting,11125,2019-10-23_13h11.05.171,SurveyExpMetaMem,3.2.3,Win32,60
,,,,,,,,,,,,,,,,,,,,5,1.411000013,5,0.131999969,1,0,1200,591,1,1199,bereavement,11125,2019-10-23_13h11.05.171,SurveyExpMetaMem,3.2.3,Win32,60
,,,,,,,,,,,,,,,,,,,,3,4.261000156,2,0.655999899,1,0,1200,433,1,1199,uninteresting,11125,2019-10-23_13h11.05.171,SurveyExpMetaMem,3.2.3,Win32,60
,,,,,,,,,,,,,,,,,,,,5,48.523,5,0.169000149,1,0,1200,558,1,1199,punk,11125,2019-10-23_13h11.05.171,SurveyExpMetaMem,3.2.3,Win32,60
,,,,,,,,,,,,,,,,,,,,4,1.741000175,7,1.857999802,1,0,1200,753,1,1199,patience,11125,2019-10-23_13h11.05.171,SurveyExpMetaMem,3.2.3,Win32,60
,,,,,,,,,,,,,,,,,,,,6,34.76399994,7,0.536000013,1,0,1200,858,1,1199,donate,11125,2019-10-23_13h11.05.171,SurveyExpMetaMem,3.2.3,Win32,60
,,,,,,,,,,,,,,,,,,,,8,1.524000168,2,0.736999989,1,0,1200,987,1,1199,disgusted,11125,2019-10-23_13h11.05.171,SurveyExpMetaMem,3.2.3,Win32,60
,,,,,,,,,,,,,,,,,,,,5,1.785000086,5,0.120000124,1,0,1200,468,1,1199,noose,11125,2019-10-23_13h11.05.171,SurveyExpMetaMem,3.2.3,Win32,60
,,,,,,,,,,,,,,,,,,,,5,1.13499999,5,0.136999846,1,0,1200,1166,1,1199,compulsive,11125,2019-10-23_13h11.05.171,SurveyExpMetaMem,3.2.3,Win32,60
,,,,,,,,,,,,,,,,,,,,7,1.778000116,4,1.520999908,1,0,1200,85,1,1199,like,11125,2019-10-23_13h11.05.171,SurveyExpMetaMem,3.2.3,Win32,60
,,,,,,,,,,,,,,,,,,,,7,2.070000172,2,1.0400002,1,0,1200,1167,1,1199,bribe,11125,2019-10-23_13h11.05.171,SurveyExpMetaMem,3.2.3,Win32,60
,,,,,,,,,,,,,,,,,,,,4,3.902999878,7,1.842999935,1,0,1200,703,1,1199,book,11125,2019-10-23_13h11.05.171,SurveyExpMetaMem,3.2.3,Win32,60
,,,,,,,,,,,,,,,,,,,,1,9.598999977,5,1.569999933,1,0,1200,409,1,1199,old,11125,2019-10-23_13h11.05.171,SurveyExpMetaMem,3.2.3,Win32,60
,,,,,,,,,,,,,,,,,,,,6,2.518999815,7,9.774000168,1,0,1200,244,1,1199,sexy,11125,2019-10-23_13h11.05.171,SurveyExpMetaMem,3.2.3,Win32,60
,,,,,,,,,,,,,,,,,,,,3,5.59800005,5,2.845999956,1,0,1200,418,1,1199,cheapskate,11125,2019-10-23_13h11.05.171,SurveyExpMetaMem,3.2.3,Win32,60
,,,,,,,,,,,,,,,,,,,,2,7.292999983,5,0.140000105,1,0,1200,773,1,1199,rational,11125,2019-10-23_13h11.05.171,SurveyExpMetaMem,3.2.3,Win32,60
,,,,,,,,,,,,,,,,,,,,4,1.537999868,6,1.309000015,1,0,1200,247,1,1199,graduate,11125,2019-10-23_13h11.05.171,SurveyExpMetaMem,3.2.3,Win32,60
,,,,,,,,,,,,,,,,,,,,1,4.986000061,6,2.787999868,1,0,1200,734,1,1199,piano,11125,2019-10-23_13h11.05.171,SurveyExpMetaMem,3.2.3,Win32,60
,,,,,,,,,,,,,,,,,,,,1,2.052000046,1,1.338999987,1,0,1200,300,1,1199,unhappy,11125,2019-10-23_13h11.05.171,SurveyExpMetaMem,3.2.3,Win32,60
,,,,,,,,,,,,,,,,,,,,6,10.10699987,7,1.381000042,1,0,1200,139,1,1199,generosity,11125,2019-10-23_13h11.05.171,SurveyExpMetaMem,3.2.3,Win32,60
,,,,,,,,,,,,,,,,,,,,2,4.302000046,5,1.131000042,1,0,1200,566,1,1199,obscure,11125,2019-10-23_13h11.05.171,SurveyExpMetaMem,3.2.3,Win32,60
,,,,,,,,,,,,,,,,,,,,2,1.582000017,7,0.782000065,1,0,1200,890,1,1199,carefree,11125,2019-10-23_13h11.05.171,SurveyExpMetaMem,3.2.3,Win32,60
,,,,,,,,,,,,,,,,,,,,2,2.857000113,8,0.332000017,1,0,1200,996,1,1199,sting,11125,2019-10-23_13h11.05.171,SurveyExpMetaMem,3.2.3,Win32,60
,,,,,,,,,,,,,,,,,,,,7,30.477,2,1.241999865,1,0,1200,1116,1,1199,emergency,11125,2019-10-23_13h11.05.171,SurveyExpMetaMem,3.2.3,Win32,60
,,,,,,,,,,,,,,,,,,,,7,6.067000151,8,1.174999952,1,0,1200,74,1,1199,explore,11125,2019-10-23_13h11.05.171,SurveyExpMetaMem,3.2.3,Win32,60
,,,,,,,,,,,,,,,,,,,,5,2.289999962,6,1.437000036,1,0,1200,15,1,1199,curiosity,11125,2019-10-23_13h11.05.171,SurveyExpMetaMem,3.2.3,Win32,60
,,,,,,,,,,,,,,,,,,,,2,2.80099988,4,1.545000076,1,0,1200,1050,1,1199,scorn,11125,2019-10-23_13h11.05.171,SurveyExpMetaMem,3.2.3,Win32,60
,,,,,,,,,,,,,,,,,,,,4,1.253000021,2,1.003000021,1,0,1200,1023,1,1199,disorder,11125,2019-10-23_13h11.05.171,SurveyExpMetaMem,3.2.3,Win32,60
,,,,,,,,,,,,,,,,,,,,6,1.916999817,4,1.313999891,1,0,1200,457,1,1199,confuse,11125,2019-10-23_13h11.05.171,SurveyExpMetaMem,3.2.3,Win32,60
,,,,,,,,,,,,,,,,,,,,7,1.342999935,6,1.17599988,1,0,1200,538,1,1199,crumbs,11125,2019-10-23_13h11.05.171,SurveyExpMetaMem,3.2.3,Win32,60
,,,,,,,,,,,,,,,,,,,,3,2.950000048,7,0.631000042,1,0,1200,284,1,1199,delight,11125,2019-10-23_13h11.05.171,SurveyExpMetaMem,3.2.3,Win32,60
,,,,,,,,,,,,,,,,,,,,7,1.476000071,2,0.765999794,1,0,1200,329,1,1199,worse,11125,2019-10-23_13h11.05.171,SurveyExpMetaMem,3.2.3,Win32,60
,,,,,,,,,,,,,,,,,,,,7,5.184000015,8,1.458999872,1,0,1200,155,1,1199,ignite,11125,2019-10-23_13h11.05.171,SurveyExpMetaMem,3.2.3,Win32,60
,,,,,,,,,,,,,,,,,,,,5,2.81799984,4,1.274999857,1,0,1200,646,1,1199,wear,11125,2019-10-23_13h11.05.171,SurveyExpMetaMem,3.2.3,Win32,60
,,,,,,,,,,,,,,,,,,,,2,0.585999966,5,0.708000183,1,0,1200,501,1,1199,dustpan,11125,2019-10-23_13h11.05.171,SurveyExpMetaMem,3.2.3,Win32,60
,,,,,,,,,,,,,,,,,,,,2,1.471000195,7,2.444999933,1,0,1200,180,1,1199,embrace,11125,2019-10-23_13h11.05.171,SurveyExpMetaMem,3.2.3,Win32,60
,,,,,,,,,,,,,,,,,,,,3,3.002000093,8,0.559999943,1,0,1200,519,1,1199,listless,11125,2019-10-23_13h11.05.171,SurveyExpMetaMem,3.2.3,Win32,60
,,,,,,,,,,,,,,,,,,,,2,1.670000076,6,0.189999819,1,0,1200,644,1,1199,farm,11125,2019-10-23_13h11.05.171,SurveyExpMetaMem,3.2.3,Win32,60
,,,,,,,,,,,,,,,,,,,,4,1.593999863,8,0.536999941,1,0,1200,309,1,1199,homeless,11125,2019-10-23_13h11.05.171,SurveyExpMetaMem,3.2.3,Win32,60
,,,,,,,,,,,,,,,,,,,,7,8.013000011,2,0.523999929,1,0,1200,933,1,1199,afraid,11125,2019-10-23_13h11.05.171,SurveyExpMetaMem,3.2.3,Win32,60
,,,,,,,,,,,,,,,,,,,,4,11.5999999,6,0.903000116,1,0,1200,708,1,1199,nursery,11125,2019-10-23_13h11.05.171,SurveyExpMetaMem,3.2.3,Win32,60
,,,,,,,,,,,,,,,,,,,,9,2.487999916,1,2.219000101,1,0,1200,1033,1,1199,horror,11125,2019-10-23_13h11.05.171,SurveyExpMetaMem,3.2.3,Win32,60
,,,,,,,,,,,,,,,,,,,,7,2.075999975,5,1.205999851,1,0,1200,498,1,1199,alimony,11125,2019-10-23_13h11.05.171,SurveyExpMetaMem,3.2.3,Win32,60
,,,,,,,,,,,,,,,,,,,,3,3.684000015,5,1.70600009,1,0,1200,177,1,1199,frosting,11125,2019-10-23_13h11.05.171,SurveyExpMetaMem,3.2.3,Win32,60
,,,,,,,,,,,,,,,,,,,,7,3.226000071,5,0.648999929,1,0,1200,81,1,1199,best,11125,2019-10-23_13h11.05.171,SurveyExpMetaMem,3.2.3,Win32,60
,,,,,,,,,,,,,,,,,,,,7,1.167999983,2,22.046,1,0,1200,1146,1,1199,bug,11125,2019-10-23_13h11.05.171,SurveyExpMetaMem,3.2.3,Win32,60
,,,,,,,,,,,,,,,,,,,,6,2.156000137,7,2.348999977,1,0,1200,415,1,1199,grime,11125,2019-10-23_13h11.05.171,SurveyExpMetaMem,3.2.3,Win32,60
,,,,,,,,,,,,,,,,,,,,3,2.951999903,4,0.905999899,1,0,1200,393,1,1199,droop,11125,2019-10-23_13h11.05.171,SurveyExpMetaMem,3.2.3,Win32,60
,,,,,,,,,,,,,,,,,,,,6,3.103000164,7,1.760999918,1,0,1200,816,1,1199,hippotamus,11125,2019-10-23_13h11.05.171,SurveyExpMetaMem,3.2.3,Win32,60
,,,,,,,,,,,,,,,,,,,,6,2.474999905,3,1.746999979,1,0,1200,337,1,1199,stinks,11125,2019-10-23_13h11.05.171,SurveyExpMetaMem,3.2.3,Win32,60
,,,,,,,,,,,,,,,,,,,,6,78.56999993,7,1.319999933,1,0,1200,179,1,1199,star,11125,2019-10-23_13h11.05.171,SurveyExpMetaMem,3.2.3,Win32,60
,,,,,,,,,,,,,,,,,,,,7,7.637999773,2,0.497999907,1,0,1200,991,1,1199,harass,11125,2019-10-23_13h11.05.171,SurveyExpMetaMem,3.2.3,Win32,60
,,,,,,,,,,,,,,,,,,,,3,4.337000132,4,0.746999979,1,0,1200,593,1,1199,errand,11125,2019-10-23_13h11.05.171,SurveyExpMetaMem,3.2.3,Win32,60
,,,,,,,,,,,,,,,,,,,,2,1.615999937,1,2.779000044,1,0,1200,496,1,1199,slow,11125,2019-10-23_13h11.05.171,SurveyExpMetaMem,3.2.3,Win32,60
,,,,,,,,,,,,,,,,,,,,4,1.883999825,3,0.734999895,1,0,1200,411,1,1199,bitter,11125,2019-10-23_13h11.05.171,SurveyExpMetaMem,3.2.3,Win32,60
,,,,,,,,,,,,,,,,,,,,6,8.401000023,7,4.485000134,1,0,1200,226,1,1199,prize,11125,2019-10-23_13h11.05.171,SurveyExpMetaMem,3.2.3,Win32,60
,,,,,,,,,,,,,,,,,,,,7,2.153000116,1,0.704999924,1,0,1200,910,1,1199,abusive,11125,2019-10-23_13h11.05.171,SurveyExpMetaMem,3.2.3,Win32,60
