mouse_4.x,mouse_4.y,mouse_4.leftButton,mouse_4.midButton,mouse_4.rightButton,mouse.x,mouse.y,mouse.leftButton,mouse.midButton,mouse.rightButton,mouse_2.x,mouse_2.y,mouse_2.leftButton,mouse_2.midButton,mouse_2.rightButton,mouse_3.x,mouse_3.y,mouse_3.leftButton,mouse_3.midButton,mouse_3.rightButton,A_key_resp.keys,A_key_resp.rt,key_resp.keys,key_resp.rt,trials.thisRepN,trials.thisTrialN,trials.thisN,trials.thisIndex,trials.ran,trials.order,word,ParticipantID,date,expName,psychopyVersion,OS,frameRate
0.151041667,-0.212239583,1,0,0,0.098958333,-0.278645833,1,0,0,-0.010416667,-0.19921875,1,0,0,-0.009114583,-0.130208333,1,0,0,1,5.881999969,5,6.514999866,1,0,1200,310,1,1199,lonely,47542,2019-10-21_21h40.54.579,SurveyExpMetaMem,3.2.3,MacIntel,60
,,,,,,,,,,,,,,,,,,,,6,8.233999968,3,2.84100008,1,0,1200,133,1,1199,prosperous,47542,2019-10-21_21h40.54.579,SurveyExpMetaMem,3.2.3,MacIntel,60
,,,,,,,,,,,,,,,,,,,,1,8.454999924,7,3.025000095,1,0,1200,212,1,1199,belief,47542,2019-10-21_21h40.54.579,SurveyExpMetaMem,3.2.3,MacIntel,60
,,,,,,,,,,,,,,,,,,,,7,4.826999903,6,3.028000116,1,0,1200,114,1,1199,raise,47542,2019-10-21_21h40.54.579,SurveyExpMetaMem,3.2.3,MacIntel,60
,,,,,,,,,,,,,,,,,,,,1,3.119999886,8,3.089999914,1,0,1200,867,1,1199,relaxed,47542,2019-10-21_21h40.54.579,SurveyExpMetaMem,3.2.3,MacIntel,60
,,,,,,,,,,,,,,,,,,,,4,3.822000027,2,4.524999857,1,0,1200,1156,1,1199,weapon,47542,2019-10-21_21h40.54.579,SurveyExpMetaMem,3.2.3,MacIntel,60
,,,,,,,,,,,,,,,,,,,,1,3.586999893,1,1.238999844,1,0,1200,1196,1,1199,breathless,47542,2019-10-21_21h40.54.579,SurveyExpMetaMem,3.2.3,MacIntel,60
,,,,,,,,,,,,,,,,,,,,1,4.088999987,1,0.855999947,1,0,1200,1084,1,1199,uneasy,47542,2019-10-21_21h40.54.579,SurveyExpMetaMem,3.2.3,MacIntel,60
,,,,,,,,,,,,,,,,,,,,7,3.434999943,6,1.846999884,1,0,1200,27,1,1199,gourmet,47542,2019-10-21_21h40.54.579,SurveyExpMetaMem,3.2.3,MacIntel,60
,,,,,,,,,,,,,,,,,,,,7,2.47300005,6,2.539999723,1,0,1200,1089,1,1199,ridicule,47542,2019-10-21_21h40.54.579,SurveyExpMetaMem,3.2.3,MacIntel,60
,,,,,,,,,,,,,,,,,,,,3,2.660000086,5,1.439999819,1,0,1200,642,1,1199,newspaper,47542,2019-10-21_21h40.54.579,SurveyExpMetaMem,3.2.3,MacIntel,60
,,,,,,,,,,,,,,,,,,,,7,3.723999977,6,0.923999786,1,0,1200,80,1,1199,wonderful,47542,2019-10-21_21h40.54.579,SurveyExpMetaMem,3.2.3,MacIntel,60
,,,,,,,,,,,,,,,,,,,,5,2.004999876,4,0.430999756,1,0,1200,276,1,1199,pastry,47542,2019-10-21_21h40.54.579,SurveyExpMetaMem,3.2.3,MacIntel,60
,,,,,,,,,,,,,,,,,,,,5,1.503999949,4,0.315999985,1,0,1200,277,1,1199,cupcake,47542,2019-10-21_21h40.54.579,SurveyExpMetaMem,3.2.3,MacIntel,60
,,,,,,,,,,,,,,,,,,,,7,4.938999891,2,2.29399991,1,0,1200,1038,1,1199,pervert,47542,2019-10-21_21h40.54.579,SurveyExpMetaMem,3.2.3,MacIntel,60
,,,,,,,,,,,,,,,,,,,,7,3.21999979,6,1.707000017,1,0,1200,442,1,1199,foolish,47542,2019-10-21_21h40.54.579,SurveyExpMetaMem,3.2.3,MacIntel,60
,,,,,,,,,,,,,,,,,,,,9,3.27699995,9,2.247999907,1,0,1200,285,1,1199,gold,47542,2019-10-21_21h40.54.579,SurveyExpMetaMem,3.2.3,MacIntel,60
,,,,,,,,,,,,,,,,,,,,8,2.105999947,7,1.058000088,1,0,1200,122,1,1199,prince,47542,2019-10-21_21h40.54.579,SurveyExpMetaMem,3.2.3,MacIntel,60
,,,,,,,,,,,,,,,,,,,,6,4.070999861,7,4.223999977,1,0,1200,189,1,1199,thoughtful,47542,2019-10-21_21h40.54.579,SurveyExpMetaMem,3.2.3,MacIntel,60
,,,,,,,,,,,,,,,,,,,,1,2.727999926,8,1.842000008,1,0,1200,796,1,1199,rose,47542,2019-10-21_21h40.54.579,SurveyExpMetaMem,3.2.3,MacIntel,60
,,,,,,,,,,,,,,,,,,,,1,2.670999765,8,1.990999937,1,0,1200,938,1,1199,seasick,47542,2019-10-21_21h40.54.579,SurveyExpMetaMem,3.2.3,MacIntel,60
,,,,,,,,,,,,,,,,,,,,8,4.989000082,7,1.531999826,1,0,1200,839,1,1199,flower,47542,2019-10-21_21h40.54.579,SurveyExpMetaMem,3.2.3,MacIntel,60
,,,,,,,,,,,,,,,,,,,,2,2.375,2,1.490999937,1,0,1200,919,1,1199,loss,47542,2019-10-21_21h40.54.579,SurveyExpMetaMem,3.2.3,MacIntel,60
,,,,,,,,,,,,,,,,,,,,2,4.573999882,1,0.97300005,1,0,1200,573,1,1199,cease,47542,2019-10-21_21h40.54.579,SurveyExpMetaMem,3.2.3,MacIntel,60
,,,,,,,,,,,,,,,,,,,,3,1.855999947,4,0.388999939,1,0,1200,110,1,1199,animal,47542,2019-10-21_21h40.54.579,SurveyExpMetaMem,3.2.3,MacIntel,60
,,,,,,,,,,,,,,,,,,,,4,2.628999949,5,0.842999697,1,0,1200,516,1,1199,smug,47542,2019-10-21_21h40.54.579,SurveyExpMetaMem,3.2.3,MacIntel,60
,,,,,,,,,,,,,,,,,,,,9,3.941999912,8,2.255999804,1,0,1200,74,1,1199,explore,47542,2019-10-21_21h40.54.579,SurveyExpMetaMem,3.2.3,MacIntel,60
,,,,,,,,,,,,,,,,,,,,2,2.308000088,3,5.457000017,1,0,1200,829,1,1199,innocent,47542,2019-10-21_21h40.54.579,SurveyExpMetaMem,3.2.3,MacIntel,60
,,,,,,,,,,,,,,,,,,,,5,4.843999863,4,0.491999865,1,0,1200,401,1,1199,feeble,47542,2019-10-21_21h40.54.579,SurveyExpMetaMem,3.2.3,MacIntel,60
,,,,,,,,,,,,,,,,,,,,5,3.358999729,4,0.656999826,1,0,1200,550,1,1199,fart,47542,2019-10-21_21h40.54.579,SurveyExpMetaMem,3.2.3,MacIntel,60
,,,,,,,,,,,,,,,,,,,,8,1.891000032,5,1.312999964,1,0,1200,222,1,1199,waterskiing,47542,2019-10-21_21h40.54.579,SurveyExpMetaMem,3.2.3,MacIntel,60
,,,,,,,,,,,,,,,,,,,,8,2.854999781,5,1.271999836,1,0,1200,626,1,1199,pan,47542,2019-10-21_21h40.54.579,SurveyExpMetaMem,3.2.3,MacIntel,60
,,,,,,,,,,,,,,,,,,,,8,2.59499979,5,0.737999916,1,0,1200,630,1,1199,website,47542,2019-10-21_21h40.54.579,SurveyExpMetaMem,3.2.3,MacIntel,60
,,,,,,,,,,,,,,,,,,,,7,7.321999788,5,1.023000002,1,0,1200,384,1,1199,idiot,47542,2019-10-21_21h40.54.579,SurveyExpMetaMem,3.2.3,MacIntel,60
,,,,,,,,,,,,,,,,,,,,8,2.621000051,7,0.624999762,1,0,1200,1176,1,1199,vampire,47542,2019-10-21_21h40.54.579,SurveyExpMetaMem,3.2.3,MacIntel,60
,,,,,,,,,,,,,,,,,,,,8,1.154999971,7,0.672999859,1,0,1200,1064,1,1199,sinful,47542,2019-10-21_21h40.54.579,SurveyExpMetaMem,3.2.3,MacIntel,60
,,,,,,,,,,,,,,,,,,,,6,4.555999756,5,0.639999866,1,0,1200,161,1,1199,limousine,47542,2019-10-21_21h40.54.579,SurveyExpMetaMem,3.2.3,MacIntel,60
,,,,,,,,,,,,,,,,,,,,4,1.191999912,5,5.053999901,1,0,1200,736,1,1199,hawk,47542,2019-10-21_21h40.54.579,SurveyExpMetaMem,3.2.3,MacIntel,60
,,,,,,,,,,,,,,,,,,,,1,2.120999813,7,3.963999987,1,0,1200,732,1,1199,humble,47542,2019-10-21_21h40.54.579,SurveyExpMetaMem,3.2.3,MacIntel,60
,,,,,,,,,,,,,,,,,,,,7,4.138000011,8,1.755999804,1,0,1200,184,1,1199,surprised,47542,2019-10-21_21h40.54.579,SurveyExpMetaMem,3.2.3,MacIntel,60
,,,,,,,,,,,,,,,,,,,,1,2.855999947,1,0.824999809,1,0,1200,534,1,1199,rules,47542,2019-10-21_21h40.54.579,SurveyExpMetaMem,3.2.3,MacIntel,60
,,,,,,,,,,,,,,,,,,,,5,6.970999956,6,0.572999954,1,0,1200,621,1,1199,chew,47542,2019-10-21_21h40.54.579,SurveyExpMetaMem,3.2.3,MacIntel,60
,,,,,,,,,,,,,,,,,,,,2,3.871999741,5,1.806999922,1,0,1200,101,1,1199,alien,47542,2019-10-21_21h40.54.579,SurveyExpMetaMem,3.2.3,MacIntel,60
,,,,,,,,,,,,,,,,,,,,7,6.703999758,2,1.373999834,1,0,1200,1057,1,1199,deceit,47542,2019-10-21_21h40.54.579,SurveyExpMetaMem,3.2.3,MacIntel,60
,,,,,,,,,,,,,,,,,,,,5,1.674999952,4,0.822999954,1,0,1200,79,1,1199,dazzle,47542,2019-10-21_21h40.54.579,SurveyExpMetaMem,3.2.3,MacIntel,60
,,,,,,,,,,,,,,,,,,,,6,3.621999979,3,1.890000105,1,0,1200,584,1,1199,anus,47542,2019-10-21_21h40.54.579,SurveyExpMetaMem,3.2.3,MacIntel,60
,,,,,,,,,,,,,,,,,,,,7,3.138000011,2,3.221999884,1,0,1200,1081,1,1199,damage,47542,2019-10-21_21h40.54.579,SurveyExpMetaMem,3.2.3,MacIntel,60
,,,,,,,,,,,,,,,,,,,,1,3.178999901,1,0.588999987,1,0,1200,993,1,1199,remorse,47542,2019-10-21_21h40.54.579,SurveyExpMetaMem,3.2.3,MacIntel,60
,,,,,,,,,,,,,,,,,,,,5,2.409999847,4,2.498999834,1,0,1200,672,1,1199,ketchup,47542,2019-10-21_21h40.54.579,SurveyExpMetaMem,3.2.3,MacIntel,60
,,,,,,,,,,,,,,,,,,,,4,8.021999836,1,2.171999931,1,0,1200,1025,1,1199,deadly,47542,2019-10-21_21h40.54.579,SurveyExpMetaMem,3.2.3,MacIntel,60
,,,,,,,,,,,,,,,,,,,,1,2.700999975,6,2.72300005,1,0,1200,856,1,1199,leisurely,47542,2019-10-21_21h40.54.579,SurveyExpMetaMem,3.2.3,MacIntel,60
,,,,,,,,,,,,,,,,,,,,1,2.572999954,2,3.194000006,1,0,1200,526,1,1199,dry,47542,2019-10-21_21h40.54.579,SurveyExpMetaMem,3.2.3,MacIntel,60
,,,,,,,,,,,,,,,,,,,,1,2.009999752,2,2.306999922,1,0,1200,369,1,1199,blind,47542,2019-10-21_21h40.54.579,SurveyExpMetaMem,3.2.3,MacIntel,60
,,,,,,,,,,,,,,,,,,,,6,4.570999861,5,6.105999947,1,0,1200,942,1,1199,aggravation,47542,2019-10-21_21h40.54.579,SurveyExpMetaMem,3.2.3,MacIntel,60
,,,,,,,,,,,,,,,,,,,,5,3.078999758,4,0.689999819,1,0,1200,638,1,1199,quench,47542,2019-10-21_21h40.54.579,SurveyExpMetaMem,3.2.3,MacIntel,60
,,,,,,,,,,,,,,,,,,,,7,2.241999865,4,0.592000008,1,0,1200,503,1,1199,sludge,47542,2019-10-21_21h40.54.579,SurveyExpMetaMem,3.2.3,MacIntel,60
,,,,,,,,,,,,,,,,,,,,4,3.103999853,2,0.845999956,1,0,1200,946,1,1199,amputate,47542,2019-10-21_21h40.54.579,SurveyExpMetaMem,3.2.3,MacIntel,60
,,,,,,,,,,,,,,,,,,,,7,6.006000042,3,1.707999945,1,0,1200,1012,1,1199,gunshot,47542,2019-10-21_21h40.54.579,SurveyExpMetaMem,3.2.3,MacIntel,60
,,,,,,,,,,,,,,,,,,,,5,2.252999783,3,0.715000153,1,0,1200,624,1,1199,tower,47542,2019-10-21_21h40.54.579,SurveyExpMetaMem,3.2.3,MacIntel,60
,,,,,,,,,,,,,,,,,,,,1,3.322999954,1,1.155999899,1,0,1200,564,1,1199,wane,47542,2019-10-21_21h40.54.579,SurveyExpMetaMem,3.2.3,MacIntel,60
,,,,,,,,,,,,,,,,,,,,4,3.537999868,3,1.389999866,1,0,1200,520,1,1199,gullible,47542,2019-10-21_21h40.54.579,SurveyExpMetaMem,3.2.3,MacIntel,60
,,,,,,,,,,,,,,,,,,,,2,2.973999739,7,1.838999987,1,0,1200,860,1,1199,silk,47542,2019-10-21_21h40.54.579,SurveyExpMetaMem,3.2.3,MacIntel,60
,,,,,,,,,,,,,,,,,,,,4,5.555000067,3,0.973999977,1,0,1200,423,1,1199,stain,47542,2019-10-21_21h40.54.579,SurveyExpMetaMem,3.2.3,MacIntel,60
,,,,,,,,,,,,,,,,,,,,7,2.121000051,9,3.424000025,1,0,1200,240,1,1199,giggles,47542,2019-10-21_21h40.54.579,SurveyExpMetaMem,3.2.3,MacIntel,60
,,,,,,,,,,,,,,,,,,,,7,2.289000034,8,0.859999895,1,0,1200,275,1,1199,brilliant,47542,2019-10-21_21h40.54.579,SurveyExpMetaMem,3.2.3,MacIntel,60
,,,,,,,,,,,,,,,,,,,,5,2.058000088,4,2.891000032,1,0,1200,827,1,1199,saint,47542,2019-10-21_21h40.54.579,SurveyExpMetaMem,3.2.3,MacIntel,60
,,,,,,,,,,,,,,,,,,,,1,3.039000034,7,3.056999922,1,0,1200,246,1,1199,complete,47542,2019-10-21_21h40.54.579,SurveyExpMetaMem,3.2.3,MacIntel,60
,,,,,,,,,,,,,,,,,,,,7,2.92599988,8,3.686999798,1,0,1200,1041,1,1199,sin,47542,2019-10-21_21h40.54.579,SurveyExpMetaMem,3.2.3,MacIntel,60
,,,,,,,,,,,,,,,,,,,,9,3.078999996,5,2.172999859,1,0,1200,57,1,1199,important,47542,2019-10-21_21h40.54.579,SurveyExpMetaMem,3.2.3,MacIntel,60
,,,,,,,,,,,,,,,,,,,,7,2.296999931,5,1.059000015,1,0,1200,135,1,1199,applause,47542,2019-10-21_21h40.54.579,SurveyExpMetaMem,3.2.3,MacIntel,60
,,,,,,,,,,,,,,,,,,,,1,4.120999813,1,0.606999874,1,0,1200,1145,1,1199,officer,47542,2019-10-21_21h40.54.579,SurveyExpMetaMem,3.2.3,MacIntel,60
,,,,,,,,,,,,,,,,,,,,4,1.921999931,3,1.039999962,1,0,1200,220,1,1199,reef,47542,2019-10-21_21h40.54.579,SurveyExpMetaMem,3.2.3,MacIntel,60
,,,,,,,,,,,,,,,,,,,,5,1.453999758,4,0.388999939,1,0,1200,1050,1,1199,scorn,47542,2019-10-21_21h40.54.579,SurveyExpMetaMem,3.2.3,MacIntel,60
,,,,,,,,,,,,,,,,,,,,6,2.371999979,4,0.70600009,1,0,1200,834,1,1199,crown,47542,2019-10-21_21h40.54.579,SurveyExpMetaMem,3.2.3,MacIntel,60
,,,,,,,,,,,,,,,,,,,,6,2.138999939,4,1.589999914,1,0,1200,1073,1,1199,bitch,47542,2019-10-21_21h40.54.579,SurveyExpMetaMem,3.2.3,MacIntel,60
,,,,,,,,,,,,,,,,,,,,5,6.308000088,4,2.447000027,1,0,1200,18,1,1199,mail,47542,2019-10-21_21h40.54.579,SurveyExpMetaMem,3.2.3,MacIntel,60
,,,,,,,,,,,,,,,,,,,,5,3.937999964,4,1.388999939,1,0,1200,458,1,1199,refuse,47542,2019-10-21_21h40.54.579,SurveyExpMetaMem,3.2.3,MacIntel,60
,,,,,,,,,,,,,,,,,,,,4,5.592999935,2,0.673999786,1,0,1200,429,1,1199,cough,47542,2019-10-21_21h40.54.579,SurveyExpMetaMem,3.2.3,MacIntel,60
,,,,,,,,,,,,,,,,,,,,4,2.808000088,3,0.976000071,1,0,1200,692,1,1199,medicine,47542,2019-10-21_21h40.54.579,SurveyExpMetaMem,3.2.3,MacIntel,60
,,,,,,,,,,,,,,,,,,,,7,2.038000107,4,1.39199996,1,0,1200,1130,1,1199,slut,47542,2019-10-21_21h40.54.579,SurveyExpMetaMem,3.2.3,MacIntel,60
,,,,,,,,,,,,,,,,,,,,6,3.872999907,4,1.02699995,1,0,1200,869,1,1199,assure,47542,2019-10-21_21h40.54.579,SurveyExpMetaMem,3.2.3,MacIntel,60
,,,,,,,,,,,,,,,,,,,,6,1.988999844,3,2.688999891,1,0,1200,352,1,1199,negligent,47542,2019-10-21_21h40.54.579,SurveyExpMetaMem,3.2.3,MacIntel,60
,,,,,,,,,,,,,,,,,,,,7,2.270999908,2,1.073999882,1,0,1200,1092,1,1199,rattlesnake,47542,2019-10-21_21h40.54.579,SurveyExpMetaMem,3.2.3,MacIntel,60
,,,,,,,,,,,,,,,,,,,,9,1.590999842,4,0.404000044,1,0,1200,41,1,1199,progress,47542,2019-10-21_21h40.54.579,SurveyExpMetaMem,3.2.3,MacIntel,60
,,,,,,,,,,,,,,,,,,,,7,4.855999947,3,0.688999891,1,0,1200,1007,1,1199,tornado,47542,2019-10-21_21h40.54.579,SurveyExpMetaMem,3.2.3,MacIntel,60
,,,,,,,,,,,,,,,,,,,,9,2.694999933,4,2.990999937,1,0,1200,975,1,1199,insecure,47542,2019-10-21_21h40.54.579,SurveyExpMetaMem,3.2.3,MacIntel,60
,,,,,,,,,,,,,,,,,,,,4,2.871999979,3,0.346999884,1,0,1200,522,1,1199,cleft,47542,2019-10-21_21h40.54.579,SurveyExpMetaMem,3.2.3,MacIntel,60
,,,,,,,,,,,,,,,,,,,,5,1.822999954,2,0.756999969,1,0,1200,338,1,1199,obesity,47542,2019-10-21_21h40.54.579,SurveyExpMetaMem,3.2.3,MacIntel,60
,,,,,,,,,,,,,,,,,,,,8,1.676999807,6,1.707000017,1,0,1200,217,1,1199,bravery,47542,2019-10-21_21h40.54.579,SurveyExpMetaMem,3.2.3,MacIntel,60
,,,,,,,,,,,,,,,,,,,,3,4.888999939,2,0.693000078,1,0,1200,335,1,1199,decay,47542,2019-10-21_21h40.54.579,SurveyExpMetaMem,3.2.3,MacIntel,60
,,,,,,,,,,,,,,,,,,,,6,2.587999821,4,0.992000103,1,0,1200,978,1,1199,starving,47542,2019-10-21_21h40.54.579,SurveyExpMetaMem,3.2.3,MacIntel,60
,,,,,,,,,,,,,,,,,,,,6,4.189999819,5,1.191999912,1,0,1200,786,1,1199,afternoon,47542,2019-10-21_21h40.54.579,SurveyExpMetaMem,3.2.3,MacIntel,60
,,,,,,,,,,,,,,,,,,,,6,3.287999868,4,1.238999844,1,0,1200,1031,1,1199,fear,47542,2019-10-21_21h40.54.579,SurveyExpMetaMem,3.2.3,MacIntel,60
,,,,,,,,,,,,,,,,,,,,7,2.262999773,5,2.4599998,1,0,1200,685,1,1199,makeup,47542,2019-10-21_21h40.54.579,SurveyExpMetaMem,3.2.3,MacIntel,60
,,,,,,,,,,,,,,,,,,,,6,2.236999989,5,0.54399991,1,0,1200,152,1,1199,hire,47542,2019-10-21_21h40.54.579,SurveyExpMetaMem,3.2.3,MacIntel,60
,,,,,,,,,,,,,,,,,,,,2,4.42599988,5,2.288000107,1,0,1200,622,1,1199,revere,47542,2019-10-21_21h40.54.579,SurveyExpMetaMem,3.2.3,MacIntel,60
,,,,,,,,,,,,,,,,,,,,4,1.222999811,3,0.589999914,1,0,1200,393,1,1199,droop,47542,2019-10-21_21h40.54.579,SurveyExpMetaMem,3.2.3,MacIntel,60
,,,,,,,,,,,,,,,,,,,,6,1.871999979,5,0.72300005,1,0,1200,1158,1,1199,dentist,47542,2019-10-21_21h40.54.579,SurveyExpMetaMem,3.2.3,MacIntel,60
,,,,,,,,,,,,,,,,,,,,2,4.256000042,2,1.072999954,1,0,1200,433,1,1199,uninteresting,47542,2019-10-21_21h40.54.579,SurveyExpMetaMem,3.2.3,MacIntel,60
,,,,,,,,,,,,,,,,,,,,2,2.006000042,2,0.254999876,1,0,1200,398,1,1199,handicapped,47542,2019-10-21_21h40.54.579,SurveyExpMetaMem,3.2.3,MacIntel,60
,,,,,,,,,,,,,,,,,,,,2,1.295000076,2,0.228999853,1,0,1200,308,1,1199,worthless,47542,2019-10-21_21h40.54.579,SurveyExpMetaMem,3.2.3,MacIntel,60
,,,,,,,,,,,,,,,,,,,,9,2.070999861,4,1.128000021,1,0,1200,43,1,1199,diamond,47542,2019-10-21_21h40.54.579,SurveyExpMetaMem,3.2.3,MacIntel,60
,,,,,,,,,,,,,,,,,,,,8,2.457000017,5,0.487999916,1,0,1200,726,1,1199,crackers,47542,2019-10-21_21h40.54.579,SurveyExpMetaMem,3.2.3,MacIntel,60
,,,,,,,,,,,,,,,,,,,,8,4.995999813,2,0.673999786,1,0,1200,358,1,1199,waste,47542,2019-10-21_21h40.54.579,SurveyExpMetaMem,3.2.3,MacIntel,60
,,,,,,,,,,,,,,,,,,,,7,2.471999884,4,0.523000002,1,0,1200,132,1,1199,silly,47542,2019-10-21_21h40.54.579,SurveyExpMetaMem,3.2.3,MacIntel,60
,,,,,,,,,,,,,,,,,,,,6,2.044999838,5,1.138999939,1,0,1200,882,1,1199,gentle,47542,2019-10-21_21h40.54.579,SurveyExpMetaMem,3.2.3,MacIntel,60
,,,,,,,,,,,,,,,,,,,,7,1.607000113,4,0.779999971,1,0,1200,1182,1,1199,pierce,47542,2019-10-21_21h40.54.579,SurveyExpMetaMem,3.2.3,MacIntel,60
,,,,,,,,,,,,,,,,,,,,6,3.00999999,6,2.240999937,1,0,1200,830,1,1199,pear,47542,2019-10-21_21h40.54.579,SurveyExpMetaMem,3.2.3,MacIntel,60
,,,,,,,,,,,,,,,,,,,,8,2.262000084,4,0.372999907,1,0,1200,657,1,1199,peanut,47542,2019-10-21_21h40.54.579,SurveyExpMetaMem,3.2.3,MacIntel,60
,,,,,,,,,,,,,,,,,,,,9,3.688999891,7,0.940000057,1,0,1200,680,1,1199,candle,47542,2019-10-21_21h40.54.579,SurveyExpMetaMem,3.2.3,MacIntel,60
,,,,,,,,,,,,,,,,,,,,4,2.138999939,3,0.259999752,1,0,1200,471,1,1199,chump,47542,2019-10-21_21h40.54.579,SurveyExpMetaMem,3.2.3,MacIntel,60
,,,,,,,,,,,,,,,,,,,,6,3.405999899,2,1.364000082,1,0,1200,940,1,1199,war,47542,2019-10-21_21h40.54.579,SurveyExpMetaMem,3.2.3,MacIntel,60
,,,,,,,,,,,,,,,,,,,,8,17.95499992,5,4.326999903,1,0,1200,797,1,1199,hamburger,47542,2019-10-21_21h40.54.579,SurveyExpMetaMem,3.2.3,MacIntel,60
,,,,,,,,,,,,,,,,,,,,2,3.026000023,2,0.55700016,1,0,1200,348,1,1199,impotent,47542,2019-10-21_21h40.54.579,SurveyExpMetaMem,3.2.3,MacIntel,60
,,,,,,,,,,,,,,,,,,,,2,2.621999979,4,1.522000074,1,0,1200,862,1,1199,ease,47542,2019-10-21_21h40.54.579,SurveyExpMetaMem,3.2.3,MacIntel,60
,,,,,,,,,,,,,,,,,,,,6,3.638000011,3,0.871999979,1,0,1200,1149,1,1199,fight,47542,2019-10-21_21h40.54.579,SurveyExpMetaMem,3.2.3,MacIntel,60
,,,,,,,,,,,,,,,,,,,,8,2.858999729,4,1.729000092,1,0,1200,1180,1,1199,heat,47542,2019-10-21_21h40.54.579,SurveyExpMetaMem,3.2.3,MacIntel,60
,,,,,,,,,,,,,,,,,,,,6,2.607000113,5,1.173000097,1,0,1200,29,1,1199,life,47542,2019-10-21_21h40.54.579,SurveyExpMetaMem,3.2.3,MacIntel,60
,,,,,,,,,,,,,,,,,,,,9,2.170999765,8,1.872999907,1,0,1200,146,1,1199,congratulations,47542,2019-10-21_21h40.54.579,SurveyExpMetaMem,3.2.3,MacIntel,60
,,,,,,,,,,,,,,,,,,,,7,1.955999851,6,0.622999907,1,0,1200,1153,1,1199,mangle,47542,2019-10-21_21h40.54.579,SurveyExpMetaMem,3.2.3,MacIntel,60
,,,,,,,,,,,,,,,,,,,,8,1.544999838,7,1.805000067,1,0,1200,851,1,1199,cool,47542,2019-10-21_21h40.54.579,SurveyExpMetaMem,3.2.3,MacIntel,60
,,,,,,,,,,,,,,,,,,,,5,2.506999731,4,0.440999985,1,0,1200,1055,1,1199,alarm,47542,2019-10-21_21h40.54.579,SurveyExpMetaMem,3.2.3,MacIntel,60
,,,,,,,,,,,,,,,,,,,,4,7.414000034,2,2.758999825,1,0,1200,718,1,1199,flow,47542,2019-10-21_21h40.54.579,SurveyExpMetaMem,3.2.3,MacIntel,60
,,,,,,,,,,,,,,,,,,,,5,3.520999908,6,1.27699995,1,0,1200,748,1,1199,town,47542,2019-10-21_21h40.54.579,SurveyExpMetaMem,3.2.3,MacIntel,60
,,,,,,,,,,,,,,,,,,,,7,3.787999868,2,0.397000074,1,0,1200,1029,1,1199,abduction,47542,2019-10-21_21h40.54.579,SurveyExpMetaMem,3.2.3,MacIntel,60
,,,,,,,,,,,,,,,,,,,,9,1.888000011,9,1.025000095,1,0,1200,124,1,1199,honeymoon,47542,2019-10-21_21h40.54.579,SurveyExpMetaMem,3.2.3,MacIntel,60
,,,,,,,,,,,,,,,,,,,,5,2.77699995,9,0.672999859,1,0,1200,842,1,1199,breathe,47542,2019-10-21_21h40.54.579,SurveyExpMetaMem,3.2.3,MacIntel,60
,,,,,,,,,,,,,,,,,,,,6,3.174999952,5,1.644000053,1,0,1200,593,1,1199,errand,47542,2019-10-21_21h40.54.579,SurveyExpMetaMem,3.2.3,MacIntel,60
,,,,,,,,,,,,,,,,,,,,6,1.790999889,5,1.622999907,1,0,1200,241,1,1199,car,47542,2019-10-21_21h40.54.579,SurveyExpMetaMem,3.2.3,MacIntel,60
,,,,,,,,,,,,,,,,,,,,7,2.420000076,7,0.773999929,1,0,1200,68,1,1199,perfect,47542,2019-10-21_21h40.54.579,SurveyExpMetaMem,3.2.3,MacIntel,60
,,,,,,,,,,,,,,,,,,,,1,3.973999977,8,1.690000057,1,0,1200,895,1,1199,peace,47542,2019-10-21_21h40.54.579,SurveyExpMetaMem,3.2.3,MacIntel,60
,,,,,,,,,,,,,,,,,,,,8,2.358999968,3,0.656999826,1,0,1200,1104,1,1199,avalanche,47542,2019-10-21_21h40.54.579,SurveyExpMetaMem,3.2.3,MacIntel,60
,,,,,,,,,,,,,,,,,,,,6,2.089999914,5,0.305000067,1,0,1200,637,1,1199,flock,47542,2019-10-21_21h40.54.579,SurveyExpMetaMem,3.2.3,MacIntel,60
,,,,,,,,,,,,,,,,,,,,6,2.788999796,5,0.22300005,1,0,1200,501,1,1199,dustpan,47542,2019-10-21_21h40.54.579,SurveyExpMetaMem,3.2.3,MacIntel,60
,,,,,,,,,,,,,,,,,,,,8,1.936999798,6,1.75999999,1,0,1200,218,1,1199,charming,47542,2019-10-21_21h40.54.579,SurveyExpMetaMem,3.2.3,MacIntel,60
,,,,,,,,,,,,,,,,,,,,4,3.938999891,2,1.121999979,1,0,1200,457,1,1199,confuse,47542,2019-10-21_21h40.54.579,SurveyExpMetaMem,3.2.3,MacIntel,60
,,,,,,,,,,,,,,,,,,,,8,1.808000088,7,1.405999899,1,0,1200,804,1,1199,peach,47542,2019-10-21_21h40.54.579,SurveyExpMetaMem,3.2.3,MacIntel,60
,,,,,,,,,,,,,,,,,,,,9,2.238999844,9,0.690999985,1,0,1200,789,1,1199,green,47542,2019-10-21_21h40.54.579,SurveyExpMetaMem,3.2.3,MacIntel,60
,,,,,,,,,,,,,,,,,,,,5,2.738999844,2,0.861999989,1,0,1200,432,1,1199,resign,47542,2019-10-21_21h40.54.579,SurveyExpMetaMem,3.2.3,MacIntel,60
,,,,,,,,,,,,,,,,,,,,4,2.273000002,2,0.405999899,1,0,1200,502,1,1199,crap,47542,2019-10-21_21h40.54.579,SurveyExpMetaMem,3.2.3,MacIntel,60
,,,,,,,,,,,,,,,,,,,,2,2.503999949,2,0.172999859,1,0,1200,1199,1,1199,expensive,47542,2019-10-21_21h40.54.579,SurveyExpMetaMem,3.2.3,MacIntel,60
,,,,,,,,,,,,,,,,,,,,5,2.371999741,5,0.423999786,1,0,1200,880,1,1199,security,47542,2019-10-21_21h40.54.579,SurveyExpMetaMem,3.2.3,MacIntel,60
,,,,,,,,,,,,,,,,,,,,9,3.114999771,9,0.687999964,1,0,1200,226,1,1199,prize,47542,2019-10-21_21h40.54.579,SurveyExpMetaMem,3.2.3,MacIntel,60
,,,,,,,,,,,,,,,,,,,,9,1.072000027,9,0.258999825,1,0,1200,299,1,1199,champion,47542,2019-10-21_21h40.54.579,SurveyExpMetaMem,3.2.3,MacIntel,60
,,,,,,,,,,,,,,,,,,,,5,1.673000097,4,0.19299984,1,0,1200,648,1,1199,beads,47542,2019-10-21_21h40.54.579,SurveyExpMetaMem,3.2.3,MacIntel,60
,,,,,,,,,,,,,,,,,,,,1,1.777999878,1,0.272999763,1,0,1200,723,1,1199,cinnamon,47542,2019-10-21_21h40.54.579,SurveyExpMetaMem,3.2.3,MacIntel,60
,,,,,,,,,,,,,,,,,,,,1,1.377000093,1,0.255999804,1,0,1200,611,1,1199,herring,47542,2019-10-21_21h40.54.579,SurveyExpMetaMem,3.2.3,MacIntel,60
,,,,,,,,,,,,,,,,,,,,1,1.422999859,1,0.197000027,1,0,1200,999,1,1199,burdened,47542,2019-10-21_21h40.54.579,SurveyExpMetaMem,3.2.3,MacIntel,60
,,,,,,,,,,,,,,,,,,,,6,1.943000078,5,0.210999966,1,0,1200,391,1,1199,detach,47542,2019-10-21_21h40.54.579,SurveyExpMetaMem,3.2.3,MacIntel,60
,,,,,,,,,,,,,,,,,,,,7,1.904999971,6,0.259000063,1,0,1200,666,1,1199,verify,47542,2019-10-21_21h40.54.579,SurveyExpMetaMem,3.2.3,MacIntel,60
,,,,,,,,,,,,,,,,,,,,7,1.504999876,7,0.190000057,1,0,1200,464,1,1199,tick,47542,2019-10-21_21h40.54.579,SurveyExpMetaMem,3.2.3,MacIntel,60
,,,,,,,,,,,,,,,,,,,,9,1.686999798,9,0.605999947,1,0,1200,780,1,1199,grass,47542,2019-10-21_21h40.54.579,SurveyExpMetaMem,3.2.3,MacIntel,60
,,,,,,,,,,,,,,,,,,,,9,1.021999836,9,0.198999882,1,0,1200,888,1,1199,refreshment,47542,2019-10-21_21h40.54.579,SurveyExpMetaMem,3.2.3,MacIntel,60
,,,,,,,,,,,,,,,,,,,,9,0.989999771,9,0.179000139,1,0,1200,817,1,1199,countryside,47542,2019-10-21_21h40.54.579,SurveyExpMetaMem,3.2.3,MacIntel,60
,,,,,,,,,,,,,,,,,,,,8,2.128000021,7,0.523000002,1,0,1200,291,1,1199,fantastic,47542,2019-10-21_21h40.54.579,SurveyExpMetaMem,3.2.3,MacIntel,60
,,,,,,,,,,,,,,,,,,,,4,1.536999702,3,0.213000059,1,0,1200,617,1,1199,tomato,47542,2019-10-21_21h40.54.579,SurveyExpMetaMem,3.2.3,MacIntel,60
,,,,,,,,,,,,,,,,,,,,7,1.871999979,6,0.207999945,1,0,1200,131,1,1199,treat,47542,2019-10-21_21h40.54.579,SurveyExpMetaMem,3.2.3,MacIntel,60
,,,,,,,,,,,,,,,,,,,,6,3.262999773,1,0.641999722,1,0,1200,962,1,1199,poisonous,47542,2019-10-21_21h40.54.579,SurveyExpMetaMem,3.2.3,MacIntel,60
,,,,,,,,,,,,,,,,,,,,6,2.396999836,2,0.246000051,1,0,1200,607,1,1199,greyhound,47542,2019-10-21_21h40.54.579,SurveyExpMetaMem,3.2.3,MacIntel,60
,,,,,,,,,,,,,,,,,,,,6,8.956999779,5,0.229999781,1,0,1200,462,1,1199,shallow,47542,2019-10-21_21h40.54.579,SurveyExpMetaMem,3.2.3,MacIntel,60
,,,,,,,,,,,,,,,,,,,,4,4.238999844,3,0.554999828,1,0,1200,557,1,1199,class,47542,2019-10-21_21h40.54.579,SurveyExpMetaMem,3.2.3,MacIntel,60
,,,,,,,,,,,,,,,,,,,,6,3.414999962,2,0.822999954,1,0,1200,1112,1,1199,pressure,47542,2019-10-21_21h40.54.579,SurveyExpMetaMem,3.2.3,MacIntel,60
,,,,,,,,,,,,,,,,,,,,2,10.77099991,1,0.226999998,1,0,1200,1117,1,1199,court,47542,2019-10-21_21h40.54.579,SurveyExpMetaMem,3.2.3,MacIntel,60
,,,,,,,,,,,,,,,,,,,,1,6.338000059,5,1.680000067,1,0,1200,822,1,1199,clearer,47542,2019-10-21_21h40.54.579,SurveyExpMetaMem,3.2.3,MacIntel,60
,,,,,,,,,,,,,,,,,,,,5,1.239000082,4,0.29399991,1,0,1200,543,1,1199,gloat,47542,2019-10-21_21h40.54.579,SurveyExpMetaMem,3.2.3,MacIntel,60
,,,,,,,,,,,,,,,,,,,,5,2.070999861,5,0.340999842,1,0,1200,1198,1,1199,lightning,47542,2019-10-21_21h40.54.579,SurveyExpMetaMem,3.2.3,MacIntel,60
,,,,,,,,,,,,,,,,,,,,7,1.487999916,6,1.712999821,1,0,1200,771,1,1199,practical,47542,2019-10-21_21h40.54.579,SurveyExpMetaMem,3.2.3,MacIntel,60
,,,,,,,,,,,,,,,,,,,,6,1.940999985,5,0.226999998,1,0,1200,697,1,1199,clarinet,47542,2019-10-21_21h40.54.579,SurveyExpMetaMem,3.2.3,MacIntel,60
,,,,,,,,,,,,,,,,,,,,2,4.886999846,1,0.541999817,1,0,1200,518,1,1199,report,47542,2019-10-21_21h40.54.579,SurveyExpMetaMem,3.2.3,MacIntel,60
,,,,,,,,,,,,,,,,,,,,9,1.553999901,9,1.392999887,1,0,1200,91,1,1199,pretty,47542,2019-10-21_21h40.54.579,SurveyExpMetaMem,3.2.3,MacIntel,60
,,,,,,,,,,,,,,,,,,,,5,3.421999931,1,0.97699976,1,0,1200,906,1,1199,syphilis,47542,2019-10-21_21h40.54.579,SurveyExpMetaMem,3.2.3,MacIntel,60
,,,,,,,,,,,,,,,,,,,,7,1.871000051,6,0.638999939,1,0,1200,117,1,1199,powerful,47542,2019-10-21_21h40.54.579,SurveyExpMetaMem,3.2.3,MacIntel,60
,,,,,,,,,,,,,,,,,,,,1,2.739000082,1,0.256000042,1,0,1200,1100,1,1199,evil,47542,2019-10-21_21h40.54.579,SurveyExpMetaMem,3.2.3,MacIntel,60
,,,,,,,,,,,,,,,,,,,,1,3.972000122,1,0.611000061,1,0,1200,1024,1,1199,burn,47542,2019-10-21_21h40.54.579,SurveyExpMetaMem,3.2.3,MacIntel,60
,,,,,,,,,,,,,,,,,,,,6,1.992999792,6,0.606999874,1,0,1200,741,1,1199,wheat,47542,2019-10-21_21h40.54.579,SurveyExpMetaMem,3.2.3,MacIntel,60
,,,,,,,,,,,,,,,,,,,,8,3.239000082,9,1.372999907,1,0,1200,897,1,1199,peaceful,47542,2019-10-21_21h40.54.579,SurveyExpMetaMem,3.2.3,MacIntel,60
,,,,,,,,,,,,,,,,,,,,7,1.438999891,6,0.411999941,1,0,1200,691,1,1199,circle,47542,2019-10-21_21h40.54.579,SurveyExpMetaMem,3.2.3,MacIntel,60
,,,,,,,,,,,,,,,,,,,,4,2.057999849,3,0.173000097,1,0,1200,750,1,1199,porpoise,47542,2019-10-21_21h40.54.579,SurveyExpMetaMem,3.2.3,MacIntel,60
,,,,,,,,,,,,,,,,,,,,4,1.556999922,3,0.190000057,1,0,1200,612,1,1199,propeller,47542,2019-10-21_21h40.54.579,SurveyExpMetaMem,3.2.3,MacIntel,60
,,,,,,,,,,,,,,,,,,,,7,1.790999889,3,0.946000099,1,0,1200,52,1,1199,dare,47542,2019-10-21_21h40.54.579,SurveyExpMetaMem,3.2.3,MacIntel,60
,,,,,,,,,,,,,,,,,,,,8,3.041999817,6,1.588999748,1,0,1200,279,1,1199,bargain,47542,2019-10-21_21h40.54.579,SurveyExpMetaMem,3.2.3,MacIntel,60
,,,,,,,,,,,,,,,,,,,,6,3.342000008,5,0.322999954,1,0,1200,566,1,1199,obscure,47542,2019-10-21_21h40.54.579,SurveyExpMetaMem,3.2.3,MacIntel,60
,,,,,,,,,,,,,,,,,,,,8,1.742999792,6,2.371999979,1,0,1200,735,1,1199,tea,47542,2019-10-21_21h40.54.579,SurveyExpMetaMem,3.2.3,MacIntel,60
,,,,,,,,,,,,,,,,,,,,8,1.579999924,6,1.306999922,1,0,1200,855,1,1199,girl,47542,2019-10-21_21h40.54.579,SurveyExpMetaMem,3.2.3,MacIntel,60
,,,,,,,,,,,,,,,,,,,,6,1.862999916,2,1.178999901,1,0,1200,422,1,1199,doubtful,47542,2019-10-21_21h40.54.579,SurveyExpMetaMem,3.2.3,MacIntel,60
,,,,,,,,,,,,,,,,,,,,7,1.725999832,2,0.289999962,1,0,1200,916,1,1199,starvation,47542,2019-10-21_21h40.54.579,SurveyExpMetaMem,3.2.3,MacIntel,60
,,,,,,,,,,,,,,,,,,,,8,1.256999969,8,1.805000067,1,0,1200,251,1,1199,meteor,47542,2019-10-21_21h40.54.579,SurveyExpMetaMem,3.2.3,MacIntel,60
,,,,,,,,,,,,,,,,,,,,8,3.225999832,8,4.059000015,1,0,1200,191,1,1199,compassion,47542,2019-10-21_21h40.54.579,SurveyExpMetaMem,3.2.3,MacIntel,60
,,,,,,,,,,,,,,,,,,,,1,2.955999851,6,1.773999929,1,0,1200,46,1,1199,god,47542,2019-10-21_21h40.54.579,SurveyExpMetaMem,3.2.3,MacIntel,60
,,,,,,,,,,,,,,,,,,,,1,2.837999821,1,0.332999706,1,0,1200,580,1,1199,fur,47542,2019-10-21_21h40.54.579,SurveyExpMetaMem,3.2.3,MacIntel,60
,,,,,,,,,,,,,,,,,,,,8,3.042000055,7,1.443999767,1,0,1200,39,1,1199,birth,47542,2019-10-21_21h40.54.579,SurveyExpMetaMem,3.2.3,MacIntel,60
,,,,,,,,,,,,,,,,,,,,7,2.107000113,6,0.288999796,1,0,1200,449,1,1199,egotistical,47542,2019-10-21_21h40.54.579,SurveyExpMetaMem,3.2.3,MacIntel,60
,,,,,,,,,,,,,,,,,,,,7,1.088000059,6,0.29399991,1,0,1200,437,1,1199,blubber,47542,2019-10-21_21h40.54.579,SurveyExpMetaMem,3.2.3,MacIntel,60
,,,,,,,,,,,,,,,,,,,,6,0.97699976,7,0.375,1,0,1200,444,1,1199,mold,47542,2019-10-21_21h40.54.579,SurveyExpMetaMem,3.2.3,MacIntel,60
,,,,,,,,,,,,,,,,,,,,8,1.857000113,7,0.239999771,1,0,1200,121,1,1199,self,47542,2019-10-21_21h40.54.579,SurveyExpMetaMem,3.2.3,MacIntel,60
,,,,,,,,,,,,,,,,,,,,5,2.138000011,2,0.739000082,1,0,1200,1002,1,1199,wounds,47542,2019-10-21_21h40.54.579,SurveyExpMetaMem,3.2.3,MacIntel,60
,,,,,,,,,,,,,,,,,,,,2,2.938999891,1,0.323999882,1,0,1200,528,1,1199,dirt,47542,2019-10-21_21h40.54.579,SurveyExpMetaMem,3.2.3,MacIntel,60
,,,,,,,,,,,,,,,,,,,,3,3.276999712,1,0.527999878,1,0,1200,1018,1,1199,distress,47542,2019-10-21_21h40.54.579,SurveyExpMetaMem,3.2.3,MacIntel,60
,,,,,,,,,,,,,,,,,,,,8,2.721999884,7,0.542999983,1,0,1200,1183,1,1199,emotional,47542,2019-10-21_21h40.54.579,SurveyExpMetaMem,3.2.3,MacIntel,60
,,,,,,,,,,,,,,,,,,,,6,7.339999914,5,1.375999928,1,0,1200,390,1,1199,impair,47542,2019-10-21_21h40.54.579,SurveyExpMetaMem,3.2.3,MacIntel,60
,,,,,,,,,,,,,,,,,,,,1,12.14499998,5,2.522000074,1,0,1200,847,1,1199,moon,47542,2019-10-21_21h40.54.579,SurveyExpMetaMem,3.2.3,MacIntel,60
,,,,,,,,,,,,,,,,,,,,4,3.554999828,7,2.273999929,1,0,1200,65,1,1199,restaurant,47542,2019-10-21_21h40.54.579,SurveyExpMetaMem,3.2.3,MacIntel,60
,,,,,,,,,,,,,,,,,,,,6,2.038999796,5,0.207000017,1,0,1200,599,1,1199,obstinate,47542,2019-10-21_21h40.54.579,SurveyExpMetaMem,3.2.3,MacIntel,60
,,,,,,,,,,,,,,,,,,,,7,2.171999931,6,0.276999712,1,0,1200,158,1,1199,engage,47542,2019-10-21_21h40.54.579,SurveyExpMetaMem,3.2.3,MacIntel,60
,,,,,,,,,,,,,,,,,,,,6,3.47300005,5,0.190000057,1,0,1200,83,1,1199,appreciative,47542,2019-10-21_21h40.54.579,SurveyExpMetaMem,3.2.3,MacIntel,60
,,,,,,,,,,,,,,,,,,,,8,2.245999813,7,0.572999716,1,0,1200,127,1,1199,glamorous,47542,2019-10-21_21h40.54.579,SurveyExpMetaMem,3.2.3,MacIntel,60
,,,,,,,,,,,,,,,,,,,,4,3.171000004,1,0.726999998,1,0,1200,968,1,1199,insult,47542,2019-10-21_21h40.54.579,SurveyExpMetaMem,3.2.3,MacIntel,60
,,,,,,,,,,,,,,,,,,,,7,2.720999956,6,0.273000002,1,0,1200,784,1,1199,logical,47542,2019-10-21_21h40.54.579,SurveyExpMetaMem,3.2.3,MacIntel,60
,,,,,,,,,,,,,,,,,,,,8,2.672999859,7,0.213000059,1,0,1200,1090,1,1199,destruction,47542,2019-10-21_21h40.54.579,SurveyExpMetaMem,3.2.3,MacIntel,60
,,,,,,,,,,,,,,,,,,,,6,1.823999882,5,0.289999962,1,0,1200,961,1,1199,crucify,47542,2019-10-21_21h40.54.579,SurveyExpMetaMem,3.2.3,MacIntel,60
,,,,,,,,,,,,,,,,,,,,4,0.763000011,3,0.322999716,1,0,1200,569,1,1199,onion,47542,2019-10-21_21h40.54.579,SurveyExpMetaMem,3.2.3,MacIntel,60
,,,,,,,,,,,,,,,,,,,,8,2.404999971,7,3.489999771,1,0,1200,731,1,1199,decency,47542,2019-10-21_21h40.54.579,SurveyExpMetaMem,3.2.3,MacIntel,60
,,,,,,,,,,,,,,,,,,,,2,4.154999971,1,0.623999834,1,0,1200,378,1,1199,dislike,47542,2019-10-21_21h40.54.579,SurveyExpMetaMem,3.2.3,MacIntel,60
,,,,,,,,,,,,,,,,,,,,1,2.906000137,7,1.463999748,1,0,1200,805,1,1199,autumn,47542,2019-10-21_21h40.54.579,SurveyExpMetaMem,3.2.3,MacIntel,60
,,,,,,,,,,,,,,,,,,,,7,2.010999918,8,5.471999884,1,0,1200,284,1,1199,delight,47542,2019-10-21_21h40.54.579,SurveyExpMetaMem,3.2.3,MacIntel,60
,,,,,,,,,,,,,,,,,,,,2,3.037999868,1,1.174000025,1,0,1200,327,1,1199,misfortune,47542,2019-10-21_21h40.54.579,SurveyExpMetaMem,3.2.3,MacIntel,60
,,,,,,,,,,,,,,,,,,,,2,1.805999756,1,0.31099987,1,0,1200,998,1,1199,virus,47542,2019-10-21_21h40.54.579,SurveyExpMetaMem,3.2.3,MacIntel,60
,,,,,,,,,,,,,,,,,,,,2,0.971999884,1,0.262999773,1,0,1200,343,1,1199,fever,47542,2019-10-21_21h40.54.579,SurveyExpMetaMem,3.2.3,MacIntel,60
,,,,,,,,,,,,,,,,,,,,2,0.891000032,1,0.23300004,1,0,1200,546,1,1199,solemn,47542,2019-10-21_21h40.54.579,SurveyExpMetaMem,3.2.3,MacIntel,60
,,,,,,,,,,,,,,,,,,,,2,0.921000004,1,0.273000002,1,0,1200,1043,1,1199,scold,47542,2019-10-21_21h40.54.579,SurveyExpMetaMem,3.2.3,MacIntel,60
,,,,,,,,,,,,,,,,,,,,7,2.079999924,6,0.206999779,1,0,1200,94,1,1199,engaged,47542,2019-10-21_21h40.54.579,SurveyExpMetaMem,3.2.3,MacIntel,60
,,,,,,,,,,,,,,,,,,,,5,2.738999844,6,0.226000071,1,0,1200,587,1,1199,dissolve,47542,2019-10-21_21h40.54.579,SurveyExpMetaMem,3.2.3,MacIntel,60
,,,,,,,,,,,,,,,,,,,,8,2.238999844,5,1.294999838,1,0,1200,764,1,1199,coin,47542,2019-10-21_21h40.54.579,SurveyExpMetaMem,3.2.3,MacIntel,60
,,,,,,,,,,,,,,,,,,,,7,2.31099987,6,0.296999931,1,0,1200,911,1,1199,rejection,47542,2019-10-21_21h40.54.579,SurveyExpMetaMem,3.2.3,MacIntel,60
,,,,,,,,,,,,,,,,,,,,8,5.838999987,8,1.438999891,1,0,1200,840,1,1199,cuisine,47542,2019-10-21_21h40.54.579,SurveyExpMetaMem,3.2.3,MacIntel,60
,,,,,,,,,,,,,,,,,,,,8,3.106999874,8,1.741999865,1,0,1200,82,1,1199,stunning,47542,2019-10-21_21h40.54.579,SurveyExpMetaMem,3.2.3,MacIntel,60
,,,,,,,,,,,,,,,,,,,,7,1.558999777,6,0.221999884,1,0,1200,563,1,1199,stupor,47542,2019-10-21_21h40.54.579,SurveyExpMetaMem,3.2.3,MacIntel,60
,,,,,,,,,,,,,,,,,,,,4,1.361000061,3,0.324999809,1,0,1200,454,1,1199,damp,47542,2019-10-21_21h40.54.579,SurveyExpMetaMem,3.2.3,MacIntel,60
,,,,,,,,,,,,,,,,,,,,6,1.955999851,5,0.238999844,1,0,1200,262,1,1199,athletics,47542,2019-10-21_21h40.54.579,SurveyExpMetaMem,3.2.3,MacIntel,60
,,,,,,,,,,,,,,,,,,,,1,22.40499997,6,1.339999914,1,0,1200,643,1,1199,library,47542,2019-10-21_21h40.54.579,SurveyExpMetaMem,3.2.3,MacIntel,60
,,,,,,,,,,,,,,,,,,,,7,1.154999971,6,0.223999977,1,0,1200,668,1,1199,unit,47542,2019-10-21_21h40.54.579,SurveyExpMetaMem,3.2.3,MacIntel,60
,,,,,,,,,,,,,,,,,,,,7,1.438999891,3,0.694000006,1,0,1200,969,1,1199,whore,47542,2019-10-21_21h40.54.579,SurveyExpMetaMem,3.2.3,MacIntel,60
,,,,,,,,,,,,,,,,,,,,5,2.905999899,2,0.322999716,1,0,1200,972,1,1199,homicide,47542,2019-10-21_21h40.54.579,SurveyExpMetaMem,3.2.3,MacIntel,60
,,,,,,,,,,,,,,,,,,,,5,2.023000002,4,0.307999849,1,0,1200,814,1,1199,dress,47542,2019-10-21_21h40.54.579,SurveyExpMetaMem,3.2.3,MacIntel,60
,,,,,,,,,,,,,,,,,,,,1,3.888000011,1,0.430999994,1,0,1200,421,1,1199,stale,47542,2019-10-21_21h40.54.579,SurveyExpMetaMem,3.2.3,MacIntel,60
,,,,,,,,,,,,,,,,,,,,6,1.724999905,5,0.270999908,1,0,1200,1054,1,1199,jealous,47542,2019-10-21_21h40.54.579,SurveyExpMetaMem,3.2.3,MacIntel,60
,,,,,,,,,,,,,,,,,,,,7,0.880999804,6,0.161000013,1,0,1200,684,1,1199,send,47542,2019-10-21_21h40.54.579,SurveyExpMetaMem,3.2.3,MacIntel,60
,,,,,,,,,,,,,,,,,,,,6,1.029999971,5,0.260999918,1,0,1200,788,1,1199,cook,47542,2019-10-21_21h40.54.579,SurveyExpMetaMem,3.2.3,MacIntel,60
,,,,,,,,,,,,,,,,,,,,2,2.193999767,1,1.00999999,1,0,1200,1071,1,1199,uncomfortable,47542,2019-10-21_21h40.54.579,SurveyExpMetaMem,3.2.3,MacIntel,60
,,,,,,,,,,,,,,,,,,,,1,3.277999878,1,0.273000002,1,0,1200,341,1,1199,stinky,47542,2019-10-21_21h40.54.579,SurveyExpMetaMem,3.2.3,MacIntel,60
,,,,,,,,,,,,,,,,,,,,6,3.821999788,1,0.224999905,1,0,1200,1193,1,1199,damn,47542,2019-10-21_21h40.54.579,SurveyExpMetaMem,3.2.3,MacIntel,60
,,,,,,,,,,,,,,,,,,,,7,1.605999947,8,2.288000107,1,0,1200,852,1,1199,caring,47542,2019-10-21_21h40.54.579,SurveyExpMetaMem,3.2.3,MacIntel,60
,,,,,,,,,,,,,,,,,,,,8,1.704999924,6,1.388999939,1,0,1200,1152,1,1199,scream,47542,2019-10-21_21h40.54.579,SurveyExpMetaMem,3.2.3,MacIntel,60
,,,,,,,,,,,,,,,,,,,,5,2.258999825,3,1.707000017,1,0,1200,1105,1,1199,flee,47542,2019-10-21_21h40.54.579,SurveyExpMetaMem,3.2.3,MacIntel,60
,,,,,,,,,,,,,,,,,,,,6,3.773000002,2,0.539999962,1,0,1200,313,1,1199,rotten,47542,2019-10-21_21h40.54.579,SurveyExpMetaMem,3.2.3,MacIntel,60
,,,,,,,,,,,,,,,,,,,,6,2.093999863,2,0.522999763,1,0,1200,682,1,1199,camel,47542,2019-10-21_21h40.54.579,SurveyExpMetaMem,3.2.3,MacIntel,60
,,,,,,,,,,,,,,,,,,,,7,1.654999971,3,0.623999834,1,0,1200,61,1,1199,zoom,47542,2019-10-21_21h40.54.579,SurveyExpMetaMem,3.2.3,MacIntel,60
,,,,,,,,,,,,,,,,,,,,8,2.99000001,7,2.805999994,1,0,1200,744,1,1199,village,47542,2019-10-21_21h40.54.579,SurveyExpMetaMem,3.2.3,MacIntel,60
,,,,,,,,,,,,,,,,,,,,8,1.355000019,7,0.213000059,1,0,1200,1160,1,1199,enlist,47542,2019-10-21_21h40.54.579,SurveyExpMetaMem,3.2.3,MacIntel,60
,,,,,,,,,,,,,,,,,,,,1,2.176999807,1,0.680999994,1,0,1200,521,1,1199,laundry,47542,2019-10-21_21h40.54.579,SurveyExpMetaMem,3.2.3,MacIntel,60
,,,,,,,,,,,,,,,,,,,,1,1.106999874,1,0.240999937,1,0,1200,527,1,1199,passive,47542,2019-10-21_21h40.54.579,SurveyExpMetaMem,3.2.3,MacIntel,60
,,,,,,,,,,,,,,,,,,,,7,1.872999907,3,0.290999889,1,0,1200,866,1,1199,haven,47542,2019-10-21_21h40.54.579,SurveyExpMetaMem,3.2.3,MacIntel,60
,,,,,,,,,,,,,,,,,,,,8,2.305000067,6,1.143000126,1,0,1200,778,1,1199,adorn,47542,2019-10-21_21h40.54.579,SurveyExpMetaMem,3.2.3,MacIntel,60
,,,,,,,,,,,,,,,,,,,,8,3.023999929,7,0.308999777,1,0,1200,269,1,1199,extravagant,47542,2019-10-21_21h40.54.579,SurveyExpMetaMem,3.2.3,MacIntel,60
,,,,,,,,,,,,,,,,,,,,8,1.004999876,7,0.19299984,1,0,1200,42,1,1199,accomplish,47542,2019-10-21_21h40.54.579,SurveyExpMetaMem,3.2.3,MacIntel,60
,,,,,,,,,,,,,,,,,,,,3,1.421999931,2,0.254999876,1,0,1200,329,1,1199,worse,47542,2019-10-21_21h40.54.579,SurveyExpMetaMem,3.2.3,MacIntel,60
,,,,,,,,,,,,,,,,,,,,7,2.961999893,8,1.128999949,1,0,1200,245,1,1199,beach,47542,2019-10-21_21h40.54.579,SurveyExpMetaMem,3.2.3,MacIntel,60
,,,,,,,,,,,,,,,,,,,,1,2.676999807,1,0.490999937,1,0,1200,904,1,1199,murderer,47542,2019-10-21_21h40.54.579,SurveyExpMetaMem,3.2.3,MacIntel,60
,,,,,,,,,,,,,,,,,,,,5,3.190999746,5,2.131000042,1,0,1200,59,1,1199,sports,47542,2019-10-21_21h40.54.579,SurveyExpMetaMem,3.2.3,MacIntel,60
,,,,,,,,,,,,,,,,,,,,5,3.170999765,4,0.45600009,1,0,1200,982,1,1199,robbery,47542,2019-10-21_21h40.54.579,SurveyExpMetaMem,3.2.3,MacIntel,60
,,,,,,,,,,,,,,,,,,,,5,1.909999847,4,0.240999937,1,0,1200,417,1,1199,dummy,47542,2019-10-21_21h40.54.579,SurveyExpMetaMem,3.2.3,MacIntel,60
,,,,,,,,,,,,,,,,,,,,5,1.426000118,4,0.228999853,1,0,1200,159,1,1199,teenager,47542,2019-10-21_21h40.54.579,SurveyExpMetaMem,3.2.3,MacIntel,60
,,,,,,,,,,,,,,,,,,,,7,1.859999895,6,0.508999825,1,0,1200,570,1,1199,muddy,47542,2019-10-21_21h40.54.579,SurveyExpMetaMem,3.2.3,MacIntel,60
,,,,,,,,,,,,,,,,,,,,8,3.687999964,7,0.290999889,1,0,1200,985,1,1199,pollution,47542,2019-10-21_21h40.54.579,SurveyExpMetaMem,3.2.3,MacIntel,60
,,,,,,,,,,,,,,,,,,,,7,0.49000001,6,0.214999914,1,0,1200,363,1,1199,dumb,47542,2019-10-21_21h40.54.579,SurveyExpMetaMem,3.2.3,MacIntel,60
,,,,,,,,,,,,,,,,,,,,3,0.678999901,6,0.305999756,1,0,1200,1118,1,1199,frantic,47542,2019-10-21_21h40.54.579,SurveyExpMetaMem,3.2.3,MacIntel,60
,,,,,,,,,,,,,,,,,,,,8,0.809999943,9,0.364000082,1,0,1200,86,1,1199,talent,47542,2019-10-21_21h40.54.579,SurveyExpMetaMem,3.2.3,MacIntel,60
,,,,,,,,,,,,,,,,,,,,6,1.047999859,5,0.505999804,1,0,1200,1173,1,1199,lurk,47542,2019-10-21_21h40.54.579,SurveyExpMetaMem,3.2.3,MacIntel,60
,,,,,,,,,,,,,,,,,,,,4,1.263999939,3,0.254999876,1,0,1200,201,1,1199,gorilla,47542,2019-10-21_21h40.54.579,SurveyExpMetaMem,3.2.3,MacIntel,60
,,,,,,,,,,,,,,,,,,,,6,1.305999994,5,0.230000019,1,0,1200,286,1,1199,superstar,47542,2019-10-21_21h40.54.579,SurveyExpMetaMem,3.2.3,MacIntel,60
,,,,,,,,,,,,,,,,,,,,7,0.554999828,6,0.25999999,1,0,1200,350,1,1199,inadequate,47542,2019-10-21_21h40.54.579,SurveyExpMetaMem,3.2.3,MacIntel,60
,,,,,,,,,,,,,,,,,,,,5,0.538999796,4,0.258999825,1,0,1200,729,1,1199,velvet,47542,2019-10-21_21h40.54.579,SurveyExpMetaMem,3.2.3,MacIntel,60
,,,,,,,,,,,,,,,,,,,,3,0.575000048,2,0.231999874,1,0,1200,81,1,1199,best,47542,2019-10-21_21h40.54.579,SurveyExpMetaMem,3.2.3,MacIntel,60
,,,,,,,,,,,,,,,,,,,,7,0.691999912,6,0.289000034,1,0,1200,877,1,1199,bless,47542,2019-10-21_21h40.54.579,SurveyExpMetaMem,3.2.3,MacIntel,60
,,,,,,,,,,,,,,,,,,,,8,0.805999994,7,0.273000002,1,0,1200,537,1,1199,absurd,47542,2019-10-21_21h40.54.579,SurveyExpMetaMem,3.2.3,MacIntel,60
,,,,,,,,,,,,,,,,,,,,8,0.721999884,7,0.263999939,1,0,1200,383,1,1199,messy,47542,2019-10-21_21h40.54.579,SurveyExpMetaMem,3.2.3,MacIntel,60
,,,,,,,,,,,,,,,,,,,,9,1.838999987,8,0.461999893,1,0,1200,589,1,1199,coarse,47542,2019-10-21_21h40.54.579,SurveyExpMetaMem,3.2.3,MacIntel,60
,,,,,,,,,,,,,,,,,,,,5,1.196000099,4,0.304999828,1,0,1200,783,1,1199,sprinkle,47542,2019-10-21_21h40.54.579,SurveyExpMetaMem,3.2.3,MacIntel,60
,,,,,,,,,,,,,,,,,,,,6,1.789999962,5,0.315999985,1,0,1200,204,1,1199,crazy,47542,2019-10-21_21h40.54.579,SurveyExpMetaMem,3.2.3,MacIntel,60
,,,,,,,,,,,,,,,,,,,,6,1.470999956,5,0.177999973,1,0,1200,688,1,1199,jelly,47542,2019-10-21_21h40.54.579,SurveyExpMetaMem,3.2.3,MacIntel,60
,,,,,,,,,,,,,,,,,,,,4,1.438999891,3,0.210000038,1,0,1200,413,1,1199,deficient,47542,2019-10-21_21h40.54.579,SurveyExpMetaMem,3.2.3,MacIntel,60
,,,,,,,,,,,,,,,,,,,,1,1.243000031,1,0.189999819,1,0,1200,1046,1,1199,unsafe,47542,2019-10-21_21h40.54.579,SurveyExpMetaMem,3.2.3,MacIntel,60
,,,,,,,,,,,,,,,,,,,,7,1.155999899,2,1.872999907,1,0,1200,608,1,1199,carrot,47542,2019-10-21_21h40.54.579,SurveyExpMetaMem,3.2.3,MacIntel,60
,,,,,,,,,,,,,,,,,,,,7,0.971999884,6,0.320999861,1,0,1200,1174,1,1199,beast,47542,2019-10-21_21h40.54.579,SurveyExpMetaMem,3.2.3,MacIntel,60
,,,,,,,,,,,,,,,,,,,,1,1.221999884,1,0.156999826,1,0,1200,939,1,1199,vomit,47542,2019-10-21_21h40.54.579,SurveyExpMetaMem,3.2.3,MacIntel,60
,,,,,,,,,,,,,,,,,,,,8,1.626999855,7,0.210999966,1,0,1200,90,1,1199,satisfaction,47542,2019-10-21_21h40.54.579,SurveyExpMetaMem,3.2.3,MacIntel,60
,,,,,,,,,,,,,,,,,,,,6,2.687999964,7,0.255999804,1,0,1200,483,1,1199,condescension,47542,2019-10-21_21h40.54.579,SurveyExpMetaMem,3.2.3,MacIntel,60
,,,,,,,,,,,,,,,,,,,,2,1.605999947,2,0.180000067,1,0,1200,1042,1,1199,brutal,47542,2019-10-21_21h40.54.579,SurveyExpMetaMem,3.2.3,MacIntel,60
,,,,,,,,,,,,,,,,,,,,3,2.120999813,2,0.258999825,1,0,1200,439,1,1199,spit,47542,2019-10-21_21h40.54.579,SurveyExpMetaMem,3.2.3,MacIntel,60
,,,,,,,,,,,,,,,,,,,,9,3.753999949,6,0.528999805,1,0,1200,1132,1,1199,anarchy,47542,2019-10-21_21h40.54.579,SurveyExpMetaMem,3.2.3,MacIntel,60
,,,,,,,,,,,,,,,,,,,,9,1.529000044,9,0.492000103,1,0,1200,295,1,1199,passion,47542,2019-10-21_21h40.54.579,SurveyExpMetaMem,3.2.3,MacIntel,60
,,,,,,,,,,,,,,,,,,,,9,1.241999865,9,0.407999992,1,0,1200,219,1,1199,know,47542,2019-10-21_21h40.54.579,SurveyExpMetaMem,3.2.3,MacIntel,60
,,,,,,,,,,,,,,,,,,,,7,1.555000067,8,1.14199996,1,0,1200,190,1,1199,rescue,47542,2019-10-21_21h40.54.579,SurveyExpMetaMem,3.2.3,MacIntel,60
,,,,,,,,,,,,,,,,,,,,6,2.037999868,3,1.138999939,1,0,1200,1036,1,1199,anxiety,47542,2019-10-21_21h40.54.579,SurveyExpMetaMem,3.2.3,MacIntel,60
,,,,,,,,,,,,,,,,,,,,9,1.84499979,8,0.740999937,1,0,1200,142,1,1199,christmas,47542,2019-10-21_21h40.54.579,SurveyExpMetaMem,3.2.3,MacIntel,60
,,,,,,,,,,,,,,,,,,,,8,1.671999931,7,0.375999928,1,0,1200,475,1,1199,nameless,47542,2019-10-21_21h40.54.579,SurveyExpMetaMem,3.2.3,MacIntel,60
,,,,,,,,,,,,,,,,,,,,6,2.138999939,5,0.208999872,1,0,1200,629,1,1199,barn,47542,2019-10-21_21h40.54.579,SurveyExpMetaMem,3.2.3,MacIntel,60
,,,,,,,,,,,,,,,,,,,,1,2.704999924,3,2.072999954,1,0,1200,386,1,1199,pale,47542,2019-10-21_21h40.54.579,SurveyExpMetaMem,3.2.3,MacIntel,60
,,,,,,,,,,,,,,,,,,,,3,2.193999767,7,1.773999929,1,0,1200,898,1,1199,kindness,47542,2019-10-21_21h40.54.579,SurveyExpMetaMem,3.2.3,MacIntel,60
,,,,,,,,,,,,,,,,,,,,8,4.295999765,7,1.480999947,1,0,1200,721,1,1199,contemporary,47542,2019-10-21_21h40.54.579,SurveyExpMetaMem,3.2.3,MacIntel,60
,,,,,,,,,,,,,,,,,,,,7,1.488999844,6,0.178999901,1,0,1200,951,1,1199,castrate,47542,2019-10-21_21h40.54.579,SurveyExpMetaMem,3.2.3,MacIntel,60
,,,,,,,,,,,,,,,,,,,,2,4.359999895,3,0.67599988,1,0,1200,443,1,1199,incorrect,47542,2019-10-21_21h40.54.579,SurveyExpMetaMem,3.2.3,MacIntel,60
,,,,,,,,,,,,,,,,,,,,9,2.538000107,8,0.287999868,1,0,1200,918,1,1199,gunpoint,47542,2019-10-21_21h40.54.579,SurveyExpMetaMem,3.2.3,MacIntel,60
,,,,,,,,,,,,,,,,,,,,5,11.42400002,4,0.223999739,1,0,1200,336,1,1199,wasteful,47542,2019-10-21_21h40.54.579,SurveyExpMetaMem,3.2.3,MacIntel,60
,,,,,,,,,,,,,,,,,,,,5,1.305999994,4,0.177999973,1,0,1200,203,1,1199,seal,47542,2019-10-21_21h40.54.579,SurveyExpMetaMem,3.2.3,MacIntel,60
,,,,,,,,,,,,,,,,,,,,6,0.894999981,5,0.272999763,1,0,1200,885,1,1199,cozy,47542,2019-10-21_21h40.54.579,SurveyExpMetaMem,3.2.3,MacIntel,60
,,,,,,,,,,,,,,,,,,,,7,0.74000001,8,1.059999943,1,0,1200,38,1,1199,cheeseburger,47542,2019-10-21_21h40.54.579,SurveyExpMetaMem,3.2.3,MacIntel,60
,,,,,,,,,,,,,,,,,,,,8,1.178999901,7,0.225999832,1,0,1200,645,1,1199,telescope,47542,2019-10-21_21h40.54.579,SurveyExpMetaMem,3.2.3,MacIntel,60
,,,,,,,,,,,,,,,,,,,,4,1.656999826,3,0.190999985,1,0,1200,332,1,1199,sewage,47542,2019-10-21_21h40.54.579,SurveyExpMetaMem,3.2.3,MacIntel,60
,,,,,,,,,,,,,,,,,,,,8,1.174000025,7,0.256999731,1,0,1200,912,1,1199,rabies,47542,2019-10-21_21h40.54.579,SurveyExpMetaMem,3.2.3,MacIntel,60
,,,,,,,,,,,,,,,,,,,,8,0.687999964,7,0.229999781,1,0,1200,963,1,1199,dreadful,47542,2019-10-21_21h40.54.579,SurveyExpMetaMem,3.2.3,MacIntel,60
,,,,,,,,,,,,,,,,,,,,6,0.554999828,5,0.262999773,1,0,1200,1146,1,1199,bug,47542,2019-10-21_21h40.54.579,SurveyExpMetaMem,3.2.3,MacIntel,60
,,,,,,,,,,,,,,,,,,,,8,0.711999893,7,0.288999796,1,0,1200,561,1,1199,plain,47542,2019-10-21_21h40.54.579,SurveyExpMetaMem,3.2.3,MacIntel,60
,,,,,,,,,,,,,,,,,,,,7,3.738999844,6,0.246999979,1,0,1200,239,1,1199,compassionate,47542,2019-10-21_21h40.54.579,SurveyExpMetaMem,3.2.3,MacIntel,60
,,,,,,,,,,,,,,,,,,,,5,1.471999884,7,2.046999931,1,0,1200,728,1,1199,patio,47542,2019-10-21_21h40.54.579,SurveyExpMetaMem,3.2.3,MacIntel,60
,,,,,,,,,,,,,,,,,,,,6,1.858999968,5,0.588999987,1,0,1200,480,1,1199,hinder,47542,2019-10-21_21h40.54.579,SurveyExpMetaMem,3.2.3,MacIntel,60
,,,,,,,,,,,,,,,,,,,,8,1.871999979,7,0.2099998,1,0,1200,831,1,1199,sofa,47542,2019-10-21_21h40.54.579,SurveyExpMetaMem,3.2.3,MacIntel,60
,,,,,,,,,,,,,,,,,,,,1,3.422999859,1,1.121999979,1,0,1200,438,1,1199,dull,47542,2019-10-21_21h40.54.579,SurveyExpMetaMem,3.2.3,MacIntel,60
,,,,,,,,,,,,,,,,,,,,4,1.955999851,3,0.256000042,1,0,1200,66,1,1199,zest,47542,2019-10-21_21h40.54.579,SurveyExpMetaMem,3.2.3,MacIntel,60
,,,,,,,,,,,,,,,,,,,,8,1.404999971,7,0.207000017,1,0,1200,236,1,1199,amaze,47542,2019-10-21_21h40.54.579,SurveyExpMetaMem,3.2.3,MacIntel,60
,,,,,,,,,,,,,,,,,,,,5,1.655999899,2,0.289999723,1,0,1200,947,1,1199,shame,47542,2019-10-21_21h40.54.579,SurveyExpMetaMem,3.2.3,MacIntel,60
,,,,,,,,,,,,,,,,,,,,6,2.15899992,2,0.455999851,1,0,1200,945,1,1199,demon,47542,2019-10-21_21h40.54.579,SurveyExpMetaMem,3.2.3,MacIntel,60
,,,,,,,,,,,,,,,,,,,,7,1.294999838,2,0.81099987,1,0,1200,24,1,1199,model,47542,2019-10-21_21h40.54.579,SurveyExpMetaMem,3.2.3,MacIntel,60
,,,,,,,,,,,,,,,,,,,,7,4.023000002,6,1.111000061,1,0,1200,420,1,1199,smoke,47542,2019-10-21_21h40.54.579,SurveyExpMetaMem,3.2.3,MacIntel,60
,,,,,,,,,,,,,,,,,,,,6,1.008999825,7,0.325999737,1,0,1200,868,1,1199,grace,47542,2019-10-21_21h40.54.579,SurveyExpMetaMem,3.2.3,MacIntel,60
,,,,,,,,,,,,,,,,,,,,8,2.392999887,8,0.292000055,1,0,1200,197,1,1199,happy,47542,2019-10-21_21h40.54.579,SurveyExpMetaMem,3.2.3,MacIntel,60
,,,,,,,,,,,,,,,,,,,,8,1.871999979,8,0.829999924,1,0,1200,654,1,1199,brief,47542,2019-10-21_21h40.54.579,SurveyExpMetaMem,3.2.3,MacIntel,60
,,,,,,,,,,,,,,,,,,,,2,3.388000011,7,1.244999886,1,0,1200,661,1,1199,cow,47542,2019-10-21_21h40.54.579,SurveyExpMetaMem,3.2.3,MacIntel,60
,,,,,,,,,,,,,,,,,,,,8,2.104999781,4,1.328999996,1,0,1200,7,1,1199,duet,47542,2019-10-21_21h40.54.579,SurveyExpMetaMem,3.2.3,MacIntel,60
,,,,,,,,,,,,,,,,,,,,7,1.822999954,6,1.092999935,1,0,1200,93,1,1199,smiling,47542,2019-10-21_21h40.54.579,SurveyExpMetaMem,3.2.3,MacIntel,60
,,,,,,,,,,,,,,,,,,,,8,2.073999882,7,0.290999889,1,0,1200,1095,1,1199,fright,47542,2019-10-21_21h40.54.579,SurveyExpMetaMem,3.2.3,MacIntel,60
,,,,,,,,,,,,,,,,,,,,9,1.072999954,8,0.321999788,1,0,1200,319,1,1199,malaria,47542,2019-10-21_21h40.54.579,SurveyExpMetaMem,3.2.3,MacIntel,60
,,,,,,,,,,,,,,,,,,,,8,4.004999876,9,0.256999969,1,0,1200,887,1,1199,elegant,47542,2019-10-21_21h40.54.579,SurveyExpMetaMem,3.2.3,MacIntel,60
,,,,,,,,,,,,,,,,,,,,2,2.779999971,8,0.928999901,1,0,1200,747,1,1199,furniture,47542,2019-10-21_21h40.54.579,SurveyExpMetaMem,3.2.3,MacIntel,60
,,,,,,,,,,,,,,,,,,,,6,2.272000074,2,0.589999914,1,0,1200,326,1,1199,scam,47542,2019-10-21_21h40.54.579,SurveyExpMetaMem,3.2.3,MacIntel,60
,,,,,,,,,,,,,,,,,,,,5,3.021999836,2,1.070999861,1,0,1200,351,1,1199,germs,47542,2019-10-21_21h40.54.579,SurveyExpMetaMem,3.2.3,MacIntel,60
,,,,,,,,,,,,,,,,,,,,7,1.078000069,2,0.339999914,1,0,1200,268,1,1199,tickle,47542,2019-10-21_21h40.54.579,SurveyExpMetaMem,3.2.3,MacIntel,60
,,,,,,,,,,,,,,,,,,,,6,1.104999781,5,0.622999907,1,0,1200,1178,1,1199,weight,47542,2019-10-21_21h40.54.579,SurveyExpMetaMem,3.2.3,MacIntel,60
,,,,,,,,,,,,,,,,,,,,7,3.388999939,2,0.506000042,1,0,1200,1096,1,1199,flood,47542,2019-10-21_21h40.54.579,SurveyExpMetaMem,3.2.3,MacIntel,60
,,,,,,,,,,,,,,,,,,,,7,2.028999805,2,0.213999987,1,0,1200,476,1,1199,warden,47542,2019-10-21_21h40.54.579,SurveyExpMetaMem,3.2.3,MacIntel,60
,,,,,,,,,,,,,,,,,,,,2,3.189999819,2,0.24000001,1,0,1200,366,1,1199,fatigue,47542,2019-10-21_21h40.54.579,SurveyExpMetaMem,3.2.3,MacIntel,60
,,,,,,,,,,,,,,,,,,,,9,2.029999971,7,1.111999989,1,0,1200,1165,1,1199,revolt,47542,2019-10-21_21h40.54.579,SurveyExpMetaMem,3.2.3,MacIntel,60
,,,,,,,,,,,,,,,,,,,,1,4.138999939,1,0.524999857,1,0,1200,301,1,1199,sad,47542,2019-10-21_21h40.54.579,SurveyExpMetaMem,3.2.3,MacIntel,60
,,,,,,,,,,,,,,,,,,,,1,5.226999998,1,0.424000025,1,0,1200,541,1,1199,apathy,47542,2019-10-21_21h40.54.579,SurveyExpMetaMem,3.2.3,MacIntel,60
,,,,,,,,,,,,,,,,,,,,1,1.422999859,1,0.247999907,1,0,1200,89,1,1199,cruiseship,47542,2019-10-21_21h40.54.579,SurveyExpMetaMem,3.2.3,MacIntel,60
,,,,,,,,,,,,,,,,,,,,5,2.10800004,2,0.655999899,1,0,1200,1058,1,1199,bloody,47542,2019-10-21_21h40.54.579,SurveyExpMetaMem,3.2.3,MacIntel,60
,,,,,,,,,,,,,,,,,,,,1,2.092000008,1,0.207999945,1,0,1200,997,1,1199,injury,47542,2019-10-21_21h40.54.579,SurveyExpMetaMem,3.2.3,MacIntel,60
,,,,,,,,,,,,,,,,,,,,1,2.837999821,8,0.854999781,1,0,1200,644,1,1199,farm,47542,2019-10-21_21h40.54.579,SurveyExpMetaMem,3.2.3,MacIntel,60
,,,,,,,,,,,,,,,,,,,,6,3.440000057,2,0.472999811,1,0,1200,260,1,1199,control,47542,2019-10-21_21h40.54.579,SurveyExpMetaMem,3.2.3,MacIntel,60
,,,,,,,,,,,,,,,,,,,,9,8.921999931,9,4.772999763,1,0,1200,35,1,1199,bright,47542,2019-10-21_21h40.54.579,SurveyExpMetaMem,3.2.3,MacIntel,60
,,,,,,,,,,,,,,,,,,,,8,0.957000017,2,4.572999954,1,0,1200,980,1,1199,liar,47542,2019-10-21_21h40.54.579,SurveyExpMetaMem,3.2.3,MacIntel,60
,,,,,,,,,,,,,,,,,,,,9,2.097000122,8,1.455999851,1,0,1200,249,1,1199,award,47542,2019-10-21_21h40.54.579,SurveyExpMetaMem,3.2.3,MacIntel,60
,,,,,,,,,,,,,,,,,,,,6,1.558999777,5,0.36500001,1,0,1200,1197,1,1199,command,47542,2019-10-21_21h40.54.579,SurveyExpMetaMem,3.2.3,MacIntel,60
,,,,,,,,,,,,,,,,,,,,7,1.444000006,6,0.179999828,1,0,1200,995,1,1199,cult,47542,2019-10-21_21h40.54.579,SurveyExpMetaMem,3.2.3,MacIntel,60
,,,,,,,,,,,,,,,,,,,,8,1.480999947,7,0.610999823,1,0,1200,21,1,1199,game,47542,2019-10-21_21h40.54.579,SurveyExpMetaMem,3.2.3,MacIntel,60
,,,,,,,,,,,,,,,,,,,,8,1.239000082,7,0.409999847,1,0,1200,60,1,1199,bikini,47542,2019-10-21_21h40.54.579,SurveyExpMetaMem,3.2.3,MacIntel,60
,,,,,,,,,,,,,,,,,,,,7,3.888999939,2,0.756999969,1,0,1200,1194,1,1199,obsession,47542,2019-10-21_21h40.54.579,SurveyExpMetaMem,3.2.3,MacIntel,60
,,,,,,,,,,,,,,,,,,,,6,1.504999876,5,0.705999851,1,0,1200,727,1,1199,author,47542,2019-10-21_21h40.54.579,SurveyExpMetaMem,3.2.3,MacIntel,60
,,,,,,,,,,,,,,,,,,,,6,1.822000027,3,0.673999786,1,0,1200,1078,1,1199,trouble,47542,2019-10-21_21h40.54.579,SurveyExpMetaMem,3.2.3,MacIntel,60
,,,,,,,,,,,,,,,,,,,,8,5.095999718,3,2.445999861,1,0,1200,875,1,1199,fluffy,47542,2019-10-21_21h40.54.579,SurveyExpMetaMem,3.2.3,MacIntel,60
,,,,,,,,,,,,,,,,,,,,7,1.39199996,6,1.072000027,1,0,1200,762,1,1199,orchestra,47542,2019-10-21_21h40.54.579,SurveyExpMetaMem,3.2.3,MacIntel,60
,,,,,,,,,,,,,,,,,,,,1,2.637999773,5,2.875,1,0,1200,509,1,1199,ash,47542,2019-10-21_21h40.54.579,SurveyExpMetaMem,3.2.3,MacIntel,60
,,,,,,,,,,,,,,,,,,,,1,4.357999802,1,0.355999947,1,0,1200,452,1,1199,scapegoat,47542,2019-10-21_21h40.54.579,SurveyExpMetaMem,3.2.3,MacIntel,60
,,,,,,,,,,,,,,,,,,,,8,2.124999762,7,1.322999954,1,0,1200,28,1,1199,energy,47542,2019-10-21_21h40.54.579,SurveyExpMetaMem,3.2.3,MacIntel,60
,,,,,,,,,,,,,,,,,,,,8,1.287999868,5,0.705999851,1,0,1200,368,1,1199,dreary,47542,2019-10-21_21h40.54.579,SurveyExpMetaMem,3.2.3,MacIntel,60
,,,,,,,,,,,,,,,,,,,,9,3.661999702,7,1.97699976,1,0,1200,11,1,1199,astonished,47542,2019-10-21_21h40.54.579,SurveyExpMetaMem,3.2.3,MacIntel,60
,,,,,,,,,,,,,,,,,,,,1,2.789000034,1,0.155999899,1,0,1200,2,1,1199,zealous,47542,2019-10-21_21h40.54.579,SurveyExpMetaMem,3.2.3,MacIntel,60
,,,,,,,,,,,,,,,,,,,,6,2.656000137,2,0.680000067,1,0,1200,1137,1,1199,knife,47542,2019-10-21_21h40.54.579,SurveyExpMetaMem,3.2.3,MacIntel,60
,,,,,,,,,,,,,,,,,,,,2,2.487999916,2,0.20600009,1,0,1200,1053,1,1199,surgery,47542,2019-10-21_21h40.54.579,SurveyExpMetaMem,3.2.3,MacIntel,60
,,,,,,,,,,,,,,,,,,,,1,4.20600009,2,17.98899984,1,0,1200,705,1,1199,tolerant,47542,2019-10-21_21h40.54.579,SurveyExpMetaMem,3.2.3,MacIntel,60
,,,,,,,,,,,,,,,,,,,,1,6.575000048,6,0.894999981,1,0,1200,813,1,1199,walking,47542,2019-10-21_21h40.54.579,SurveyExpMetaMem,3.2.3,MacIntel,60
,,,,,,,,,,,,,,,,,,,,1,3.256000042,1,0.157999992,1,0,1200,1109,1,1199,germ,47542,2019-10-21_21h40.54.579,SurveyExpMetaMem,3.2.3,MacIntel,60
,,,,,,,,,,,,,,,,,,,,7,1.513000011,3,0.791999817,1,0,1200,828,1,1199,cooperative,47542,2019-10-21_21h40.54.579,SurveyExpMetaMem,3.2.3,MacIntel,60
,,,,,,,,,,,,,,,,,,,,1,2.160000086,1,0.172999859,1,0,1200,914,1,1199,fail,47542,2019-10-21_21h40.54.579,SurveyExpMetaMem,3.2.3,MacIntel,60
,,,,,,,,,,,,,,,,,,,,6,2.388000011,1,0.441999912,1,0,1200,959,1,1199,divorce,47542,2019-10-21_21h40.54.579,SurveyExpMetaMem,3.2.3,MacIntel,60
,,,,,,,,,,,,,,,,,,,,1,3.955999851,1,0.141000032,1,0,1200,837,1,1199,responsible,47542,2019-10-21_21h40.54.579,SurveyExpMetaMem,3.2.3,MacIntel,60
,,,,,,,,,,,,,,,,,,,,6,1.229999781,5,0.227999926,1,0,1200,590,1,1199,stool,47542,2019-10-21_21h40.54.579,SurveyExpMetaMem,3.2.3,MacIntel,60
,,,,,,,,,,,,,,,,,,,,7,1.50999999,4,3.056999922,1,0,1200,825,1,1199,swan,47542,2019-10-21_21h40.54.579,SurveyExpMetaMem,3.2.3,MacIntel,60
,,,,,,,,,,,,,,,,,,,,1,2.171999931,1,0.148999929,1,0,1200,679,1,1199,yellow,47542,2019-10-21_21h40.54.579,SurveyExpMetaMem,3.2.3,MacIntel,60
,,,,,,,,,,,,,,,,,,,,1,1.404999971,1,0.160999775,1,0,1200,302,1,1199,loneliness,47542,2019-10-21_21h40.54.579,SurveyExpMetaMem,3.2.3,MacIntel,60
,,,,,,,,,,,,,,,,,,,,1,1.155999899,1,0.171999931,1,0,1200,473,1,1199,senseless,47542,2019-10-21_21h40.54.579,SurveyExpMetaMem,3.2.3,MacIntel,60
,,,,,,,,,,,,,,,,,,,,4,0.971999884,3,0.239999771,1,0,1200,554,1,1199,label,47542,2019-10-21_21h40.54.579,SurveyExpMetaMem,3.2.3,MacIntel,60
,,,,,,,,,,,,,,,,,,,,6,1.56099987,1,0.555999994,1,0,1200,565,1,1199,frozen,47542,2019-10-21_21h40.54.579,SurveyExpMetaMem,3.2.3,MacIntel,60
,,,,,,,,,,,,,,,,,,,,5,1.688999891,4,0.624999762,1,0,1200,681,1,1199,fig,47542,2019-10-21_21h40.54.579,SurveyExpMetaMem,3.2.3,MacIntel,60
,,,,,,,,,,,,,,,,,,,,1,2.338999987,1,0.173000097,1,0,1200,371,1,1199,weakness,47542,2019-10-21_21h40.54.579,SurveyExpMetaMem,3.2.3,MacIntel,60
,,,,,,,,,,,,,,,,,,,,1,2.65899992,5,0.723999977,1,0,1200,876,1,1199,politeness,47542,2019-10-21_21h40.54.579,SurveyExpMetaMem,3.2.3,MacIntel,60
,,,,,,,,,,,,,,,,,,,,1,1.68900013,1,0.378999949,1,0,1200,536,1,1199,vacant,47542,2019-10-21_21h40.54.579,SurveyExpMetaMem,3.2.3,MacIntel,60
,,,,,,,,,,,,,,,,,,,,7,2.022999763,6,0.188999891,1,0,1200,1015,1,1199,frighten,47542,2019-10-21_21h40.54.579,SurveyExpMetaMem,3.2.3,MacIntel,60
,,,,,,,,,,,,,,,,,,,,7,19.3809998,1,0.871999979,1,0,1200,316,1,1199,sorrow,47542,2019-10-21_21h40.54.579,SurveyExpMetaMem,3.2.3,MacIntel,60
,,,,,,,,,,,,,,,,,,,,6,2.138999939,1,0.390000105,1,0,1200,488,1,1199,rusty,47542,2019-10-21_21h40.54.579,SurveyExpMetaMem,3.2.3,MacIntel,60
,,,,,,,,,,,,,,,,,,,,2,3.123999834,1,0.24000001,1,0,1200,1004,1,1199,burglar,47542,2019-10-21_21h40.54.579,SurveyExpMetaMem,3.2.3,MacIntel,60
,,,,,,,,,,,,,,,,,,,,8,2.204999924,6,1.295000076,1,0,1200,687,1,1199,skinny,47542,2019-10-21_21h40.54.579,SurveyExpMetaMem,3.2.3,MacIntel,60
,,,,,,,,,,,,,,,,,,,,2,2.354999781,1,0.889999866,1,0,1200,763,1,1199,vegetables,47542,2019-10-21_21h40.54.579,SurveyExpMetaMem,3.2.3,MacIntel,60
,,,,,,,,,,,,,,,,,,,,4,1.588999748,2,0.322999954,1,0,1200,605,1,1199,year,47542,2019-10-21_21h40.54.579,SurveyExpMetaMem,3.2.3,MacIntel,60
,,,,,,,,,,,,,,,,,,,,7,4.471999884,3,0.923000097,1,0,1200,708,1,1199,nursery,47542,2019-10-21_21h40.54.579,SurveyExpMetaMem,3.2.3,MacIntel,60
,,,,,,,,,,,,,,,,,,,,6,2.72300005,2,0.255999804,1,0,1200,1136,1,1199,appall,47542,2019-10-21_21h40.54.579,SurveyExpMetaMem,3.2.3,MacIntel,60
,,,,,,,,,,,,,,,,,,,,7,1.305000067,2,0.111000061,1,0,1200,594,1,1199,moss,47542,2019-10-21_21h40.54.579,SurveyExpMetaMem,3.2.3,MacIntel,60
,,,,,,,,,,,,,,,,,,,,8,0.855999947,3,0.125999928,1,0,1200,540,1,1199,derelict,47542,2019-10-21_21h40.54.579,SurveyExpMetaMem,3.2.3,MacIntel,60
,,,,,,,,,,,,,,,,,,,,7,0.720999956,4,0.174000025,1,0,1200,689,1,1199,land,47542,2019-10-21_21h40.54.579,SurveyExpMetaMem,3.2.3,MacIntel,60
,,,,,,,,,,,,,,,,,,,,9,0.524999857,9,1.572000027,1,0,1200,896,1,1199,cuddle,47542,2019-10-21_21h40.54.579,SurveyExpMetaMem,3.2.3,MacIntel,60
,,,,,,,,,,,,,,,,,,,,1,2.397000074,1,0.707999945,1,0,1200,396,1,1199,unpopular,47542,2019-10-21_21h40.54.579,SurveyExpMetaMem,3.2.3,MacIntel,60
,,,,,,,,,,,,,,,,,,,,9,1.944000006,8,0.645999908,1,0,1200,73,1,1199,rhythm,47542,2019-10-21_21h40.54.579,SurveyExpMetaMem,3.2.3,MacIntel,60
,,,,,,,,,,,,,,,,,,,,9,1.905999899,8,0.306999922,1,0,1200,1190,1,1199,clench,47542,2019-10-21_21h40.54.579,SurveyExpMetaMem,3.2.3,MacIntel,60
,,,,,,,,,,,,,,,,,,,,1,9.937999964,8,2.173000097,1,0,1200,838,1,1199,nestle,47542,2019-10-21_21h40.54.579,SurveyExpMetaMem,3.2.3,MacIntel,60
,,,,,,,,,,,,,,,,,,,,7,7.394999981,1,0.655999899,1,0,1200,928,1,1199,cruel,47542,2019-10-21_21h40.54.579,SurveyExpMetaMem,3.2.3,MacIntel,60
,,,,,,,,,,,,,,,,,,,,2,3.105999947,1,0.506999969,1,0,1200,427,1,1199,doubt,47542,2019-10-21_21h40.54.579,SurveyExpMetaMem,3.2.3,MacIntel,60
,,,,,,,,,,,,,,,,,,,,6,3.770999908,1,0.141000032,1,0,1200,1016,1,1199,awful,47542,2019-10-21_21h40.54.579,SurveyExpMetaMem,3.2.3,MacIntel,60
,,,,,,,,,,,,,,,,,,,,9,2.125,8,0.357000113,1,0,1200,148,1,1199,victory,47542,2019-10-21_21h40.54.579,SurveyExpMetaMem,3.2.3,MacIntel,60
,,,,,,,,,,,,,,,,,,,,8,4.072000027,2,1.288999796,1,0,1200,494,1,1199,butcher,47542,2019-10-21_21h40.54.579,SurveyExpMetaMem,3.2.3,MacIntel,60
,,,,,,,,,,,,,,,,,,,,6,1.809999943,5,0.232000113,1,0,1200,258,1,1199,children,47542,2019-10-21_21h40.54.579,SurveyExpMetaMem,3.2.3,MacIntel,60
,,,,,,,,,,,,,,,,,,,,4,1.945999861,3,0.227999926,1,0,1200,795,1,1199,soup,47542,2019-10-21_21h40.54.579,SurveyExpMetaMem,3.2.3,MacIntel,60
,,,,,,,,,,,,,,,,,,,,8,2.072000027,8,1.190000057,1,0,1200,134,1,1199,dollar,47542,2019-10-21_21h40.54.579,SurveyExpMetaMem,3.2.3,MacIntel,60
,,,,,,,,,,,,,,,,,,,,6,2.421999931,2,1.228999853,1,0,1200,1061,1,1199,difficult,47542,2019-10-21_21h40.54.579,SurveyExpMetaMem,3.2.3,MacIntel,60
,,,,,,,,,,,,,,,,,,,,5,1.592999935,4,0.289999962,1,0,1200,935,1,1199,despise,47542,2019-10-21_21h40.54.579,SurveyExpMetaMem,3.2.3,MacIntel,60
,,,,,,,,,,,,,,,,,,,,6,1.306999922,6,0.305999756,1,0,1200,639,1,1199,outlet,47542,2019-10-21_21h40.54.579,SurveyExpMetaMem,3.2.3,MacIntel,60
,,,,,,,,,,,,,,,,,,,,7,1.088999987,6,0.339999914,1,0,1200,511,1,1199,slouch,47542,2019-10-21_21h40.54.579,SurveyExpMetaMem,3.2.3,MacIntel,60
,,,,,,,,,,,,,,,,,,,,5,1.088999987,4,0.45600009,1,0,1200,1189,1,1199,lava,47542,2019-10-21_21h40.54.579,SurveyExpMetaMem,3.2.3,MacIntel,60
,,,,,,,,,,,,,,,,,,,,5,0.954999924,4,0.361999989,1,0,1200,119,1,1199,stereo,47542,2019-10-21_21h40.54.579,SurveyExpMetaMem,3.2.3,MacIntel,60
,,,,,,,,,,,,,,,,,,,,5,1.004999876,4,0.239999771,1,0,1200,20,1,1199,climax,47542,2019-10-21_21h40.54.579,SurveyExpMetaMem,3.2.3,MacIntel,60
,,,,,,,,,,,,,,,,,,,,7,0.555999994,6,0.27699995,1,0,1200,1063,1,1199,quarrel,47542,2019-10-21_21h40.54.579,SurveyExpMetaMem,3.2.3,MacIntel,60
,,,,,,,,,,,,,,,,,,,,7,0.571000099,6,0.374000072,1,0,1200,820,1,1199,oxygen,47542,2019-10-21_21h40.54.579,SurveyExpMetaMem,3.2.3,MacIntel,60
,,,,,,,,,,,,,,,,,,,,1,4.338999987,1,0.539000034,1,0,1200,402,1,1199,dismissive,47542,2019-10-21_21h40.54.579,SurveyExpMetaMem,3.2.3,MacIntel,60
,,,,,,,,,,,,,,,,,,,,9,2.163999796,6,2.073999882,1,0,1200,143,1,1199,weekend,47542,2019-10-21_21h40.54.579,SurveyExpMetaMem,3.2.3,MacIntel,60
,,,,,,,,,,,,,,,,,,,,8,2.054999828,7,0.371999979,1,0,1200,181,1,1199,fascinate,47542,2019-10-21_21h40.54.579,SurveyExpMetaMem,3.2.3,MacIntel,60
,,,,,,,,,,,,,,,,,,,,8,1.287999868,7,0.256999731,1,0,1200,221,1,1199,sparkle,47542,2019-10-21_21h40.54.579,SurveyExpMetaMem,3.2.3,MacIntel,60
,,,,,,,,,,,,,,,,,,,,8,0.871000051,7,0.207999945,1,0,1200,824,1,1199,favor,47542,2019-10-21_21h40.54.579,SurveyExpMetaMem,3.2.3,MacIntel,60
,,,,,,,,,,,,,,,,,,,,8,5.879999876,7,0.759999752,1,0,1200,8,1,1199,extreme,47542,2019-10-21_21h40.54.579,SurveyExpMetaMem,3.2.3,MacIntel,60
,,,,,,,,,,,,,,,,,,,,8,13.37099981,3,3.415999889,1,0,1200,149,1,1199,loved,47542,2019-10-21_21h40.54.579,SurveyExpMetaMem,3.2.3,MacIntel,60
,,,,,,,,,,,,,,,,,,,,2,1.770999908,1,0.20299983,1,0,1200,524,1,1199,sigh,47542,2019-10-21_21h40.54.579,SurveyExpMetaMem,3.2.3,MacIntel,60
,,,,,,,,,,,,,,,,,,,,8,1.345999956,7,0.458999872,1,0,1200,836,1,1199,lounge,47542,2019-10-21_21h40.54.579,SurveyExpMetaMem,3.2.3,MacIntel,60
,,,,,,,,,,,,,,,,,,,,9,1.279999971,8,0.193000078,1,0,1200,76,1,1199,midnight,47542,2019-10-21_21h40.54.579,SurveyExpMetaMem,3.2.3,MacIntel,60
,,,,,,,,,,,,,,,,,,,,7,0.770999908,6,0.220999956,1,0,1200,306,1,1199,gloom,47542,2019-10-21_21h40.54.579,SurveyExpMetaMem,3.2.3,MacIntel,60
,,,,,,,,,,,,,,,,,,,,8,0.437999964,7,0.170999765,1,0,1200,397,1,1199,complaint,47542,2019-10-21_21h40.54.579,SurveyExpMetaMem,3.2.3,MacIntel,60
,,,,,,,,,,,,,,,,,,,,2,0.176999807,3,0.362999916,1,0,1200,774,1,1199,leaves,47542,2019-10-21_21h40.54.579,SurveyExpMetaMem,3.2.3,MacIntel,60
,,,,,,,,,,,,,,,,,,,,6,0.454999924,3,0.220999956,1,0,1200,1051,1,1199,insane,47542,2019-10-21_21h40.54.579,SurveyExpMetaMem,3.2.3,MacIntel,60
,,,,,,,,,,,,,,,,,,,,8,0.147000074,2,0.42599988,1,0,1200,506,1,1199,lower,47542,2019-10-21_21h40.54.579,SurveyExpMetaMem,3.2.3,MacIntel,60
,,,,,,,,,,,,,,,,,,,,8,0.204999924,2,0.230999947,1,0,1200,699,1,1199,leg,47542,2019-10-21_21h40.54.579,SurveyExpMetaMem,3.2.3,MacIntel,60
,,,,,,,,,,,,,,,,,,,,2,0.306999922,8,0.138999939,1,0,1200,694,1,1199,pecan,47542,2019-10-21_21h40.54.579,SurveyExpMetaMem,3.2.3,MacIntel,60
,,,,,,,,,,,,,,,,,,,,2,0.196000099,7,0.187000036,1,0,1200,674,1,1199,fitting,47542,2019-10-21_21h40.54.579,SurveyExpMetaMem,3.2.3,MacIntel,60
,,,,,,,,,,,,,,,,,,,,3,0.095999956,8,0.193000078,1,0,1200,544,1,1199,snail,47542,2019-10-21_21h40.54.579,SurveyExpMetaMem,3.2.3,MacIntel,60
,,,,,,,,,,,,,,,,,,,,3,0.18599987,6,0.456999779,1,0,1200,209,1,1199,husband,47542,2019-10-21_21h40.54.579,SurveyExpMetaMem,3.2.3,MacIntel,60
,,,,,,,,,,,,,,,,,,,,9,0.338000059,2,0.204999924,1,0,1200,292,1,1199,birthday,47542,2019-10-21_21h40.54.579,SurveyExpMetaMem,3.2.3,MacIntel,60
,,,,,,,,,,,,,,,,,,,,7,0.211999893,3,0.213000059,1,0,1200,976,1,1199,tumor,47542,2019-10-21_21h40.54.579,SurveyExpMetaMem,3.2.3,MacIntel,60
,,,,,,,,,,,,,,,,,,,,6,0.18599987,8,0.880999804,1,0,1200,619,1,1199,pulpit,47542,2019-10-21_21h40.54.579,SurveyExpMetaMem,3.2.3,MacIntel,60
,,,,,,,,,,,,,,,,,,,,2,0.197999954,6,0.27699995,1,0,1200,264,1,1199,thong,47542,2019-10-21_21h40.54.579,SurveyExpMetaMem,3.2.3,MacIntel,60
,,,,,,,,,,,,,,,,,,,,3,0.207000017,8,0.229999781,1,0,1200,504,1,1199,cane,47542,2019-10-21_21h40.54.579,SurveyExpMetaMem,3.2.3,MacIntel,60
,,,,,,,,,,,,,,,,,,,,2,0.22300005,9,0.237999916,1,0,1200,984,1,1199,despairing,47542,2019-10-21_21h40.54.579,SurveyExpMetaMem,3.2.3,MacIntel,60
,,,,,,,,,,,,,,,,,,,,2,0.204999924,8,0.337999821,1,0,1200,1135,1,1199,thirsty,47542,2019-10-21_21h40.54.579,SurveyExpMetaMem,3.2.3,MacIntel,60
,,,,,,,,,,,,,,,,,,,,3,0.207999945,8,3.29399991,1,0,1200,3,1,1199,nudist,47542,2019-10-21_21h40.54.579,SurveyExpMetaMem,3.2.3,MacIntel,60
,,,,,,,,,,,,,,,,,,,,2,3.307999849,4,2.299000025,1,0,1200,799,1,1199,precise,47542,2019-10-21_21h40.54.579,SurveyExpMetaMem,3.2.3,MacIntel,60
,,,,,,,,,,,,,,,,,,,,4,2.081999779,4,0.196999788,1,0,1200,858,1,1199,donate,47542,2019-10-21_21h40.54.579,SurveyExpMetaMem,3.2.3,MacIntel,60
,,,,,,,,,,,,,,,,,,,,4,1.178999901,4,0.205999851,1,0,1200,706,1,1199,cat,47542,2019-10-21_21h40.54.579,SurveyExpMetaMem,3.2.3,MacIntel,60
,,,,,,,,,,,,,,,,,,,,5,1.628999949,5,0.188999891,1,0,1200,777,1,1199,casual,47542,2019-10-21_21h40.54.579,SurveyExpMetaMem,3.2.3,MacIntel,60
,,,,,,,,,,,,,,,,,,,,5,1.519999981,5,0.174999952,1,0,1200,34,1,1199,personality,47542,2019-10-21_21h40.54.579,SurveyExpMetaMem,3.2.3,MacIntel,60
,,,,,,,,,,,,,,,,,,,,7,1.696999788,2,0.61500001,1,0,1200,854,1,1199,river,47542,2019-10-21_21h40.54.579,SurveyExpMetaMem,3.2.3,MacIntel,60
,,,,,,,,,,,,,,,,,,,,7,3.108999968,2,0.489000082,1,0,1200,1056,1,1199,crime,47542,2019-10-21_21h40.54.579,SurveyExpMetaMem,3.2.3,MacIntel,60
,,,,,,,,,,,,,,,,,,,,7,1.555999994,2,0.630999804,1,0,1200,37,1,1199,magnificence,47542,2019-10-21_21h40.54.579,SurveyExpMetaMem,3.2.3,MacIntel,60
,,,,,,,,,,,,,,,,,,,,7,1.256000042,3,0.508999825,1,0,1200,702,1,1199,den,47542,2019-10-21_21h40.54.579,SurveyExpMetaMem,3.2.3,MacIntel,60
,,,,,,,,,,,,,,,,,,,,7,1.311999798,7,0.203999996,1,0,1200,14,1,1199,attain,47542,2019-10-21_21h40.54.579,SurveyExpMetaMem,3.2.3,MacIntel,60
,,,,,,,,,,,,,,,,,,,,8,1.323999882,8,0.226000071,1,0,1200,95,1,1199,giggle,47542,2019-10-21_21h40.54.579,SurveyExpMetaMem,3.2.3,MacIntel,60
,,,,,,,,,,,,,,,,,,,,5,6.707000017,6,1.054999828,1,0,1200,12,1,1199,mountain,47542,2019-10-21_21h40.54.579,SurveyExpMetaMem,3.2.3,MacIntel,60
,,,,,,,,,,,,,,,,,,,,7,1.924000025,6,0.194000006,1,0,1200,419,1,1199,immature,47542,2019-10-21_21h40.54.579,SurveyExpMetaMem,3.2.3,MacIntel,60
,,,,,,,,,,,,,,,,,,,,3,0.706999779,7,0.240999937,1,0,1200,996,1,1199,sting,47542,2019-10-21_21h40.54.579,SurveyExpMetaMem,3.2.3,MacIntel,60
,,,,,,,,,,,,,,,,,,,,8,0.372999907,2,0.161999941,1,0,1200,208,1,1199,wild,47542,2019-10-21_21h40.54.579,SurveyExpMetaMem,3.2.3,MacIntel,60
,,,,,,,,,,,,,,,,,,,,6,0.489000082,4,0.174999952,1,0,1200,136,1,1199,dog,47542,2019-10-21_21h40.54.579,SurveyExpMetaMem,3.2.3,MacIntel,60
,,,,,,,,,,,,,,,,,,,,8,0.172999859,2,0.157999754,1,0,1200,490,1,1199,detached,47542,2019-10-21_21h40.54.579,SurveyExpMetaMem,3.2.3,MacIntel,60
,,,,,,,,,,,,,,,,,,,,3,0.172999859,7,0.208999872,1,0,1200,283,1,1199,elated,47542,2019-10-21_21h40.54.579,SurveyExpMetaMem,3.2.3,MacIntel,60
,,,,,,,,,,,,,,,,,,,,3,0.154000044,6,0.255999804,1,0,1200,403,1,1199,wither,47542,2019-10-21_21h40.54.579,SurveyExpMetaMem,3.2.3,MacIntel,60
,,,,,,,,,,,,,,,,,,,,3,0.106999874,6,0.17599988,1,0,1200,751,1,1199,listen,47542,2019-10-21_21h40.54.579,SurveyExpMetaMem,3.2.3,MacIntel,60
,,,,,,,,,,,,,,,,,,,,4,0.147000074,8,0.208999872,1,0,1200,339,1,1199,chore,47542,2019-10-21_21h40.54.579,SurveyExpMetaMem,3.2.3,MacIntel,60
,,,,,,,,,,,,,,,,,,,,3,0.139999866,8,0.17599988,1,0,1200,17,1,1199,outgoing,47542,2019-10-21_21h40.54.579,SurveyExpMetaMem,3.2.3,MacIntel,60
,,,,,,,,,,,,,,,,,,,,4,0.156999826,6,0.169999838,1,0,1200,290,1,1199,enthusiasm,47542,2019-10-21_21h40.54.579,SurveyExpMetaMem,3.2.3,MacIntel,60
,,,,,,,,,,,,,,,,,,,,4,0.170999765,6,0.465999842,1,0,1200,635,1,1199,sensitive,47542,2019-10-21_21h40.54.579,SurveyExpMetaMem,3.2.3,MacIntel,60
,,,,,,,,,,,,,,,,,,,,3,0.312000036,7,0.342999935,1,0,1200,1097,1,1199,bees,47542,2019-10-21_21h40.54.579,SurveyExpMetaMem,3.2.3,MacIntel,60
,,,,,,,,,,,,,,,,,,,,3,0.188999891,8,0.193000078,1,0,1200,1065,1,1199,slap,47542,2019-10-21_21h40.54.579,SurveyExpMetaMem,3.2.3,MacIntel,60
,,,,,,,,,,,,,,,,,,,,3,0.143000126,7,0.211999893,1,0,1200,1122,1,1199,gossip,47542,2019-10-21_21h40.54.579,SurveyExpMetaMem,3.2.3,MacIntel,60
,,,,,,,,,,,,,,,,,,,,4,0.157999754,7,0.162999868,1,0,1200,1171,1,1199,chaos,47542,2019-10-21_21h40.54.579,SurveyExpMetaMem,3.2.3,MacIntel,60
,,,,,,,,,,,,,,,,,,,,4,0.172999859,6,0.198999882,1,0,1200,508,1,1199,haphazard,47542,2019-10-21_21h40.54.579,SurveyExpMetaMem,3.2.3,MacIntel,60
,,,,,,,,,,,,,,,,,,,,2,0.170999765,7,0.190999985,1,0,1200,428,1,1199,end,47542,2019-10-21_21h40.54.579,SurveyExpMetaMem,3.2.3,MacIntel,60
,,,,,,,,,,,,,,,,,,,,2,0.195999861,8,0.170999765,1,0,1200,414,1,1199,pity,47542,2019-10-21_21h40.54.579,SurveyExpMetaMem,3.2.3,MacIntel,60
,,,,,,,,,,,,,,,,,,,,3,0.163999796,7,0.22300005,1,0,1200,288,1,1199,tasty,47542,2019-10-21_21h40.54.579,SurveyExpMetaMem,3.2.3,MacIntel,60
,,,,,,,,,,,,,,,,,,,,4,0.14199996,6,0.274999857,1,0,1200,242,1,1199,triumph,47542,2019-10-21_21h40.54.579,SurveyExpMetaMem,3.2.3,MacIntel,60
,,,,,,,,,,,,,,,,,,,,4,0.129999876,8,0.226999998,1,0,1200,613,1,1199,cup,47542,2019-10-21_21h40.54.579,SurveyExpMetaMem,3.2.3,MacIntel,60
,,,,,,,,,,,,,,,,,,,,2,0.130000114,7,0.238999844,1,0,1200,77,1,1199,adore,47542,2019-10-21_21h40.54.579,SurveyExpMetaMem,3.2.3,MacIntel,60
,,,,,,,,,,,,,,,,,,,,3,0.146999836,3,0.559000015,1,0,1200,1170,1,1199,police,47542,2019-10-21_21h40.54.579,SurveyExpMetaMem,3.2.3,MacIntel,60
,,,,,,,,,,,,,,,,,,,,7,0.319000006,3,0.472999811,1,0,1200,966,1,1199,regretful,47542,2019-10-21_21h40.54.579,SurveyExpMetaMem,3.2.3,MacIntel,60
,,,,,,,,,,,,,,,,,,,,6,0.193000078,4,0.254999876,1,0,1200,235,1,1199,cheery,47542,2019-10-21_21h40.54.579,SurveyExpMetaMem,3.2.3,MacIntel,60
,,,,,,,,,,,,,,,,,,,,7,0.152999878,8,0.276000023,1,0,1200,886,1,1199,sunflower,47542,2019-10-21_21h40.54.579,SurveyExpMetaMem,3.2.3,MacIntel,60
,,,,,,,,,,,,,,,,,,,,2,0.525000095,8,1.450999975,1,0,1200,835,1,1199,helpful,47542,2019-10-21_21h40.54.579,SurveyExpMetaMem,3.2.3,MacIntel,60
,,,,,,,,,,,,,,,,,,,,8,1.285999775,8,0.544999838,1,0,1200,188,1,1199,profit,47542,2019-10-21_21h40.54.579,SurveyExpMetaMem,3.2.3,MacIntel,60
,,,,,,,,,,,,,,,,,,,,8,0.662999868,8,0.197999954,1,0,1200,890,1,1199,carefree,47542,2019-10-21_21h40.54.579,SurveyExpMetaMem,3.2.3,MacIntel,60
,,,,,,,,,,,,,,,,,,,,8,0.506999969,8,0.187999964,1,0,1200,765,1,1199,candid,47542,2019-10-21_21h40.54.579,SurveyExpMetaMem,3.2.3,MacIntel,60
,,,,,,,,,,,,,,,,,,,,8,0.430999994,8,0.156999826,1,0,1200,440,1,1199,forgot,47542,2019-10-21_21h40.54.579,SurveyExpMetaMem,3.2.3,MacIntel,60
,,,,,,,,,,,,,,,,,,,,7,0.471999884,7,0.223999977,1,0,1200,166,1,1199,unite,47542,2019-10-21_21h40.54.579,SurveyExpMetaMem,3.2.3,MacIntel,60
,,,,,,,,,,,,,,,,,,,,8,0.421999931,7,0.240999937,1,0,1200,532,1,1199,recede,47542,2019-10-21_21h40.54.579,SurveyExpMetaMem,3.2.3,MacIntel,60
,,,,,,,,,,,,,,,,,,,,7,0.388999939,8,0.223999977,1,0,1200,1037,1,1199,scared,47542,2019-10-21_21h40.54.579,SurveyExpMetaMem,3.2.3,MacIntel,60
,,,,,,,,,,,,,,,,,,,,7,0.277999878,8,0.306999922,1,0,1200,116,1,1199,carnival,47542,2019-10-21_21h40.54.579,SurveyExpMetaMem,3.2.3,MacIntel,60
,,,,,,,,,,,,,,,,,,,,7,0.292999983,6,0.625999928,1,0,1200,294,1,1199,confident,47542,2019-10-21_21h40.54.579,SurveyExpMetaMem,3.2.3,MacIntel,60
,,,,,,,,,,,,,,,,,,,,3,0.278000116,8,0.222000122,1,0,1200,949,1,1199,thief,47542,2019-10-21_21h40.54.579,SurveyExpMetaMem,3.2.3,MacIntel,60
,,,,,,,,,,,,,,,,,,,,7,0.661000013,3,0.588999987,1,0,1200,965,1,1199,traffic,47542,2019-10-21_21h40.54.579,SurveyExpMetaMem,3.2.3,MacIntel,60
,,,,,,,,,,,,,,,,,,,,8,0.171999931,3,0.524999857,1,0,1200,250,1,1199,erupt,47542,2019-10-21_21h40.54.579,SurveyExpMetaMem,3.2.3,MacIntel,60
,,,,,,,,,,,,,,,,,,,,7,0.227999926,3,0.440000057,1,0,1200,497,1,1199,pungent,47542,2019-10-21_21h40.54.579,SurveyExpMetaMem,3.2.3,MacIntel,60
,,,,,,,,,,,,,,,,,,,,8,0.187000036,3,0.481999874,1,0,1200,395,1,1199,lack,47542,2019-10-21_21h40.54.579,SurveyExpMetaMem,3.2.3,MacIntel,60
,,,,,,,,,,,,,,,,,,,,7,0.388000011,3,0.248999834,1,0,1200,287,1,1199,optimistic,47542,2019-10-21_21h40.54.579,SurveyExpMetaMem,3.2.3,MacIntel,60
,,,,,,,,,,,,,,,,,,,,7,0.207999945,4,0.214999914,1,0,1200,174,1,1199,snow,47542,2019-10-21_21h40.54.579,SurveyExpMetaMem,3.2.3,MacIntel,60
,,,,,,,,,,,,,,,,,,,,6,0.188999891,3,0.160999775,1,0,1200,281,1,1199,summer,47542,2019-10-21_21h40.54.579,SurveyExpMetaMem,3.2.3,MacIntel,60
,,,,,,,,,,,,,,,,,,,,8,0.18900013,8,0.289999962,1,0,1200,844,1,1199,soul,47542,2019-10-21_21h40.54.579,SurveyExpMetaMem,3.2.3,MacIntel,60
,,,,,,,,,,,,,,,,,,,,3,0.146000147,6,0.596999884,1,0,1200,1068,1,1199,riot,47542,2019-10-21_21h40.54.579,SurveyExpMetaMem,3.2.3,MacIntel,60
,,,,,,,,,,,,,,,,,,,,4,0.222000122,8,0.197999954,1,0,1200,466,1,1199,gnaw,47542,2019-10-21_21h40.54.579,SurveyExpMetaMem,3.2.3,MacIntel,60
,,,,,,,,,,,,,,,,,,,,3,0.263000011,8,0.255999804,1,0,1200,231,1,1199,cherish,47542,2019-10-21_21h40.54.579,SurveyExpMetaMem,3.2.3,MacIntel,60
,,,,,,,,,,,,,,,,,,,,4,0.539000034,6,0.155999899,1,0,1200,513,1,1199,bland,47542,2019-10-21_21h40.54.579,SurveyExpMetaMem,3.2.3,MacIntel,60
,,,,,,,,,,,,,,,,,,,,3,0.188999891,8,0.197999954,1,0,1200,1147,1,1199,demand,47542,2019-10-21_21h40.54.579,SurveyExpMetaMem,3.2.3,MacIntel,60
,,,,,,,,,,,,,,,,,,,,3,0.287999868,6,0.259999752,1,0,1200,512,1,1199,insect,47542,2019-10-21_21h40.54.579,SurveyExpMetaMem,3.2.3,MacIntel,60
,,,,,,,,,,,,,,,,,,,,4,0.190999985,8,0.223999977,1,0,1200,282,1,1199,luck,47542,2019-10-21_21h40.54.579,SurveyExpMetaMem,3.2.3,MacIntel,60
,,,,,,,,,,,,,,,,,,,,3,0.19299984,8,0.407999754,1,0,1200,761,1,1199,corn,47542,2019-10-21_21h40.54.579,SurveyExpMetaMem,3.2.3,MacIntel,60
,,,,,,,,,,,,,,,,,,,,3,0.289000034,7,0.20600009,1,0,1200,207,1,1199,erect,47542,2019-10-21_21h40.54.579,SurveyExpMetaMem,3.2.3,MacIntel,60
,,,,,,,,,,,,,,,,,,,,4,0.22300005,7,3.665999889,1,0,1200,13,1,1199,mingle,47542,2019-10-21_21h40.54.579,SurveyExpMetaMem,3.2.3,MacIntel,60
,,,,,,,,,,,,,,,,,,,,7,0.572000027,2,2.17599988,1,0,1200,1048,1,1199,paranoid,47542,2019-10-21_21h40.54.579,SurveyExpMetaMem,3.2.3,MacIntel,60
,,,,,,,,,,,,,,,,,,,,7,1.238999844,2,0.613999844,1,0,1200,120,1,1199,imaginative,47542,2019-10-21_21h40.54.579,SurveyExpMetaMem,3.2.3,MacIntel,60
,,,,,,,,,,,,,,,,,,,,7,4.842000008,2,1.040999889,1,0,1200,874,1,1199,butterfly,47542,2019-10-21_21h40.54.579,SurveyExpMetaMem,3.2.3,MacIntel,60
,,,,,,,,,,,,,,,,,,,,7,1.10800004,3,0.15899992,1,0,1200,848,1,1199,graceful,47542,2019-10-21_21h40.54.579,SurveyExpMetaMem,3.2.3,MacIntel,60
,,,,,,,,,,,,,,,,,,,,7,1.111000061,3,0.345000029,1,0,1200,560,1,1199,spurn,47542,2019-10-21_21h40.54.579,SurveyExpMetaMem,3.2.3,MacIntel,60
,,,,,,,,,,,,,,,,,,,,2,4.102999926,2,0.171000004,1,0,1200,791,1,1199,shoes,47542,2019-10-21_21h40.54.579,SurveyExpMetaMem,3.2.3,MacIntel,60
,,,,,,,,,,,,,,,,,,,,2,1.480999947,2,0.215999842,1,0,1200,1144,1,1199,yelp,47542,2019-10-21_21h40.54.579,SurveyExpMetaMem,3.2.3,MacIntel,60
,,,,,,,,,,,,,,,,,,,,7,1.737999916,2,0.15899992,1,0,1200,936,1,1199,assault,47542,2019-10-21_21h40.54.579,SurveyExpMetaMem,3.2.3,MacIntel,60
,,,,,,,,,,,,,,,,,,,,7,2.438999891,7,1.046999931,1,0,1200,202,1,1199,mercy,47542,2019-10-21_21h40.54.579,SurveyExpMetaMem,3.2.3,MacIntel,60
,,,,,,,,,,,,,,,,,,,,7,3.939999819,3,0.372999907,1,0,1200,1108,1,1199,spider,47542,2019-10-21_21h40.54.579,SurveyExpMetaMem,3.2.3,MacIntel,60
,,,,,,,,,,,,,,,,,,,,6,5.855000019,6,0.27699995,1,0,1200,646,1,1199,wear,47542,2019-10-21_21h40.54.579,SurveyExpMetaMem,3.2.3,MacIntel,60
,,,,,,,,,,,,,,,,,,,,6,0.786999941,5,0.472999811,1,0,1200,600,1,1199,parlor,47542,2019-10-21_21h40.54.579,SurveyExpMetaMem,3.2.3,MacIntel,60
,,,,,,,,,,,,,,,,,,,,6,1.421999931,6,0.196999788,1,0,1200,517,1,1199,habit,47542,2019-10-21_21h40.54.579,SurveyExpMetaMem,3.2.3,MacIntel,60
,,,,,,,,,,,,,,,,,,,,5,1.319999933,2,0.388000011,1,0,1200,1003,1,1199,jealousy,47542,2019-10-21_21h40.54.579,SurveyExpMetaMem,3.2.3,MacIntel,60
,,,,,,,,,,,,,,,,,,,,5,1.025999784,2,0.191999912,1,0,1200,144,1,1199,aroused,47542,2019-10-21_21h40.54.579,SurveyExpMetaMem,3.2.3,MacIntel,60
,,,,,,,,,,,,,,,,,,,,6,0.322000027,3,0.342999935,1,0,1200,372,1,1199,inferior,47542,2019-10-21_21h40.54.579,SurveyExpMetaMem,3.2.3,MacIntel,60
,,,,,,,,,,,,,,,,,,,,6,2.305999994,3,0.207000017,1,0,1200,498,1,1199,alimony,47542,2019-10-21_21h40.54.579,SurveyExpMetaMem,3.2.3,MacIntel,60
,,,,,,,,,,,,,,,,,,,,7,0.605999947,3,0.173000097,1,0,1200,141,1,1199,surprise,47542,2019-10-21_21h40.54.579,SurveyExpMetaMem,3.2.3,MacIntel,60
,,,,,,,,,,,,,,,,,,,,6,0.312000036,3,0.17599988,1,0,1200,986,1,1199,mad,47542,2019-10-21_21h40.54.579,SurveyExpMetaMem,3.2.3,MacIntel,60
,,,,,,,,,,,,,,,,,,,,7,0.258999825,2,0.18900013,1,0,1200,274,1,1199,song,47542,2019-10-21_21h40.54.579,SurveyExpMetaMem,3.2.3,MacIntel,60
,,,,,,,,,,,,,,,,,,,,7,0.243999958,2,0.324999809,1,0,1200,519,1,1199,listless,47542,2019-10-21_21h40.54.579,SurveyExpMetaMem,3.2.3,MacIntel,60
,,,,,,,,,,,,,,,,,,,,7,0.305999994,3,0.226999998,1,0,1200,1166,1,1199,compulsive,47542,2019-10-21_21h40.54.579,SurveyExpMetaMem,3.2.3,MacIntel,60
,,,,,,,,,,,,,,,,,,,,6,0.22699976,4,0.198999882,1,0,1200,981,1,1199,rage,47542,2019-10-21_21h40.54.579,SurveyExpMetaMem,3.2.3,MacIntel,60
,,,,,,,,,,,,,,,,,,,,5,0.321999788,3,0.241999865,1,0,1200,1085,1,1199,sever,47542,2019-10-21_21h40.54.579,SurveyExpMetaMem,3.2.3,MacIntel,60
,,,,,,,,,,,,,,,,,,,,7,0.303999901,3,0.339999914,1,0,1200,115,1,1199,sexual,47542,2019-10-21_21h40.54.579,SurveyExpMetaMem,3.2.3,MacIntel,60
,,,,,,,,,,,,,,,,,,,,6,0.22300005,4,0.22300005,1,0,1200,1035,1,1199,expel,47542,2019-10-21_21h40.54.579,SurveyExpMetaMem,3.2.3,MacIntel,60
,,,,,,,,,,,,,,,,,,,,7,0.21999979,3,0.190999985,1,0,1200,623,1,1199,suburban,47542,2019-10-21_21h40.54.579,SurveyExpMetaMem,3.2.3,MacIntel,60
,,,,,,,,,,,,,,,,,,,,7,0.260999918,3,0.236999989,1,0,1200,167,1,1199,casino,47542,2019-10-21_21h40.54.579,SurveyExpMetaMem,3.2.3,MacIntel,60
,,,,,,,,,,,,,,,,,,,,6,0.211999893,4,0.159999847,1,0,1200,505,1,1199,exhaust,47542,2019-10-21_21h40.54.579,SurveyExpMetaMem,3.2.3,MacIntel,60
,,,,,,,,,,,,,,,,,,,,7,0.240999937,3,0.274999857,1,0,1200,683,1,1199,scarf,47542,2019-10-21_21h40.54.579,SurveyExpMetaMem,3.2.3,MacIntel,60
,,,,,,,,,,,,,,,,,,,,8,0.228999853,4,0.547999859,1,0,1200,533,1,1199,busy,47542,2019-10-21_21h40.54.579,SurveyExpMetaMem,3.2.3,MacIntel,60
,,,,,,,,,,,,,,,,,,,,7,0.321999788,3,0.228999853,1,0,1200,238,1,1199,sunshine,47542,2019-10-21_21h40.54.579,SurveyExpMetaMem,3.2.3,MacIntel,60
,,,,,,,,,,,,,,,,,,,,4,0.142999887,8,0.093999863,1,0,1200,730,1,1199,slogan,47542,2019-10-21_21h40.54.579,SurveyExpMetaMem,3.2.3,MacIntel,60
,,,,,,,,,,,,,,,,,,,,7,0.053999901,7,0.138999939,1,0,1200,324,1,1199,inferiority,47542,2019-10-21_21h40.54.579,SurveyExpMetaMem,3.2.3,MacIntel,60
,,,,,,,,,,,,,,,,,,,,8,0.008999825,8,0.274999857,1,0,1200,380,1,1199,expire,47542,2019-10-21_21h40.54.579,SurveyExpMetaMem,3.2.3,MacIntel,60
,,,,,,,,,,,,,,,,,,,,7,0.099999905,6,0.059999704,1,0,1200,620,1,1199,spray,47542,2019-10-21_21h40.54.579,SurveyExpMetaMem,3.2.3,MacIntel,60
,,,,,,,,,,,,,,,,,,,,8,0.171000004,7,0.047999859,1,0,1200,781,1,1199,emerald,47542,2019-10-21_21h40.54.579,SurveyExpMetaMem,3.2.3,MacIntel,60
,,,,,,,,,,,,,,,,,,,,6,0.072000027,8,0.139999866,1,0,1200,399,1,1199,withdrawn,47542,2019-10-21_21h40.54.579,SurveyExpMetaMem,3.2.3,MacIntel,60
,,,,,,,,,,,,,,,,,,,,7,0.038999796,6,0.108999968,1,0,1200,495,1,1199,dust,47542,2019-10-21_21h40.54.579,SurveyExpMetaMem,3.2.3,MacIntel,60
,,,,,,,,,,,,,,,,,,,,7,0.222999811,6,0.361999989,1,0,1200,426,1,1199,con,47542,2019-10-21_21h40.54.579,SurveyExpMetaMem,3.2.3,MacIntel,60
,,,,,,,,,,,,,,,,,,,,3,0.454999924,7,0.235999823,1,0,1200,112,1,1199,jaguar,47542,2019-10-21_21h40.54.579,SurveyExpMetaMem,3.2.3,MacIntel,60
,,,,,,,,,,,,,,,,,,,,8,0.372999907,2,0.562999964,1,0,1200,843,1,1199,garden,47542,2019-10-21_21h40.54.579,SurveyExpMetaMem,3.2.3,MacIntel,60
,,,,,,,,,,,,,,,,,,,,7,0.289000034,3,0.193999767,1,0,1200,450,1,1199,overcast,47542,2019-10-21_21h40.54.579,SurveyExpMetaMem,3.2.3,MacIntel,60
,,,,,,,,,,,,,,,,,,,,7,0.271999836,3,0.159999847,1,0,1200,56,1,1199,spice,47542,2019-10-21_21h40.54.579,SurveyExpMetaMem,3.2.3,MacIntel,60
,,,,,,,,,,,,,,,,,,,,4,1.312999964,8,0.722999811,1,0,1200,1168,1,1199,financial,47542,2019-10-21_21h40.54.579,SurveyExpMetaMem,3.2.3,MacIntel,60
,,,,,,,,,,,,,,,,,,,,3,0.207000017,9,0.289000034,1,0,1200,87,1,1199,cookie,47542,2019-10-21_21h40.54.579,SurveyExpMetaMem,3.2.3,MacIntel,60
,,,,,,,,,,,,,,,,,,,,2,0.171999931,8,0.221999884,1,0,1200,662,1,1199,bib,47542,2019-10-21_21h40.54.579,SurveyExpMetaMem,3.2.3,MacIntel,60
,,,,,,,,,,,,,,,,,,,,3,0.174000025,2,0.556999922,1,0,1200,902,1,1199,rejected,47542,2019-10-21_21h40.54.579,SurveyExpMetaMem,3.2.3,MacIntel,60
,,,,,,,,,,,,,,,,,,,,6,0.157999992,2,0.224999905,1,0,1200,753,1,1199,patience,47542,2019-10-21_21h40.54.579,SurveyExpMetaMem,3.2.3,MacIntel,60
,,,,,,,,,,,,,,,,,,,,7,0.258999825,3,0.165999889,1,0,1200,545,1,1199,tar,47542,2019-10-21_21h40.54.579,SurveyExpMetaMem,3.2.3,MacIntel,60
,,,,,,,,,,,,,,,,,,,,6,0.245000124,2,0.188999891,1,0,1200,782,1,1199,open,47542,2019-10-21_21h40.54.579,SurveyExpMetaMem,3.2.3,MacIntel,60
,,,,,,,,,,,,,,,,,,,,7,0.206999779,2,0.176999807,1,0,1200,740,1,1199,groceries,47542,2019-10-21_21h40.54.579,SurveyExpMetaMem,3.2.3,MacIntel,60
,,,,,,,,,,,,,,,,,,,,7,0.488999844,3,0.20299983,1,0,1200,739,1,1199,seagull,47542,2019-10-21_21h40.54.579,SurveyExpMetaMem,3.2.3,MacIntel,60
,,,,,,,,,,,,,,,,,,,,6,0.342000008,2,0.274999857,1,0,1200,470,1,1199,cynical,47542,2019-10-21_21h40.54.579,SurveyExpMetaMem,3.2.3,MacIntel,60
,,,,,,,,,,,,,,,,,,,,7,0.148999929,3,0.194999933,1,0,1200,647,1,1199,accord,47542,2019-10-21_21h40.54.579,SurveyExpMetaMem,3.2.3,MacIntel,60
,,,,,,,,,,,,,,,,,,,,6,0.223999977,3,0.143999815,1,0,1200,833,1,1199,nice,47542,2019-10-21_21h40.54.579,SurveyExpMetaMem,3.2.3,MacIntel,60
,,,,,,,,,,,,,,,,,,,,7,0.198999882,2,0.170000076,1,0,1200,389,1,1199,gloomy,47542,2019-10-21_21h40.54.579,SurveyExpMetaMem,3.2.3,MacIntel,60
,,,,,,,,,,,,,,,,,,,,6,0.194000006,3,0.171999931,1,0,1200,930,1,1199,poison,47542,2019-10-21_21h40.54.579,SurveyExpMetaMem,3.2.3,MacIntel,60
,,,,,,,,,,,,,,,,,,,,6,0.191999912,6,0.492000103,1,0,1200,322,1,1199,widow,47542,2019-10-21_21h40.54.579,SurveyExpMetaMem,3.2.3,MacIntel,60
,,,,,,,,,,,,,,,,,,,,8,0.595999718,9,0.541000128,1,0,1200,954,1,1199,hostage,47542,2019-10-21_21h40.54.579,SurveyExpMetaMem,3.2.3,MacIntel,60
,,,,,,,,,,,,,,,,,,,,8,3.125999928,2,0.775000095,1,0,1200,922,1,1199,nightmare,47542,2019-10-21_21h40.54.579,SurveyExpMetaMem,3.2.3,MacIntel,60
,,,,,,,,,,,,,,,,,,,,8,1.607999802,2,0.171999931,1,0,1200,469,1,1199,resent,47542,2019-10-21_21h40.54.579,SurveyExpMetaMem,3.2.3,MacIntel,60
,,,,,,,,,,,,,,,,,,,,6,1.105999947,7,0.721999884,1,0,1200,54,1,1199,alcohol,47542,2019-10-21_21h40.54.579,SurveyExpMetaMem,3.2.3,MacIntel,60
,,,,,,,,,,,,,,,,,,,,7,1.204999924,8,0.17599988,1,0,1200,768,1,1199,trait,47542,2019-10-21_21h40.54.579,SurveyExpMetaMem,3.2.3,MacIntel,60
,,,,,,,,,,,,,,,,,,,,7,1.238999844,7,1.638999701,1,0,1200,447,1,1199,dishes,47542,2019-10-21_21h40.54.579,SurveyExpMetaMem,3.2.3,MacIntel,60
,,,,,,,,,,,,,,,,,,,,7,1.180999994,7,0.204999924,1,0,1200,712,1,1199,harvest,47542,2019-10-21_21h40.54.579,SurveyExpMetaMem,3.2.3,MacIntel,60
,,,,,,,,,,,,,,,,,,,,6,1.490999937,2,0.837999821,1,0,1200,1175,1,1199,prostitute,47542,2019-10-21_21h40.54.579,SurveyExpMetaMem,3.2.3,MacIntel,60
,,,,,,,,,,,,,,,,,,,,6,1.238999844,6,0.241999865,1,0,1200,19,1,1199,firefighter,47542,2019-10-21_21h40.54.579,SurveyExpMetaMem,3.2.3,MacIntel,60
,,,,,,,,,,,,,,,,,,,,7,1.006000042,6,0.179999828,1,0,1200,1155,1,1199,tangle,47542,2019-10-21_21h40.54.579,SurveyExpMetaMem,3.2.3,MacIntel,60
,,,,,,,,,,,,,,,,,,,,7,1.105000019,7,0.140999794,1,0,1200,758,1,1199,camera,47542,2019-10-21_21h40.54.579,SurveyExpMetaMem,3.2.3,MacIntel,60
,,,,,,,,,,,,,,,,,,,,7,0.85800004,7,0.14199996,1,0,1200,88,1,1199,ambitious,47542,2019-10-21_21h40.54.579,SurveyExpMetaMem,3.2.3,MacIntel,60
,,,,,,,,,,,,,,,,,,,,8,1.006999731,8,0.190000057,1,0,1200,232,1,1199,prosper,47542,2019-10-21_21h40.54.579,SurveyExpMetaMem,3.2.3,MacIntel,60
,,,,,,,,,,,,,,,,,,,,9,2.044999838,9,0.214999914,1,0,1200,103,1,1199,conquest,47542,2019-10-21_21h40.54.579,SurveyExpMetaMem,3.2.3,MacIntel,60
,,,,,,,,,,,,,,,,,,,,3,1.058000088,2,0.459000111,1,0,1200,900,1,1199,suicide,47542,2019-10-21_21h40.54.579,SurveyExpMetaMem,3.2.3,MacIntel,60
,,,,,,,,,,,,,,,,,,,,8,91.92700005,2,0.208999872,1,0,1200,1120,1,1199,gun,47542,2019-10-21_21h40.54.579,SurveyExpMetaMem,3.2.3,MacIntel,60
,,,,,,,,,,,,,,,,,,,,7,1.095000029,6,0.375,1,0,1200,988,1,1199,deserter,47542,2019-10-21_21h40.54.579,SurveyExpMetaMem,3.2.3,MacIntel,60
,,,,,,,,,,,,,,,,,,,,7,1.138000011,8,0.398999929,1,0,1200,267,1,1199,bold,47542,2019-10-21_21h40.54.579,SurveyExpMetaMem,3.2.3,MacIntel,60
,,,,,,,,,,,,,,,,,,,,7,0.910000086,8,0.187999964,1,0,1200,625,1,1199,hat,47542,2019-10-21_21h40.54.579,SurveyExpMetaMem,3.2.3,MacIntel,60
,,,,,,,,,,,,,,,,,,,,7,0.306999922,2,0.222999811,1,0,1200,32,1,1199,festival,47542,2019-10-21_21h40.54.579,SurveyExpMetaMem,3.2.3,MacIntel,60
,,,,,,,,,,,,,,,,,,,,7,0.123999834,2,0.258999825,1,0,1200,1115,1,1199,invade,47542,2019-10-21_21h40.54.579,SurveyExpMetaMem,3.2.3,MacIntel,60
,,,,,,,,,,,,,,,,,,,,8,0.187999964,7,0.382999897,1,0,1200,807,1,1199,person,47542,2019-10-21_21h40.54.579,SurveyExpMetaMem,3.2.3,MacIntel,60
,,,,,,,,,,,,,,,,,,,,1,5.471999884,1,0.190000057,1,0,1200,695,1,1199,teacher,47542,2019-10-21_21h40.54.579,SurveyExpMetaMem,3.2.3,MacIntel,60
,,,,,,,,,,,,,,,,,,,,1,2.721999884,1,0.177999973,1,0,1200,633,1,1199,cattle,47542,2019-10-21_21h40.54.579,SurveyExpMetaMem,3.2.3,MacIntel,60
,,,,,,,,,,,,,,,,,,,,1,4.254999876,7,0.843999863,1,0,1200,737,1,1199,lamb,47542,2019-10-21_21h40.54.579,SurveyExpMetaMem,3.2.3,MacIntel,60
,,,,,,,,,,,,,,,,,,,,1,1.722999811,7,0.769999981,1,0,1200,818,1,1199,priest,47542,2019-10-21_21h40.54.579,SurveyExpMetaMem,3.2.3,MacIntel,60
,,,,,,,,,,,,,,,,,,,,7,4.260999918,6,0.796999931,1,0,1200,70,1,1199,cartoon,47542,2019-10-21_21h40.54.579,SurveyExpMetaMem,3.2.3,MacIntel,60
,,,,,,,,,,,,,,,,,,,,7,1.637000084,2,0.607999802,1,0,1200,1049,1,1199,electrocute,47542,2019-10-21_21h40.54.579,SurveyExpMetaMem,3.2.3,MacIntel,60
,,,,,,,,,,,,,,,,,,,,7,1.180999994,8,0.481999874,1,0,1200,170,1,1199,entertainment,47542,2019-10-21_21h40.54.579,SurveyExpMetaMem,3.2.3,MacIntel,60
,,,,,,,,,,,,,,,,,,,,7,2.104999781,8,0.207999945,1,0,1200,709,1,1199,ancestor,47542,2019-10-21_21h40.54.579,SurveyExpMetaMem,3.2.3,MacIntel,60
,,,,,,,,,,,,,,,,,,,,1,4.394999981,1,0.595999718,1,0,1200,354,1,1199,cowardice,47542,2019-10-21_21h40.54.579,SurveyExpMetaMem,3.2.3,MacIntel,60
,,,,,,,,,,,,,,,,,,,,7,4.523000002,1,1.125999928,1,0,1200,1080,1,1199,broken,47542,2019-10-21_21h40.54.579,SurveyExpMetaMem,3.2.3,MacIntel,60
,,,,,,,,,,,,,,,,,,,,8,2.955999851,3,0.306999922,1,0,1200,85,1,1199,like,47542,2019-10-21_21h40.54.579,SurveyExpMetaMem,3.2.3,MacIntel,60
,,,,,,,,,,,,,,,,,,,,9,1.04399991,3,0.221999884,1,0,1200,917,1,1199,slave,47542,2019-10-21_21h40.54.579,SurveyExpMetaMem,3.2.3,MacIntel,60
,,,,,,,,,,,,,,,,,,,,8,0.128999949,3,0.172999859,1,0,1200,1162,1,1199,baffle,47542,2019-10-21_21h40.54.579,SurveyExpMetaMem,3.2.3,MacIntel,60
,,,,,,,,,,,,,,,,,,,,2,0.321999788,7,0.088999987,1,0,1200,957,1,1199,debt,47542,2019-10-21_21h40.54.579,SurveyExpMetaMem,3.2.3,MacIntel,60
,,,,,,,,,,,,,,,,,,,,2,0.207999945,8,0.111000061,1,0,1200,129,1,1199,fly,47542,2019-10-21_21h40.54.579,SurveyExpMetaMem,3.2.3,MacIntel,60
,,,,,,,,,,,,,,,,,,,,2,0.187000036,7,0.115999937,1,0,1200,802,1,1199,familiar,47542,2019-10-21_21h40.54.579,SurveyExpMetaMem,3.2.3,MacIntel,60
,,,,,,,,,,,,,,,,,,,,3,0.155999899,8,0.125,1,0,1200,36,1,1199,puppy,47542,2019-10-21_21h40.54.579,SurveyExpMetaMem,3.2.3,MacIntel,60
,,,,,,,,,,,,,,,,,,,,2,0.174000025,7,0.110999823,1,0,1200,318,1,1199,disappointment,47542,2019-10-21_21h40.54.579,SurveyExpMetaMem,3.2.3,MacIntel,60
,,,,,,,,,,,,,,,,,,,,2,0.239000082,7,0.07799983,1,0,1200,743,1,1199,herbal,47542,2019-10-21_21h40.54.579,SurveyExpMetaMem,3.2.3,MacIntel,60
,,,,,,,,,,,,,,,,,,,,3,0.176000118,8,0.123999834,1,0,1200,446,1,1199,greedy,47542,2019-10-21_21h40.54.579,SurveyExpMetaMem,3.2.3,MacIntel,60
,,,,,,,,,,,,,,,,,,,,2,0.14199996,7,0.122999907,1,0,1200,1066,1,1199,annoy,47542,2019-10-21_21h40.54.579,SurveyExpMetaMem,3.2.3,MacIntel,60
,,,,,,,,,,,,,,,,,,,,3,0.139999866,8,0.157000065,1,0,1200,678,1,1199,lightbulb,47542,2019-10-21_21h40.54.579,SurveyExpMetaMem,3.2.3,MacIntel,60
,,,,,,,,,,,,,,,,,,,,2,0.109999895,7,0.155999899,1,0,1200,841,1,1199,bathtub,47542,2019-10-21_21h40.54.579,SurveyExpMetaMem,3.2.3,MacIntel,60
,,,,,,,,,,,,,,,,,,,,3,0.177000046,6,0.198999882,1,0,1200,698,1,1199,oven,47542,2019-10-21_21h40.54.579,SurveyExpMetaMem,3.2.3,MacIntel,60
,,,,,,,,,,,,,,,,,,,,6,0.306999922,8,0.289000034,1,0,1200,346,1,1199,alcoholism,47542,2019-10-21_21h40.54.579,SurveyExpMetaMem,3.2.3,MacIntel,60
,,,,,,,,,,,,,,,,,,,,3,0.241999865,8,0.14199996,1,0,1200,175,1,1199,playground,47542,2019-10-21_21h40.54.579,SurveyExpMetaMem,3.2.3,MacIntel,60
,,,,,,,,,,,,,,,,,,,,2,0.298999786,9,0.414999962,1,0,1200,1052,1,1199,angry,47542,2019-10-21_21h40.54.579,SurveyExpMetaMem,3.2.3,MacIntel,60
,,,,,,,,,,,,,,,,,,,,2,0.222999811,9,0.181999922,1,0,1200,157,1,1199,reveal,47542,2019-10-21_21h40.54.579,SurveyExpMetaMem,3.2.3,MacIntel,60
,,,,,,,,,,,,,,,,,,,,3,0.390999794,8,0.292999983,1,0,1200,979,1,1199,harassment,47542,2019-10-21_21h40.54.579,SurveyExpMetaMem,3.2.3,MacIntel,60
,,,,,,,,,,,,,,,,,,,,7,0.571000099,8,0.273000002,1,0,1200,1141,1,1199,shark,47542,2019-10-21_21h40.54.579,SurveyExpMetaMem,3.2.3,MacIntel,60
,,,,,,,,,,,,,,,,,,,,7,0.488999844,8,0.191999912,1,0,1200,846,1,1199,able,47542,2019-10-21_21h40.54.579,SurveyExpMetaMem,3.2.3,MacIntel,60
,,,,,,,,,,,,,,,,,,,,7,0.256000042,8,0.147000074,1,0,1200,99,1,1199,funny,47542,2019-10-21_21h40.54.579,SurveyExpMetaMem,3.2.3,MacIntel,60
,,,,,,,,,,,,,,,,,,,,7,0.138999939,8,0.14199996,1,0,1200,667,1,1199,dew,47542,2019-10-21_21h40.54.579,SurveyExpMetaMem,3.2.3,MacIntel,60
,,,,,,,,,,,,,,,,,,,,7,0.258999825,8,0.573999882,1,0,1200,1074,1,1199,detain,47542,2019-10-21_21h40.54.579,SurveyExpMetaMem,3.2.3,MacIntel,60
,,,,,,,,,,,,,,,,,,,,7,0.269999981,8,0.190000057,1,0,1200,9,1,1199,try,47542,2019-10-21_21h40.54.579,SurveyExpMetaMem,3.2.3,MacIntel,60
,,,,,,,,,,,,,,,,,,,,7,0.205999851,8,0.174000025,1,0,1200,1039,1,1199,stalk,47542,2019-10-21_21h40.54.579,SurveyExpMetaMem,3.2.3,MacIntel,60
,,,,,,,,,,,,,,,,,,,,7,0.204999924,8,0.208999872,1,0,1200,944,1,1199,kill,47542,2019-10-21_21h40.54.579,SurveyExpMetaMem,3.2.3,MacIntel,60
,,,,,,,,,,,,,,,,,,,,7,0.123999834,8,0.176999807,1,0,1200,460,1,1199,rag,47542,2019-10-21_21h40.54.579,SurveyExpMetaMem,3.2.3,MacIntel,60
,,,,,,,,,,,,,,,,,,,,3,0.259000063,7,0.11500001,1,0,1200,755,1,1199,soap,47542,2019-10-21_21h40.54.579,SurveyExpMetaMem,3.2.3,MacIntel,60
,,,,,,,,,,,,,,,,,,,,3,0.195999861,6,0.174000025,1,0,1200,311,1,1199,discomfort,47542,2019-10-21_21h40.54.579,SurveyExpMetaMem,3.2.3,MacIntel,60
,,,,,,,,,,,,,,,,,,,,3,0.160000086,7,0.171999931,1,0,1200,1091,1,1199,cram,47542,2019-10-21_21h40.54.579,SurveyExpMetaMem,3.2.3,MacIntel,60
,,,,,,,,,,,,,,,,,,,,4,0.239999771,8,0.197000027,1,0,1200,1164,1,1199,battle,47542,2019-10-21_21h40.54.579,SurveyExpMetaMem,3.2.3,MacIntel,60
,,,,,,,,,,,,,,,,,,,,3,0.304999828,6,0.491999865,1,0,1200,289,1,1199,concert,47542,2019-10-21_21h40.54.579,SurveyExpMetaMem,3.2.3,MacIntel,60
,,,,,,,,,,,,,,,,,,,,2,0.187000036,7,0.171999931,1,0,1200,787,1,1199,dawn,47542,2019-10-21_21h40.54.579,SurveyExpMetaMem,3.2.3,MacIntel,60
,,,,,,,,,,,,,,,,,,,,6,0.174999952,3,0.529999971,1,0,1200,26,1,1199,inspired,47542,2019-10-21_21h40.54.579,SurveyExpMetaMem,3.2.3,MacIntel,60
,,,,,,,,,,,,,,,,,,,,8,0.20600009,7,0.342000008,1,0,1200,108,1,1199,naked,47542,2019-10-21_21h40.54.579,SurveyExpMetaMem,3.2.3,MacIntel,60
,,,,,,,,,,,,,,,,,,,,2,0.161999941,8,0.162999868,1,0,1200,669,1,1199,plaza,47542,2019-10-21_21h40.54.579,SurveyExpMetaMem,3.2.3,MacIntel,60
,,,,,,,,,,,,,,,,,,,,7,0.388999939,4,0.305999756,1,0,1200,1006,1,1199,rash,47542,2019-10-21_21h40.54.579,SurveyExpMetaMem,3.2.3,MacIntel,60
,,,,,,,,,,,,,,,,,,,,6,0.178999901,3,0.162999868,1,0,1200,364,1,1199,stink,47542,2019-10-21_21h40.54.579,SurveyExpMetaMem,3.2.3,MacIntel,60
,,,,,,,,,,,,,,,,,,,,8,0.207000017,3,0.173999786,1,0,1200,405,1,1199,fatigued,47542,2019-10-21_21h40.54.579,SurveyExpMetaMem,3.2.3,MacIntel,60
,,,,,,,,,,,,,,,,,,,,7,0.172999859,4,0.207999945,1,0,1200,270,1,1199,toddler,47542,2019-10-21_21h40.54.579,SurveyExpMetaMem,3.2.3,MacIntel,60
,,,,,,,,,,,,,,,,,,,,6,0.121999979,8,0.188999891,1,0,1200,864,1,1199,blanket,47542,2019-10-21_21h40.54.579,SurveyExpMetaMem,3.2.3,MacIntel,60
,,,,,,,,,,,,,,,,,,,,3,0.157000065,7,0.129999876,1,0,1200,713,1,1199,mobile,47542,2019-10-21_21h40.54.579,SurveyExpMetaMem,3.2.3,MacIntel,60
,,,,,,,,,,,,,,,,,,,,3,0.138000011,8,0.106999874,1,0,1200,1101,1,1199,scary,47542,2019-10-21_21h40.54.579,SurveyExpMetaMem,3.2.3,MacIntel,60
,,,,,,,,,,,,,,,,,,,,3,0.178999901,6,0.339999914,1,0,1200,665,1,1199,read,47542,2019-10-21_21h40.54.579,SurveyExpMetaMem,3.2.3,MacIntel,60
,,,,,,,,,,,,,,,,,,,,8,0.289000034,4,0.162999868,1,0,1200,958,1,1199,traitor,47542,2019-10-21_21h40.54.579,SurveyExpMetaMem,3.2.3,MacIntel,60
,,,,,,,,,,,,,,,,,,,,8,0.174999952,2,0.271999836,1,0,1200,472,1,1199,bald,47542,2019-10-21_21h40.54.579,SurveyExpMetaMem,3.2.3,MacIntel,60
,,,,,,,,,,,,,,,,,,,,9,0.157999992,3,0.263000011,1,0,1200,742,1,1199,window,47542,2019-10-21_21h40.54.579,SurveyExpMetaMem,3.2.3,MacIntel,60
,,,,,,,,,,,,,,,,,,,,7,0.124000072,6,0.422999859,1,0,1200,927,1,1199,jail,47542,2019-10-21_21h40.54.579,SurveyExpMetaMem,3.2.3,MacIntel,60
,,,,,,,,,,,,,,,,,,,,4,0.174000025,8,0.161999941,1,0,1200,853,1,1199,breeze,47542,2019-10-21_21h40.54.579,SurveyExpMetaMem,3.2.3,MacIntel,60
,,,,,,,,,,,,,,,,,,,,3,0.188999891,9,0.129999876,1,0,1200,1059,1,1199,harsh,47542,2019-10-21_21h40.54.579,SurveyExpMetaMem,3.2.3,MacIntel,60
,,,,,,,,,,,,,,,,,,,,4,0.210000038,7,0.147000074,1,0,1200,1026,1,1199,crisis,47542,2019-10-21_21h40.54.579,SurveyExpMetaMem,3.2.3,MacIntel,60
,,,,,,,,,,,,,,,,,,,,3,0.197999954,6,0.161000013,1,0,1200,806,1,1199,tree,47542,2019-10-21_21h40.54.579,SurveyExpMetaMem,3.2.3,MacIntel,60
,,,,,,,,,,,,,,,,,,,,4,0.187999725,8,0.157000065,1,0,1200,111,1,1199,band,47542,2019-10-21_21h40.54.579,SurveyExpMetaMem,3.2.3,MacIntel,60
,,,,,,,,,,,,,,,,,,,,3,0.221999884,9,0.142999887,1,0,1200,410,1,1199,tarnish,47542,2019-10-21_21h40.54.579,SurveyExpMetaMem,3.2.3,MacIntel,60
,,,,,,,,,,,,,,,,,,,,8,0.707000017,4,0.174999952,1,0,1200,1125,1,1199,outrage,47542,2019-10-21_21h40.54.579,SurveyExpMetaMem,3.2.3,MacIntel,60
,,,,,,,,,,,,,,,,,,,,7,0.140999794,6,0.291000128,1,0,1200,360,1,1199,dandruff,47542,2019-10-21_21h40.54.579,SurveyExpMetaMem,3.2.3,MacIntel,60
,,,,,,,,,,,,,,,,,,,,2,0.322999954,8,0.238999844,1,0,1200,615,1,1199,lad,47542,2019-10-21_21h40.54.579,SurveyExpMetaMem,3.2.3,MacIntel,60
,,,,,,,,,,,,,,,,,,,,6,0.512000084,3,0.358999968,1,0,1200,253,1,1199,soldier,47542,2019-10-21_21h40.54.579,SurveyExpMetaMem,3.2.3,MacIntel,60
,,,,,,,,,,,,,,,,,,,,7,0.161999941,3,0.187999964,1,0,1200,180,1,1199,embrace,47542,2019-10-21_21h40.54.579,SurveyExpMetaMem,3.2.3,MacIntel,60
,,,,,,,,,,,,,,,,,,,,8,0.121000051,2,0.221999884,1,0,1200,523,1,1199,witch,47542,2019-10-21_21h40.54.579,SurveyExpMetaMem,3.2.3,MacIntel,60
,,,,,,,,,,,,,,,,,,,,7,0.155999899,3,0.20600009,1,0,1200,484,1,1199,leave,47542,2019-10-21_21h40.54.579,SurveyExpMetaMem,3.2.3,MacIntel,60
,,,,,,,,,,,,,,,,,,,,8,0.207999945,3,0.225999832,1,0,1200,1151,1,1199,drama,47542,2019-10-21_21h40.54.579,SurveyExpMetaMem,3.2.3,MacIntel,60
,,,,,,,,,,,,,,,,,,,,9,0.121999979,3,0.207999945,1,0,1200,165,1,1199,sizzle,47542,2019-10-21_21h40.54.579,SurveyExpMetaMem,3.2.3,MacIntel,60
,,,,,,,,,,,,,,,,,,,,8,0.19900012,4,0.305000067,1,0,1200,334,1,1199,trash,47542,2019-10-21_21h40.54.579,SurveyExpMetaMem,3.2.3,MacIntel,60
,,,,,,,,,,,,,,,,,,,,7,0.438999891,4,0.273999929,1,0,1200,595,1,1199,vacuum,47542,2019-10-21_21h40.54.579,SurveyExpMetaMem,3.2.3,MacIntel,60
,,,,,,,,,,,,,,,,,,,,8,0.15899992,7,0.154999971,1,0,1200,810,1,1199,polite,47542,2019-10-21_21h40.54.579,SurveyExpMetaMem,3.2.3,MacIntel,60
,,,,,,,,,,,,,,,,,,,,3,0.187999964,8,0.143000126,1,0,1200,816,1,1199,hippotamus,47542,2019-10-21_21h40.54.579,SurveyExpMetaMem,3.2.3,MacIntel,60
,,,,,,,,,,,,,,,,,,,,4,0.245999813,7,0.140999794,1,0,1200,631,1,1199,delicate,47542,2019-10-21_21h40.54.579,SurveyExpMetaMem,3.2.3,MacIntel,60
,,,,,,,,,,,,,,,,,,,,3,0.195999861,8,0.152999878,1,0,1200,198,1,1199,comedy,47542,2019-10-21_21h40.54.579,SurveyExpMetaMem,3.2.3,MacIntel,60
,,,,,,,,,,,,,,,,,,,,4,0.2099998,7,0.190000057,1,0,1200,321,1,1199,wart,47542,2019-10-21_21h40.54.579,SurveyExpMetaMem,3.2.3,MacIntel,60
,,,,,,,,,,,,,,,,,,,,3,0.173999786,6,0.22699976,1,0,1200,489,1,1199,timid,47542,2019-10-21_21h40.54.579,SurveyExpMetaMem,3.2.3,MacIntel,60
,,,,,,,,,,,,,,,,,,,,8,0.39199996,2,0.303999901,1,0,1200,913,1,1199,ulcer,47542,2019-10-21_21h40.54.579,SurveyExpMetaMem,3.2.3,MacIntel,60
,,,,,,,,,,,,,,,,,,,,9,0.145999908,3,0.388999939,1,0,1200,535,1,1199,ramble,47542,2019-10-21_21h40.54.579,SurveyExpMetaMem,3.2.3,MacIntel,60
,,,,,,,,,,,,,,,,,,,,8,0.296999931,4,0.17599988,1,0,1200,106,1,1199,voyage,47542,2019-10-21_21h40.54.579,SurveyExpMetaMem,3.2.3,MacIntel,60
,,,,,,,,,,,,,,,,,,,,7,0.197000027,3,0.156000137,1,0,1200,956,1,1199,crushed,47542,2019-10-21_21h40.54.579,SurveyExpMetaMem,3.2.3,MacIntel,60
,,,,,,,,,,,,,,,,,,,,8,0.144999981,4,0.256000042,1,0,1200,1014,1,1199,destroy,47542,2019-10-21_21h40.54.579,SurveyExpMetaMem,3.2.3,MacIntel,60
,,,,,,,,,,,,,,,,,,,,7,0.238999844,8,0.295000076,1,0,1200,381,1,1199,sloppy,47542,2019-10-21_21h40.54.579,SurveyExpMetaMem,3.2.3,MacIntel,60
,,,,,,,,,,,,,,,,,,,,3,0.225999832,7,0.154999971,1,0,1200,809,1,1199,boy,47542,2019-10-21_21h40.54.579,SurveyExpMetaMem,3.2.3,MacIntel,60
,,,,,,,,,,,,,,,,,,,,4,0.157999754,8,0.126999855,1,0,1200,69,1,1199,special,47542,2019-10-21_21h40.54.579,SurveyExpMetaMem,3.2.3,MacIntel,60
,,,,,,,,,,,,,,,,,,,,3,0.187000036,7,0.127000093,1,0,1200,195,1,1199,laughing,47542,2019-10-21_21h40.54.579,SurveyExpMetaMem,3.2.3,MacIntel,60
,,,,,,,,,,,,,,,,,,,,6,0.27699995,4,0.190999985,1,0,1200,559,1,1199,lazy,47542,2019-10-21_21h40.54.579,SurveyExpMetaMem,3.2.3,MacIntel,60
,,,,,,,,,,,,,,,,,,,,8,0.114999771,3,0.194999933,1,0,1200,1142,1,1199,disturb,47542,2019-10-21_21h40.54.579,SurveyExpMetaMem,3.2.3,MacIntel,60
,,,,,,,,,,,,,,,,,,,,7,0.15199995,8,0.305999756,1,0,1200,1123,1,1199,haunt,47542,2019-10-21_21h40.54.579,SurveyExpMetaMem,3.2.3,MacIntel,60
,,,,,,,,,,,,,,,,,,,,7,0.208999872,8,0.191999912,1,0,1200,588,1,1199,bandage,47542,2019-10-21_21h40.54.579,SurveyExpMetaMem,3.2.3,MacIntel,60
,,,,,,,,,,,,,,,,,,,,7,0.174000025,6,0.223999977,1,0,1200,769,1,1199,relate,47542,2019-10-21_21h40.54.579,SurveyExpMetaMem,3.2.3,MacIntel,60
,,,,,,,,,,,,,,,,,,,,4,0.309999943,8,0.123999834,1,0,1200,746,1,1199,proper,47542,2019-10-21_21h40.54.579,SurveyExpMetaMem,3.2.3,MacIntel,60
,,,,,,,,,,,,,,,,,,,,3,0.188999891,7,0.121999979,1,0,1200,147,1,1199,cure,47542,2019-10-21_21h40.54.579,SurveyExpMetaMem,3.2.3,MacIntel,60
,,,,,,,,,,,,,,,,,,,,4,0.194999933,6,0.092999935,1,0,1200,974,1,1199,roach,47542,2019-10-21_21h40.54.579,SurveyExpMetaMem,3.2.3,MacIntel,60
,,,,,,,,,,,,,,,,,,,,8,0.270999908,7,0.188999891,1,0,1200,485,1,1199,pinch,47542,2019-10-21_21h40.54.579,SurveyExpMetaMem,3.2.3,MacIntel,60
,,,,,,,,,,,,,,,,,,,,3,0.279999971,8,0.012999773,1,0,1200,154,1,1199,race,47542,2019-10-21_21h40.54.579,SurveyExpMetaMem,3.2.3,MacIntel,60
,,,,,,,,,,,,,,,,,,,,8,0.241999865,9,0.397999763,1,0,1200,677,1,1199,handwriting,47542,2019-10-21_21h40.54.579,SurveyExpMetaMem,3.2.3,MacIntel,60
,,,,,,,,,,,,,,,,,,,,9,0.381000042,9,1.495999813,1,0,1200,793,1,1199,virtue,47542,2019-10-21_21h40.54.579,SurveyExpMetaMem,3.2.3,MacIntel,60
,,,,,,,,,,,,,,,,,,,,9,2.707000017,9,0.178999901,1,0,1200,515,1,1199,blues,47542,2019-10-21_21h40.54.579,SurveyExpMetaMem,3.2.3,MacIntel,60
,,,,,,,,,,,,,,,,,,,,9,0.996999979,9,0.180999756,1,0,1200,719,1,1199,western,47542,2019-10-21_21h40.54.579,SurveyExpMetaMem,3.2.3,MacIntel,60
,,,,,,,,,,,,,,,,,,,,9,0.705999851,9,0.180000067,1,0,1200,1075,1,1199,apprehension,47542,2019-10-21_21h40.54.579,SurveyExpMetaMem,3.2.3,MacIntel,60
,,,,,,,,,,,,,,,,,,,,9,1.960999966,3,0.197000027,1,0,1200,459,1,1199,heavy,47542,2019-10-21_21h40.54.579,SurveyExpMetaMem,3.2.3,MacIntel,60
,,,,,,,,,,,,,,,,,,,,9,1.638999939,9,0.328999996,1,0,1200,776,1,1199,doll,47542,2019-10-21_21h40.54.579,SurveyExpMetaMem,3.2.3,MacIntel,60
,,,,,,,,,,,,,,,,,,,,6,1.578999996,2,0.224999905,1,0,1200,1044,1,1199,lost,47542,2019-10-21_21h40.54.579,SurveyExpMetaMem,3.2.3,MacIntel,60
,,,,,,,,,,,,,,,,,,,,8,0.663999796,2,0.207000017,1,0,1200,558,1,1199,punk,47542,2019-10-21_21h40.54.579,SurveyExpMetaMem,3.2.3,MacIntel,60
