mouse_4.x,mouse_4.y,mouse_4.leftButton,mouse_4.midButton,mouse_4.rightButton,mouse.x,mouse.y,mouse.leftButton,mouse.midButton,mouse.rightButton,mouse_2.x,mouse_2.y,mouse_2.leftButton,mouse_2.midButton,mouse_2.rightButton,mouse_3.x,mouse_3.y,mouse_3.leftButton,mouse_3.midButton,mouse_3.rightButton,A_key_resp.keys,A_key_resp.rt,key_resp.keys,key_resp.rt,trials.thisRepN,trials.thisTrialN,trials.thisN,trials.thisIndex,trials.ran,trials.order,word,ParticipantID,date,expName,psychopyVersion,OS,frameRate
-0.099074062,-0.082407416,1,0,0,-0.099074062,-0.082407416,1,0,0,-0.099074062,-0.082407416,1,0,0,-0.099074062,-0.082407416,1,0,0,6,17.69500017,7,13.18300009,1,0,1200,59,1,1199,sports,11121,2019-10-22_09h03.28.172,SurveyExpMetaMem,3.2.3,Win32,60
,,,,,,,,,,,,,,,,,,,,5,3.899000168,5,0.84100008,1,0,1200,743,1,1199,herbal,11121,2019-10-22_09h03.28.172,SurveyExpMetaMem,3.2.3,Win32,60
,,,,,,,,,,,,,,,,,,,,7,6.235000134,8,4.123000145,1,0,1200,271,1,1199,applaud,11121,2019-10-22_09h03.28.172,SurveyExpMetaMem,3.2.3,Win32,60
,,,,,,,,,,,,,,,,,,,,3,4.954000235,4,9.991000175,1,0,1200,533,1,1199,busy,11121,2019-10-22_09h03.28.172,SurveyExpMetaMem,3.2.3,Win32,60
,,,,,,,,,,,,,,,,,,,,5,3.360000372,5,1.287000179,1,0,1200,423,1,1199,stain,11121,2019-10-22_09h03.28.172,SurveyExpMetaMem,3.2.3,Win32,60
,,,,,,,,,,,,,,,,,,,,3,7.851000309,4,3.055000067,1,0,1200,1121,1,1199,ban,11121,2019-10-22_09h03.28.172,SurveyExpMetaMem,3.2.3,Win32,60
,,,,,,,,,,,,,,,,,,,,5,3.667000055,5,0.389000177,1,0,1200,603,1,1199,mane,11121,2019-10-22_09h03.28.172,SurveyExpMetaMem,3.2.3,Win32,60
,,,,,,,,,,,,,,,,,,,,5,5.302999973,8,2.832000256,1,0,1200,829,1,1199,innocent,11121,2019-10-22_09h03.28.172,SurveyExpMetaMem,3.2.3,Win32,60
,,,,,,,,,,,,,,,,,,,,5,3.139000177,5,0.347000122,1,0,1200,632,1,1199,avenue,11121,2019-10-22_09h03.28.172,SurveyExpMetaMem,3.2.3,Win32,60
,,,,,,,,,,,,,,,,,,,,5,5.279000044,1,2.004000187,1,0,1200,976,1,1199,tumor,11121,2019-10-22_09h03.28.172,SurveyExpMetaMem,3.2.3,Win32,60
,,,,,,,,,,,,,,,,,,,,5,1.716000319,5,0.285000086,1,0,1200,646,1,1199,wear,11121,2019-10-22_09h03.28.172,SurveyExpMetaMem,3.2.3,Win32,60
,,,,,,,,,,,,,,,,,,,,8,4.286000252,9,2.924000263,1,0,1200,229,1,1199,heaven,11121,2019-10-22_09h03.28.172,SurveyExpMetaMem,3.2.3,Win32,60
,,,,,,,,,,,,,,,,,,,,7,5.162000179,5,2.372000217,1,0,1200,207,1,1199,erect,11121,2019-10-22_09h03.28.172,SurveyExpMetaMem,3.2.3,Win32,60
,,,,,,,,,,,,,,,,,,,,5,1.926000118,5,0.764000177,1,0,1200,600,1,1199,parlor,11121,2019-10-22_09h03.28.172,SurveyExpMetaMem,3.2.3,Win32,60
,,,,,,,,,,,,,,,,,,,,5,3.87100029,3,1.338999987,1,0,1200,1041,1,1199,sin,11121,2019-10-22_09h03.28.172,SurveyExpMetaMem,3.2.3,Win32,60
,,,,,,,,,,,,,,,,,,,,5,3.936000109,4,0.624000072,1,0,1200,599,1,1199,obstinate,11121,2019-10-22_09h03.28.172,SurveyExpMetaMem,3.2.3,Win32,60
,,,,,,,,,,,,,,,,,,,,5,17.96500015,1,0.509000301,1,0,1200,904,1,1199,murderer,11121,2019-10-22_09h03.28.172,SurveyExpMetaMem,3.2.3,Win32,60
,,,,,,,,,,,,,,,,,,,,5,2.338000298,5,0.408000231,1,0,1200,579,1,1199,bus,11121,2019-10-22_09h03.28.172,SurveyExpMetaMem,3.2.3,Win32,60
,,,,,,,,,,,,,,,,,,,,5,2.890000105,6,1.869000196,1,0,1200,847,1,1199,moon,11121,2019-10-22_09h03.28.172,SurveyExpMetaMem,3.2.3,Win32,60
,,,,,,,,,,,,,,,,,,,,5,12.18300033,1,1.691000223,1,0,1200,983,1,1199,demonic,11121,2019-10-22_09h03.28.172,SurveyExpMetaMem,3.2.3,Win32,60
,,,,,,,,,,,,,,,,,,,,1,3.520000219,9,1.904000282,1,0,1200,863,1,1199,fireplace,11121,2019-10-22_09h03.28.172,SurveyExpMetaMem,3.2.3,Win32,60
,,,,,,,,,,,,,,,,,,,,8,2.462000132,7,1.599000216,1,0,1200,49,1,1199,ecstatic,11121,2019-10-22_09h03.28.172,SurveyExpMetaMem,3.2.3,Win32,60
,,,,,,,,,,,,,,,,,,,,9,2.139000177,9,1.104000092,1,0,1200,195,1,1199,laughing,11121,2019-10-22_09h03.28.172,SurveyExpMetaMem,3.2.3,Win32,60
,,,,,,,,,,,,,,,,,,,,3,5.727000237,6,2.489000082,1,0,1200,795,1,1199,soup,11121,2019-10-22_09h03.28.172,SurveyExpMetaMem,3.2.3,Win32,60
,,,,,,,,,,,,,,,,,,,,5,4.028000116,3,7.421000242,1,0,1200,473,1,1199,senseless,11121,2019-10-22_09h03.28.172,SurveyExpMetaMem,3.2.3,Win32,60
,,,,,,,,,,,,,,,,,,,,7,5.335000277,8,1.40500021,1,0,1200,113,1,1199,bridesmaid,11121,2019-10-22_09h03.28.172,SurveyExpMetaMem,3.2.3,Win32,60
,,,,,,,,,,,,,,,,,,,,5,2.604000092,2,2.140000105,1,0,1200,373,1,1199,ignorance,11121,2019-10-22_09h03.28.172,SurveyExpMetaMem,3.2.3,Win32,60
,,,,,,,,,,,,,,,,,,,,8,3.272000074,7,1.522000074,1,0,1200,802,1,1199,familiar,11121,2019-10-22_09h03.28.172,SurveyExpMetaMem,3.2.3,Win32,60
,,,,,,,,,,,,,,,,,,,,5,2.959000111,3,1.437000036,1,0,1200,325,1,1199,disability,11121,2019-10-22_09h03.28.172,SurveyExpMetaMem,3.2.3,Win32,60
,,,,,,,,,,,,,,,,,,,,5,4.021000147,2,1.230000257,1,0,1200,991,1,1199,harass,11121,2019-10-22_09h03.28.172,SurveyExpMetaMem,3.2.3,Win32,60
,,,,,,,,,,,,,,,,,,,,5,2.851000071,5,0.323000193,1,0,1200,639,1,1199,outlet,11121,2019-10-22_09h03.28.172,SurveyExpMetaMem,3.2.3,Win32,60
,,,,,,,,,,,,,,,,,,,,5,4.141000032,4,0.840000153,1,0,1200,436,1,1199,mediocre,11121,2019-10-22_09h03.28.172,SurveyExpMetaMem,3.2.3,Win32,60
,,,,,,,,,,,,,,,,,,,,7,2.38800025,9,2.360000134,1,0,1200,835,1,1199,helpful,11121,2019-10-22_09h03.28.172,SurveyExpMetaMem,3.2.3,Win32,60
,,,,,,,,,,,,,,,,,,,,8,4.483000278,6,4.619000196,1,0,1200,108,1,1199,naked,11121,2019-10-22_09h03.28.172,SurveyExpMetaMem,3.2.3,Win32,60
,,,,,,,,,,,,,,,,,,,,9,3.97200036,8,2.738000154,1,0,1200,193,1,1199,party,11121,2019-10-22_09h03.28.172,SurveyExpMetaMem,3.2.3,Win32,60
,,,,,,,,,,,,,,,,,,,,5,2.144000053,3,0.837000132,1,0,1200,372,1,1199,inferior,11121,2019-10-22_09h03.28.172,SurveyExpMetaMem,3.2.3,Win32,60
,,,,,,,,,,,,,,,,,,,,5,1.5400002,5,0.246000051,1,0,1200,517,1,1199,habit,11121,2019-10-22_09h03.28.172,SurveyExpMetaMem,3.2.3,Win32,60
,,,,,,,,,,,,,,,,,,,,6,11.45100021,3,2.74600029,1,0,1200,1086,1,1199,irritate,11121,2019-10-22_09h03.28.172,SurveyExpMetaMem,3.2.3,Win32,60
,,,,,,,,,,,,,,,,,,,,7,2.542000294,6,2.044000149,1,0,1200,810,1,1199,polite,11121,2019-10-22_09h03.28.172,SurveyExpMetaMem,3.2.3,Win32,60
,,,,,,,,,,,,,,,,,,,,5,1.931000233,5,0.321000099,1,0,1200,493,1,1199,little,11121,2019-10-22_09h03.28.172,SurveyExpMetaMem,3.2.3,Win32,60
,,,,,,,,,,,,,,,,,,,,5,2.303000212,5,0.856000185,1,0,1200,257,1,1199,cockpit,11121,2019-10-22_09h03.28.172,SurveyExpMetaMem,3.2.3,Win32,60
,,,,,,,,,,,,,,,,,,,,5,2.40500021,3,1.325999975,1,0,1200,588,1,1199,bandage,11121,2019-10-22_09h03.28.172,SurveyExpMetaMem,3.2.3,Win32,60
,,,,,,,,,,,,,,,,,,,,7,3.921000242,6,1.001000166,1,0,1200,179,1,1199,star,11121,2019-10-22_09h03.28.172,SurveyExpMetaMem,3.2.3,Win32,60
,,,,,,,,,,,,,,,,,,,,5,2.719000101,5,4.681000233,1,0,1200,820,1,1199,oxygen,11121,2019-10-22_09h03.28.172,SurveyExpMetaMem,3.2.3,Win32,60
,,,,,,,,,,,,,,,,,,,,5,1.122000217,5,0.218000174,1,0,1200,698,1,1199,oven,11121,2019-10-22_09h03.28.172,SurveyExpMetaMem,3.2.3,Win32,60
,,,,,,,,,,,,,,,,,,,,5,3.475000143,4,1.226000071,1,0,1200,330,1,1199,sunburn,11121,2019-10-22_09h03.28.172,SurveyExpMetaMem,3.2.3,Win32,60
,,,,,,,,,,,,,,,,,,,,8,2.190000057,6,2.788000107,1,0,1200,64,1,1199,brain,11121,2019-10-22_09h03.28.172,SurveyExpMetaMem,3.2.3,Win32,60
,,,,,,,,,,,,,,,,,,,,5,1.703000307,5,0.226000071,1,0,1200,252,1,1199,infatuated,11121,2019-10-22_09h03.28.172,SurveyExpMetaMem,3.2.3,Win32,60
,,,,,,,,,,,,,,,,,,,,8,4.43900013,7,0.376000166,1,0,1200,890,1,1199,carefree,11121,2019-10-22_09h03.28.172,SurveyExpMetaMem,3.2.3,Win32,60
,,,,,,,,,,,,,,,,,,,,8,3.237000227,6,1.659000158,1,0,1200,30,1,1199,impressed,11121,2019-10-22_09h03.28.172,SurveyExpMetaMem,3.2.3,Win32,60
,,,,,,,,,,,,,,,,,,,,5,1.635000229,5,0.200000286,1,0,1200,731,1,1199,decency,11121,2019-10-22_09h03.28.172,SurveyExpMetaMem,3.2.3,Win32,60
,,,,,,,,,,,,,,,,,,,,5,2.275000334,5,0.217000246,1,0,1200,519,1,1199,listless,11121,2019-10-22_09h03.28.172,SurveyExpMetaMem,3.2.3,Win32,60
,,,,,,,,,,,,,,,,,,,,6,3.167999983,3,1.20600009,1,0,1200,996,1,1199,sting,11121,2019-10-22_09h03.28.172,SurveyExpMetaMem,3.2.3,Win32,60
,,,,,,,,,,,,,,,,,,,,5,1.616000175,5,0.482000351,1,0,1200,748,1,1199,town,11121,2019-10-22_09h03.28.172,SurveyExpMetaMem,3.2.3,Win32,60
,,,,,,,,,,,,,,,,,,,,5,1.028000116,5,0.287000179,1,0,1200,660,1,1199,rock,11121,2019-10-22_09h03.28.172,SurveyExpMetaMem,3.2.3,Win32,60
,,,,,,,,,,,,,,,,,,,,7,4.202000141,5,1.091000319,1,0,1200,440,1,1199,forgot,11121,2019-10-22_09h03.28.172,SurveyExpMetaMem,3.2.3,Win32,60
,,,,,,,,,,,,,,,,,,,,5,2.200000048,5,0.221000195,1,0,1200,658,1,1199,method,11121,2019-10-22_09h03.28.172,SurveyExpMetaMem,3.2.3,Win32,60
,,,,,,,,,,,,,,,,,,,,5,2.072000027,7,1.46600008,1,0,1200,644,1,1199,farm,11121,2019-10-22_09h03.28.172,SurveyExpMetaMem,3.2.3,Win32,60
,,,,,,,,,,,,,,,,,,,,5,1.98900032,3,1.391000032,1,0,1200,328,1,1199,disgrace,11121,2019-10-22_09h03.28.172,SurveyExpMetaMem,3.2.3,Win32,60
,,,,,,,,,,,,,,,,,,,,7,2.629000187,3,0.559000015,1,0,1200,915,1,1199,abuse,11121,2019-10-22_09h03.28.172,SurveyExpMetaMem,3.2.3,Win32,60
,,,,,,,,,,,,,,,,,,,,8,1.629000187,1,2.710000038,1,0,1200,907,1,1199,terrorist,11121,2019-10-22_09h03.28.172,SurveyExpMetaMem,3.2.3,Win32,60
,,,,,,,,,,,,,,,,,,,,8,3.576000214,4,1.001000166,1,0,1200,1035,1,1199,expel,11121,2019-10-22_09h03.28.172,SurveyExpMetaMem,3.2.3,Win32,60
,,,,,,,,,,,,,,,,,,,,5,1.768000364,5,0.383000135,1,0,1200,760,1,1199,shrimp,11121,2019-10-22_09h03.28.172,SurveyExpMetaMem,3.2.3,Win32,60
,,,,,,,,,,,,,,,,,,,,8,3.291000128,6,1.628000259,1,0,1200,72,1,1199,attract,11121,2019-10-22_09h03.28.172,SurveyExpMetaMem,3.2.3,Win32,60
,,,,,,,,,,,,,,,,,,,,5,3.18200016,2,0.911000013,1,0,1200,300,1,1199,unhappy,11121,2019-10-22_09h03.28.172,SurveyExpMetaMem,3.2.3,Win32,60
,,,,,,,,,,,,,,,,,,,,5,1.271000147,5,0.333000183,1,0,1200,768,1,1199,trait,11121,2019-10-22_09h03.28.172,SurveyExpMetaMem,3.2.3,Win32,60
,,,,,,,,,,,,,,,,,,,,5,3.368000269,5,0.170000315,1,0,1200,701,1,1199,telephone,11121,2019-10-22_09h03.28.172,SurveyExpMetaMem,3.2.3,Win32,60
,,,,,,,,,,,,,,,,,,,,8,3.056000233,8,2.541000128,1,0,1200,42,1,1199,accomplish,11121,2019-10-22_09h03.28.172,SurveyExpMetaMem,3.2.3,Win32,60
,,,,,,,,,,,,,,,,,,,,5,2.368000269,4,1.146000147,1,0,1200,1066,1,1199,annoy,11121,2019-10-22_09h03.28.172,SurveyExpMetaMem,3.2.3,Win32,60
,,,,,,,,,,,,,,,,,,,,5,1.370000124,5,0.366000175,1,0,1200,1020,1,1199,malice,11121,2019-10-22_09h03.28.172,SurveyExpMetaMem,3.2.3,Win32,60
,,,,,,,,,,,,,,,,,,,,5,0.920000076,5,0.217000246,1,0,1200,596,1,1199,factory,11121,2019-10-22_09h03.28.172,SurveyExpMetaMem,3.2.3,Win32,60
,,,,,,,,,,,,,,,,,,,,6,3.744000196,2,1.203000307,1,0,1200,1080,1,1199,broken,11121,2019-10-22_09h03.28.172,SurveyExpMetaMem,3.2.3,Win32,60
,,,,,,,,,,,,,,,,,,,,5,3.173000097,7,0.771000147,1,0,1200,864,1,1199,blanket,11121,2019-10-22_09h03.28.172,SurveyExpMetaMem,3.2.3,Win32,60
,,,,,,,,,,,,,,,,,,,,5,1.920000076,4,1.589000225,1,0,1200,465,1,1199,void,11121,2019-10-22_09h03.28.172,SurveyExpMetaMem,3.2.3,Win32,60
,,,,,,,,,,,,,,,,,,,,7,3.239000082,7,1.298000097,1,0,1200,120,1,1199,imaginative,11121,2019-10-22_09h03.28.172,SurveyExpMetaMem,3.2.3,Win32,60
,,,,,,,,,,,,,,,,,,,,5,1.676000118,5,0.366000175,1,0,1200,567,1,1199,folly,11121,2019-10-22_09h03.28.172,SurveyExpMetaMem,3.2.3,Win32,60
,,,,,,,,,,,,,,,,,,,,5,3.479000092,2,2.46900034,1,0,1200,912,1,1199,rabies,11121,2019-10-22_09h03.28.172,SurveyExpMetaMem,3.2.3,Win32,60
,,,,,,,,,,,,,,,,,,,,5,1.423000097,5,0.421000242,1,0,1200,176,1,1199,champ,11121,2019-10-22_09h03.28.172,SurveyExpMetaMem,3.2.3,Win32,60
,,,,,,,,,,,,,,,,,,,,8,2.154000282,1,1.52300024,1,0,1200,957,1,1199,debt,11121,2019-10-22_09h03.28.172,SurveyExpMetaMem,3.2.3,Win32,60
,,,,,,,,,,,,,,,,,,,,5,2.455000162,5,0.409000158,1,0,1200,479,1,1199,period,11121,2019-10-22_09h03.28.172,SurveyExpMetaMem,3.2.3,Win32,60
,,,,,,,,,,,,,,,,,,,,9,1.969000101,7,1.28000021,1,0,1200,184,1,1199,surprised,11121,2019-10-22_09h03.28.172,SurveyExpMetaMem,3.2.3,Win32,60
,,,,,,,,,,,,,,,,,,,,5,2.068000078,5,0.370000124,1,0,1200,1144,1,1199,yelp,11121,2019-10-22_09h03.28.172,SurveyExpMetaMem,3.2.3,Win32,60
,,,,,,,,,,,,,,,,,,,,7,2.56400013,8,0.659000158,1,0,1200,174,1,1199,snow,11121,2019-10-22_09h03.28.172,SurveyExpMetaMem,3.2.3,Win32,60
,,,,,,,,,,,,,,,,,,,,5,1.175000191,5,0.288000107,1,0,1200,696,1,1199,rink,11121,2019-10-22_09h03.28.172,SurveyExpMetaMem,3.2.3,Win32,60
,,,,,,,,,,,,,,,,,,,,8,3.660000324,6,1.202000141,1,0,1200,91,1,1199,pretty,11121,2019-10-22_09h03.28.172,SurveyExpMetaMem,3.2.3,Win32,60
,,,,,,,,,,,,,,,,,,,,5,3.208000183,5,0.207999945,1,0,1200,233,1,1199,exhilaration,11121,2019-10-22_09h03.28.172,SurveyExpMetaMem,3.2.3,Win32,60
,,,,,,,,,,,,,,,,,,,,7,2.028000116,3,1.13800025,1,0,1200,1005,1,1199,pissed,11121,2019-10-22_09h03.28.172,SurveyExpMetaMem,3.2.3,Win32,60
,,,,,,,,,,,,,,,,,,,,5,2.977000237,4,0.489000082,1,0,1200,537,1,1199,absurd,11121,2019-10-22_09h03.28.172,SurveyExpMetaMem,3.2.3,Win32,60
,,,,,,,,,,,,,,,,,,,,5,1.838999987,4,0.787000179,1,0,1200,443,1,1199,incorrect,11121,2019-10-22_09h03.28.172,SurveyExpMetaMem,3.2.3,Win32,60
,,,,,,,,,,,,,,,,,,,,7,1.839000225,3,1.011000156,1,0,1200,1001,1,1199,rude,11121,2019-10-22_09h03.28.172,SurveyExpMetaMem,3.2.3,Win32,60
,,,,,,,,,,,,,,,,,,,,8,2.736999989,8,1.560000181,1,0,1200,95,1,1199,giggle,11121,2019-10-22_09h03.28.172,SurveyExpMetaMem,3.2.3,Win32,60
,,,,,,,,,,,,,,,,,,,,5,2.157999992,5,0.894999981,1,0,1200,1159,1,1199,rifle,11121,2019-10-22_09h03.28.172,SurveyExpMetaMem,3.2.3,Win32,60
,,,,,,,,,,,,,,,,,,,,5,2.877000093,3,0.871000051,1,0,1200,964,1,1199,grieve,11121,2019-10-22_09h03.28.172,SurveyExpMetaMem,3.2.3,Win32,60
,,,,,,,,,,,,,,,,,,,,8,1.891000032,4,1.653000116,1,0,1200,955,1,1199,drown,11121,2019-10-22_09h03.28.172,SurveyExpMetaMem,3.2.3,Win32,60
,,,,,,,,,,,,,,,,,,,,5,3.928000212,2,0.829000235,1,0,1200,913,1,1199,ulcer,11121,2019-10-22_09h03.28.172,SurveyExpMetaMem,3.2.3,Win32,60
,,,,,,,,,,,,,,,,,,,,5,2.197000027,5,0.313000202,1,0,1200,825,1,1199,swan,11121,2019-10-22_09h03.28.172,SurveyExpMetaMem,3.2.3,Win32,60
,,,,,,,,,,,,,,,,,,,,6,2.805000305,6,0.675000191,1,0,1200,58,1,1199,boost,11121,2019-10-22_09h03.28.172,SurveyExpMetaMem,3.2.3,Win32,60
,,,,,,,,,,,,,,,,,,,,5,2.118999958,4,0.562000275,1,0,1200,458,1,1199,refuse,11121,2019-10-22_09h03.28.172,SurveyExpMetaMem,3.2.3,Win32,60
,,,,,,,,,,,,,,,,,,,,5,1.191000223,5,0.22300005,1,0,1200,466,1,1199,gnaw,11121,2019-10-22_09h03.28.172,SurveyExpMetaMem,3.2.3,Win32,60
,,,,,,,,,,,,,,,,,,,,6,3.232000113,7,0.825000048,1,0,1200,841,1,1199,bathtub,11121,2019-10-22_09h03.28.172,SurveyExpMetaMem,3.2.3,Win32,60
,,,,,,,,,,,,,,,,,,,,7,3.434000015,3,1.085000277,1,0,1200,1022,1,1199,creepy,11121,2019-10-22_09h03.28.172,SurveyExpMetaMem,3.2.3,Win32,60
,,,,,,,,,,,,,,,,,,,,5,1.357000351,5,0.22900033,1,0,1200,656,1,1199,number,11121,2019-10-22_09h03.28.172,SurveyExpMetaMem,3.2.3,Win32,60
,,,,,,,,,,,,,,,,,,,,5,1.308000088,5,0.18900013,1,0,1200,24,1,1199,model,11121,2019-10-22_09h03.28.172,SurveyExpMetaMem,3.2.3,Win32,60
,,,,,,,,,,,,,,,,,,,,5,2.87100029,4,0.588000059,1,0,1200,455,1,1199,chubby,11121,2019-10-22_09h03.28.172,SurveyExpMetaMem,3.2.3,Win32,60
,,,,,,,,,,,,,,,,,,,,5,1.608000278,5,0.204000235,1,0,1200,794,1,1199,pray,11121,2019-10-22_09h03.28.172,SurveyExpMetaMem,3.2.3,Win32,60
,,,,,,,,,,,,,,,,,,,,5,1.25600028,5,0.228000164,1,0,1200,454,1,1199,damp,11121,2019-10-22_09h03.28.172,SurveyExpMetaMem,3.2.3,Win32,60
,,,,,,,,,,,,,,,,,,,,6,2.585000277,7,0.921000242,1,0,1200,259,1,1199,thin,11121,2019-10-22_09h03.28.172,SurveyExpMetaMem,3.2.3,Win32,60
,,,,,,,,,,,,,,,,,,,,5,2.652000189,5,0.222000122,1,0,1200,478,1,1199,numb,11121,2019-10-22_09h03.28.172,SurveyExpMetaMem,3.2.3,Win32,60
,,,,,,,,,,,,,,,,,,,,5,2.084000111,8,0.860000134,1,0,1200,792,1,1199,moral,11121,2019-10-22_09h03.28.172,SurveyExpMetaMem,3.2.3,Win32,60
,,,,,,,,,,,,,,,,,,,,5,1.864000082,7,0.613000154,1,0,1200,827,1,1199,saint,11121,2019-10-22_09h03.28.172,SurveyExpMetaMem,3.2.3,Win32,60
,,,,,,,,,,,,,,,,,,,,8,1.945000172,7,1.028000116,1,0,1200,28,1,1199,energy,11121,2019-10-22_09h03.28.172,SurveyExpMetaMem,3.2.3,Win32,60
,,,,,,,,,,,,,,,,,,,,7,3.221000195,8,1.180000305,1,0,1200,168,1,1199,mate,11121,2019-10-22_09h03.28.172,SurveyExpMetaMem,3.2.3,Win32,60
,,,,,,,,,,,,,,,,,,,,5,3.536000252,4,0.521000147,1,0,1200,1147,1,1199,demand,11121,2019-10-22_09h03.28.172,SurveyExpMetaMem,3.2.3,Win32,60
,,,,,,,,,,,,,,,,,,,,5,2.953000069,6,0.871999979,1,0,1200,616,1,1199,coat,11121,2019-10-22_09h03.28.172,SurveyExpMetaMem,3.2.3,Win32,60
,,,,,,,,,,,,,,,,,,,,5,3.061000109,3,5.987000227,1,0,1200,338,1,1199,obesity,11121,2019-10-22_09h03.28.172,SurveyExpMetaMem,3.2.3,Win32,60
,,,,,,,,,,,,,,,,,,,,5,21.0400002,4,2.164000273,1,0,1200,386,1,1199,pale,11121,2019-10-22_09h03.28.172,SurveyExpMetaMem,3.2.3,Win32,60
,,,,,,,,,,,,,,,,,,,,6,3.625000238,2,0.492000341,1,0,1200,971,1,1199,crash,11121,2019-10-22_09h03.28.172,SurveyExpMetaMem,3.2.3,Win32,60
,,,,,,,,,,,,,,,,,,,,5,2.92200017,5,3.904000282,1,0,1200,499,1,1199,stop,11121,2019-10-22_09h03.28.172,SurveyExpMetaMem,3.2.3,Win32,60
,,,,,,,,,,,,,,,,,,,,7,3.327000141,3,0.860000134,1,0,1200,1165,1,1199,revolt,11121,2019-10-22_09h03.28.172,SurveyExpMetaMem,3.2.3,Win32,60
,,,,,,,,,,,,,,,,,,,,5,2.892000198,5,2.362000227,1,0,1200,1053,1,1199,surgery,11121,2019-10-22_09h03.28.172,SurveyExpMetaMem,3.2.3,Win32,60
,,,,,,,,,,,,,,,,,,,,5,3.022000074,3,0.52300024,1,0,1200,320,1,1199,deformed,11121,2019-10-22_09h03.28.172,SurveyExpMetaMem,3.2.3,Win32,60
,,,,,,,,,,,,,,,,,,,,1,2.488000393,9,1.322000027,1,0,1200,891,1,1199,kind,11121,2019-10-22_09h03.28.172,SurveyExpMetaMem,3.2.3,Win32,60
,,,,,,,,,,,,,,,,,,,,7,2.586000204,3,2.59100008,1,0,1200,1048,1,1199,paranoid,11121,2019-10-22_09h03.28.172,SurveyExpMetaMem,3.2.3,Win32,60
,,,,,,,,,,,,,,,,,,,,2,4.851000309,7,1.326000214,1,0,1200,786,1,1199,afternoon,11121,2019-10-22_09h03.28.172,SurveyExpMetaMem,3.2.3,Win32,60
,,,,,,,,,,,,,,,,,,,,5,1.603000164,5,0.355000257,1,0,1200,426,1,1199,con,11121,2019-10-22_09h03.28.172,SurveyExpMetaMem,3.2.3,Win32,60
,,,,,,,,,,,,,,,,,,,,5,2.337000132,4,0.627000093,1,0,1200,1077,1,1199,unsure,11121,2019-10-22_09h03.28.172,SurveyExpMetaMem,3.2.3,Win32,60
,,,,,,,,,,,,,,,,,,,,3,2.479000092,8,1.414000034,1,0,1200,609,1,1199,candlestick,11121,2019-10-22_09h03.28.172,SurveyExpMetaMem,3.2.3,Win32,60
,,,,,,,,,,,,,,,,,,,,5,1.901000261,5,0.278000116,1,0,1200,434,1,1199,frail,11121,2019-10-22_09h03.28.172,SurveyExpMetaMem,3.2.3,Win32,60
,,,,,,,,,,,,,,,,,,,,5,3.339000225,5,1.462000132,1,0,1200,1093,1,1199,hive,11121,2019-10-22_09h03.28.172,SurveyExpMetaMem,3.2.3,Win32,60
,,,,,,,,,,,,,,,,,,,,7,2.418000221,3,1.440999985,1,0,1200,968,1,1199,insult,11121,2019-10-22_09h03.28.172,SurveyExpMetaMem,3.2.3,Win32,60
,,,,,,,,,,,,,,,,,,,,4,4.770000219,7,1.149000168,1,0,1200,615,1,1199,lad,11121,2019-10-22_09h03.28.172,SurveyExpMetaMem,3.2.3,Win32,60
,,,,,,,,,,,,,,,,,,,,4,4.48300004,5,1.712000132,1,0,1200,733,1,1199,poetry,11121,2019-10-22_09h03.28.172,SurveyExpMetaMem,3.2.3,Win32,60
,,,,,,,,,,,,,,,,,,,,5,2.035000086,2,0.676000118,1,0,1200,948,1,1199,pain,11121,2019-10-22_09h03.28.172,SurveyExpMetaMem,3.2.3,Win32,60
,,,,,,,,,,,,,,,,,,,,5,1.937000275,5,0.371999979,1,0,1200,500,1,1199,nosey,11121,2019-10-22_09h03.28.172,SurveyExpMetaMem,3.2.3,Win32,60
,,,,,,,,,,,,,,,,,,,,5,3.293000221,5,0.207000256,1,0,1200,448,1,1199,depart,11121,2019-10-22_09h03.28.172,SurveyExpMetaMem,3.2.3,Win32,60
,,,,,,,,,,,,,,,,,,,,7,2.302000046,3,1.855000257,1,0,1200,1151,1,1199,drama,11121,2019-10-22_09h03.28.172,SurveyExpMetaMem,3.2.3,Win32,60
,,,,,,,,,,,,,,,,,,,,5,1.725000143,2,0.625000238,1,0,1200,1167,1,1199,bribe,11121,2019-10-22_09h03.28.172,SurveyExpMetaMem,3.2.3,Win32,60
,,,,,,,,,,,,,,,,,,,,1,2.042000055,8,1.993000269,1,0,1200,883,1,1199,sky,11121,2019-10-22_09h03.28.172,SurveyExpMetaMem,3.2.3,Win32,60
,,,,,,,,,,,,,,,,,,,,5,2.039000273,4,1.320000172,1,0,1200,534,1,1199,rules,11121,2019-10-22_09h03.28.172,SurveyExpMetaMem,3.2.3,Win32,60
,,,,,,,,,,,,,,,,,,,,5,1.418000221,4,0.24600029,1,0,1200,1084,1,1199,uneasy,11121,2019-10-22_09h03.28.172,SurveyExpMetaMem,3.2.3,Win32,60
,,,,,,,,,,,,,,,,,,,,5,1.603000164,5,0.206000328,1,0,1200,771,1,1199,practical,11121,2019-10-22_09h03.28.172,SurveyExpMetaMem,3.2.3,Win32,60
,,,,,,,,,,,,,,,,,,,,5,2.493000031,5,0.203000069,1,0,1200,324,1,1199,inferiority,11121,2019-10-22_09h03.28.172,SurveyExpMetaMem,3.2.3,Win32,60
,,,,,,,,,,,,,,,,,,,,7,3.262000322,7,0.680000305,1,0,1200,239,1,1199,compassionate,11121,2019-10-22_09h03.28.172,SurveyExpMetaMem,3.2.3,Win32,60
,,,,,,,,,,,,,,,,,,,,5,3.035000086,5,0.400000095,1,0,1200,1146,1,1199,bug,11121,2019-10-22_09h03.28.172,SurveyExpMetaMem,3.2.3,Win32,60
,,,,,,,,,,,,,,,,,,,,5,1.379000187,5,0.254000187,1,0,1200,1092,1,1199,rattlesnake,11121,2019-10-22_09h03.28.172,SurveyExpMetaMem,3.2.3,Win32,60
,,,,,,,,,,,,,,,,,,,,5,2.576000214,2,0.896000147,1,0,1200,946,1,1199,amputate,11121,2019-10-22_09h03.28.172,SurveyExpMetaMem,3.2.3,Win32,60
,,,,,,,,,,,,,,,,,,,,7,4.864000082,6,1.756999969,1,0,1200,55,1,1199,rare,11121,2019-10-22_09h03.28.172,SurveyExpMetaMem,3.2.3,Win32,60
,,,,,,,,,,,,,,,,,,,,5,2.105000019,3,0.559000254,1,0,1200,516,1,1199,smug,11121,2019-10-22_09h03.28.172,SurveyExpMetaMem,3.2.3,Win32,60
,,,,,,,,,,,,,,,,,,,,5,1.563000202,5,0.209000111,1,0,1200,152,1,1199,hire,11121,2019-10-22_09h03.28.172,SurveyExpMetaMem,3.2.3,Win32,60
,,,,,,,,,,,,,,,,,,,,8,2.053000212,7,0.490000248,1,0,1200,114,1,1199,raise,11121,2019-10-22_09h03.28.172,SurveyExpMetaMem,3.2.3,Win32,60
,,,,,,,,,,,,,,,,,,,,5,3.802000046,7,0.528000116,1,0,1200,822,1,1199,clearer,11121,2019-10-22_09h03.28.172,SurveyExpMetaMem,3.2.3,Win32,60
,,,,,,,,,,,,,,,,,,,,5,2.832000256,3,1.054000139,1,0,1200,951,1,1199,castrate,11121,2019-10-22_09h03.28.172,SurveyExpMetaMem,3.2.3,Win32,60
,,,,,,,,,,,,,,,,,,,,5,1.278000116,5,0.225000143,1,0,1200,590,1,1199,stool,11121,2019-10-22_09h03.28.172,SurveyExpMetaMem,3.2.3,Win32,60
,,,,,,,,,,,,,,,,,,,,5,1.070000172,5,0.199000359,1,0,1200,485,1,1199,pinch,11121,2019-10-22_09h03.28.172,SurveyExpMetaMem,3.2.3,Win32,60
,,,,,,,,,,,,,,,,,,,,9,3.152000189,6,1.78000021,1,0,1200,870,1,1199,safe,11121,2019-10-22_09h03.28.172,SurveyExpMetaMem,3.2.3,Win32,60
,,,,,,,,,,,,,,,,,,,,6,2.916000128,3,0.98900032,1,0,1200,1085,1,1199,sever,11121,2019-10-22_09h03.28.172,SurveyExpMetaMem,3.2.3,Win32,60
,,,,,,,,,,,,,,,,,,,,5,1.653000116,5,0.191000223,1,0,1200,370,1,1199,rodent,11121,2019-10-22_09h03.28.172,SurveyExpMetaMem,3.2.3,Win32,60
,,,,,,,,,,,,,,,,,,,,5,2.243000031,5,0.179000139,1,0,1200,749,1,1199,glasses,11121,2019-10-22_09h03.28.172,SurveyExpMetaMem,3.2.3,Win32,60
,,,,,,,,,,,,,,,,,,,,7,2.354000092,3,2.298000336,1,0,1200,1103,1,1199,mob,11121,2019-10-22_09h03.28.172,SurveyExpMetaMem,3.2.3,Win32,60
,,,,,,,,,,,,,,,,,,,,5,3,5,0.209000111,1,0,1200,584,1,1199,anus,11121,2019-10-22_09h03.28.172,SurveyExpMetaMem,3.2.3,Win32,60
,,,,,,,,,,,,,,,,,,,,5,1.702000141,5,0.196000338,1,0,1200,504,1,1199,cane,11121,2019-10-22_09h03.28.172,SurveyExpMetaMem,3.2.3,Win32,60
,,,,,,,,,,,,,,,,,,,,5,2.220000267,6,0.537000179,1,0,1200,848,1,1199,graceful,11121,2019-10-22_09h03.28.172,SurveyExpMetaMem,3.2.3,Win32,60
,,,,,,,,,,,,,,,,,,,,5,11.21600008,5,1.272000313,1,0,1200,518,1,1199,report,11121,2019-10-22_09h03.28.172,SurveyExpMetaMem,3.2.3,Win32,60
,,,,,,,,,,,,,,,,,,,,7,1.668000221,6,1.329000235,1,0,1200,289,1,1199,concert,11121,2019-10-22_09h03.28.172,SurveyExpMetaMem,3.2.3,Win32,60
,,,,,,,,,,,,,,,,,,,,2,2.387000084,8,1.130000353,1,0,1200,875,1,1199,fluffy,11121,2019-10-22_09h03.28.172,SurveyExpMetaMem,3.2.3,Win32,60
,,,,,,,,,,,,,,,,,,,,5,1.739000082,5,1.241000175,1,0,1200,550,1,1199,fart,11121,2019-10-22_09h03.28.172,SurveyExpMetaMem,3.2.3,Win32,60
,,,,,,,,,,,,,,,,,,,,5,2.095000267,5,0.274000168,1,0,1200,662,1,1199,bib,11121,2019-10-22_09h03.28.172,SurveyExpMetaMem,3.2.3,Win32,60
,,,,,,,,,,,,,,,,,,,,5,3.714000225,6,1.241000175,1,0,1200,1013,1,1199,guilty,11121,2019-10-22_09h03.28.172,SurveyExpMetaMem,3.2.3,Win32,60
,,,,,,,,,,,,,,,,,,,,1,2.903000116,7,1.650000095,1,0,1200,678,1,1199,lightbulb,11121,2019-10-22_09h03.28.172,SurveyExpMetaMem,3.2.3,Win32,60
,,,,,,,,,,,,,,,,,,,,1,1.877000093,9,0.642000198,1,0,1200,706,1,1199,cat,11121,2019-10-22_09h03.28.172,SurveyExpMetaMem,3.2.3,Win32,60
,,,,,,,,,,,,,,,,,,,,5,3.203000069,5,0.269999981,1,0,1200,1187,1,1199,drill,11121,2019-10-22_09h03.28.172,SurveyExpMetaMem,3.2.3,Win32,60
,,,,,,,,,,,,,,,,,,,,6,2.619000196,6,1.368000031,1,0,1200,204,1,1199,crazy,11121,2019-10-22_09h03.28.172,SurveyExpMetaMem,3.2.3,Win32,60
,,,,,,,,,,,,,,,,,,,,5,1.220999956,5,0.240000248,1,0,1200,830,1,1199,pear,11121,2019-10-22_09h03.28.172,SurveyExpMetaMem,3.2.3,Win32,60
,,,,,,,,,,,,,,,,,,,,5,2.213999987,4,1.367000103,1,0,1200,1059,1,1199,harsh,11121,2019-10-22_09h03.28.172,SurveyExpMetaMem,3.2.3,Win32,60
,,,,,,,,,,,,,,,,,,,,5,2.266000271,2,0.657000065,1,0,1200,929,1,1199,mutilation,11121,2019-10-22_09h03.28.172,SurveyExpMetaMem,3.2.3,Win32,60
,,,,,,,,,,,,,,,,,,,,5,1.997000217,5,0.237000227,1,0,1200,437,1,1199,blubber,11121,2019-10-22_09h03.28.172,SurveyExpMetaMem,3.2.3,Win32,60
,,,,,,,,,,,,,,,,,,,,2,4.170000315,5,0.708000183,1,0,1200,688,1,1199,jelly,11121,2019-10-22_09h03.28.172,SurveyExpMetaMem,3.2.3,Win32,60
,,,,,,,,,,,,,,,,,,,,2,3.196000099,8,1.086000204,1,0,1200,803,1,1199,tidy,11121,2019-10-22_09h03.28.172,SurveyExpMetaMem,3.2.3,Win32,60
,,,,,,,,,,,,,,,,,,,,5,2.832000256,3,1.386000156,1,0,1200,341,1,1199,stinky,11121,2019-10-22_09h03.28.172,SurveyExpMetaMem,3.2.3,Win32,60
,,,,,,,,,,,,,,,,,,,,7,2.986000299,2,1.911999941,1,0,1200,1102,1,1199,nuclear,11121,2019-10-22_09h03.28.172,SurveyExpMetaMem,3.2.3,Win32,60
,,,,,,,,,,,,,,,,,,,,1,3.976999998,9,0.937000036,1,0,1200,857,1,1199,thankful,11121,2019-10-22_09h03.28.172,SurveyExpMetaMem,3.2.3,Win32,60
,,,,,,,,,,,,,,,,,,,,5,2.847000122,1,0.759000301,1,0,1200,302,1,1199,loneliness,11121,2019-10-22_09h03.28.172,SurveyExpMetaMem,3.2.3,Win32,60
,,,,,,,,,,,,,,,,,,,,6,2.188000202,2,2.455000162,1,0,1200,923,1,1199,punish,11121,2019-10-22_09h03.28.172,SurveyExpMetaMem,3.2.3,Win32,60
,,,,,,,,,,,,,,,,,,,,5,2.503000021,6,1.951000214,1,0,1200,586,1,1199,cab,11121,2019-10-22_09h03.28.172,SurveyExpMetaMem,3.2.3,Win32,60
,,,,,,,,,,,,,,,,,,,,5,2.075000286,4,0.499000311,1,0,1200,309,1,1199,homeless,11121,2019-10-22_09h03.28.172,SurveyExpMetaMem,3.2.3,Win32,60
,,,,,,,,,,,,,,,,,,,,8,2.521000147,8,0.823000193,1,0,1200,180,1,1199,embrace,11121,2019-10-22_09h03.28.172,SurveyExpMetaMem,3.2.3,Win32,60
,,,,,,,,,,,,,,,,,,,,5,2.447000265,5,1.007000208,1,0,1200,452,1,1199,scapegoat,11121,2019-10-22_09h03.28.172,SurveyExpMetaMem,3.2.3,Win32,60
,,,,,,,,,,,,,,,,,,,,5,2.075999975,5,1.140000105,1,0,1200,809,1,1199,boy,11121,2019-10-22_09h03.28.172,SurveyExpMetaMem,3.2.3,Win32,60
,,,,,,,,,,,,,,,,,,,,1,2.335000038,6,1.923000336,1,0,1200,76,1,1199,midnight,11121,2019-10-22_09h03.28.172,SurveyExpMetaMem,3.2.3,Win32,60
,,,,,,,,,,,,,,,,,,,,7,2.270000219,4,0.739000082,1,0,1200,1139,1,1199,scare,11121,2019-10-22_09h03.28.172,SurveyExpMetaMem,3.2.3,Win32,60
,,,,,,,,,,,,,,,,,,,,5,2.025000334,1,0.838999987,1,0,1200,1143,1,1199,arrogant,11121,2019-10-22_09h03.28.172,SurveyExpMetaMem,3.2.3,Win32,60
,,,,,,,,,,,,,,,,,,,,5,2.446000099,5,0.523000002,1,0,1200,428,1,1199,end,11121,2019-10-22_09h03.28.172,SurveyExpMetaMem,3.2.3,Win32,60
,,,,,,,,,,,,,,,,,,,,1,2.101999998,9,1.356000185,1,0,1200,897,1,1199,peaceful,11121,2019-10-22_09h03.28.172,SurveyExpMetaMem,3.2.3,Win32,60
,,,,,,,,,,,,,,,,,,,,5,2.345000267,4,0.95600009,1,0,1200,392,1,1199,moody,11121,2019-10-22_09h03.28.172,SurveyExpMetaMem,3.2.3,Win32,60
,,,,,,,,,,,,,,,,,,,,6,4.240000248,4,2.590000153,1,0,1200,347,1,1199,unpleasant,11121,2019-10-22_09h03.28.172,SurveyExpMetaMem,3.2.3,Win32,60
,,,,,,,,,,,,,,,,,,,,3,3.827000141,7,1.890000105,1,0,1200,71,1,1199,spirit,11121,2019-10-22_09h03.28.172,SurveyExpMetaMem,3.2.3,Win32,60
,,,,,,,,,,,,,,,,,,,,2,3.688000202,6,1.822000027,1,0,1200,4,1,1199,night,11121,2019-10-22_09h03.28.172,SurveyExpMetaMem,3.2.3,Win32,60
,,,,,,,,,,,,,,,,,,,,7,1.759000301,8,0.603000164,1,0,1200,852,1,1199,caring,11121,2019-10-22_09h03.28.172,SurveyExpMetaMem,3.2.3,Win32,60
,,,,,,,,,,,,,,,,,,,,5,1.016000271,5,0.190000296,1,0,1200,736,1,1199,hawk,11121,2019-10-22_09h03.28.172,SurveyExpMetaMem,3.2.3,Win32,60
,,,,,,,,,,,,,,,,,,,,3,3.170000076,6,1.190000057,1,0,1200,720,1,1199,stable,11121,2019-10-22_09h03.28.172,SurveyExpMetaMem,3.2.3,Win32,60
,,,,,,,,,,,,,,,,,,,,5,2.537000179,2,0.626000166,1,0,1200,315,1,1199,zit,11121,2019-10-22_09h03.28.172,SurveyExpMetaMem,3.2.3,Win32,60
,,,,,,,,,,,,,,,,,,,,1,1.805000305,9,1.075000048,1,0,1200,84,1,1199,eat,11121,2019-10-22_09h03.28.172,SurveyExpMetaMem,3.2.3,Win32,60
,,,,,,,,,,,,,,,,,,,,1,2.854000092,9,0.607000351,1,0,1200,277,1,1199,cupcake,11121,2019-10-22_09h03.28.172,SurveyExpMetaMem,3.2.3,Win32,60
,,,,,,,,,,,,,,,,,,,,2,3.978000164,8,0.590000391,1,0,1200,220,1,1199,reef,11121,2019-10-22_09h03.28.172,SurveyExpMetaMem,3.2.3,Win32,60
,,,,,,,,,,,,,,,,,,,,7,2.750000238,4,0.861000061,1,0,1200,1178,1,1199,weight,11121,2019-10-22_09h03.28.172,SurveyExpMetaMem,3.2.3,Win32,60
,,,,,,,,,,,,,,,,,,,,5,2.512000322,5,0.230000019,1,0,1200,540,1,1199,derelict,11121,2019-10-22_09h03.28.172,SurveyExpMetaMem,3.2.3,Win32,60
,,,,,,,,,,,,,,,,,,,,7,3.272000313,5,1.499000311,1,0,1200,1176,1,1199,vampire,11121,2019-10-22_09h03.28.172,SurveyExpMetaMem,3.2.3,Win32,60
,,,,,,,,,,,,,,,,,,,,8,3.044000149,8,0.976000071,1,0,1200,74,1,1199,explore,11121,2019-10-22_09h03.28.172,SurveyExpMetaMem,3.2.3,Win32,60
,,,,,,,,,,,,,,,,,,,,1,1.61500001,7,1.671000242,1,0,1200,664,1,1199,quiet,11121,2019-10-22_09h03.28.172,SurveyExpMetaMem,3.2.3,Win32,60
,,,,,,,,,,,,,,,,,,,,5,1.401000261,5,0.345000029,1,0,1200,548,1,1199,vague,11121,2019-10-22_09h03.28.172,SurveyExpMetaMem,3.2.3,Win32,60
,,,,,,,,,,,,,,,,,,,,5,1.231000185,5,0.240000248,1,0,1200,321,1,1199,wart,11121,2019-10-22_09h03.28.172,SurveyExpMetaMem,3.2.3,Win32,60
,,,,,,,,,,,,,,,,,,,,5,1.637000084,2,1.126000166,1,0,1200,344,1,1199,pessimistic,11121,2019-10-22_09h03.28.172,SurveyExpMetaMem,3.2.3,Win32,60
,,,,,,,,,,,,,,,,,,,,8,1.976999998,7,1.375,1,0,1200,15,1,1199,curiosity,11121,2019-10-22_09h03.28.172,SurveyExpMetaMem,3.2.3,Win32,60
,,,,,,,,,,,,,,,,,,,,8,1.539000034,7,0.35400033,1,0,1200,105,1,1199,curious,11121,2019-10-22_09h03.28.172,SurveyExpMetaMem,3.2.3,Win32,60
,,,,,,,,,,,,,,,,,,,,5,1.803000212,5,0.42200017,1,0,1200,621,1,1199,chew,11121,2019-10-22_09h03.28.172,SurveyExpMetaMem,3.2.3,Win32,60
,,,,,,,,,,,,,,,,,,,,5,1.63800025,4,1.195000172,1,0,1200,335,1,1199,decay,11121,2019-10-22_09h03.28.172,SurveyExpMetaMem,3.2.3,Win32,60
,,,,,,,,,,,,,,,,,,,,5,1.469000101,5,0.18200016,1,0,1200,1185,1,1199,shotgun,11121,2019-10-22_09h03.28.172,SurveyExpMetaMem,3.2.3,Win32,60
,,,,,,,,,,,,,,,,,,,,4,4.924999952,7,1.141000032,1,0,1200,228,1,1199,suite,11121,2019-10-22_09h03.28.172,SurveyExpMetaMem,3.2.3,Win32,60
,,,,,,,,,,,,,,,,,,,,5,2.473000288,4,0.684000015,1,0,1200,402,1,1199,dismissive,11121,2019-10-22_09h03.28.172,SurveyExpMetaMem,3.2.3,Win32,60
,,,,,,,,,,,,,,,,,,,,5,1.626000166,5,0.197999954,1,0,1200,469,1,1199,resent,11121,2019-10-22_09h03.28.172,SurveyExpMetaMem,3.2.3,Win32,60
,,,,,,,,,,,,,,,,,,,,5,1.90500021,8,0.63800025,1,0,1200,708,1,1199,nursery,11121,2019-10-22_09h03.28.172,SurveyExpMetaMem,3.2.3,Win32,60
,,,,,,,,,,,,,,,,,,,,7,2.236000061,4,1.131000042,1,0,1200,1157,1,1199,slayer,11121,2019-10-22_09h03.28.172,SurveyExpMetaMem,3.2.3,Win32,60
,,,,,,,,,,,,,,,,,,,,5,3.137000322,3,1.133000135,1,0,1200,521,1,1199,laundry,11121,2019-10-22_09h03.28.172,SurveyExpMetaMem,3.2.3,Win32,60
,,,,,,,,,,,,,,,,,,,,5,1.804000139,5,0.22300005,1,0,1200,380,1,1199,expire,11121,2019-10-22_09h03.28.172,SurveyExpMetaMem,3.2.3,Win32,60
,,,,,,,,,,,,,,,,,,,,8,2.270000219,8,0.592000246,1,0,1200,23,1,1199,earn,11121,2019-10-22_09h03.28.172,SurveyExpMetaMem,3.2.3,Win32,60
,,,,,,,,,,,,,,,,,,,,1,2.024000168,8,0.936000109,1,0,1200,821,1,1199,cottage,11121,2019-10-22_09h03.28.172,SurveyExpMetaMem,3.2.3,Win32,60
,,,,,,,,,,,,,,,,,,,,5,2.147000074,3,0.500000238,1,0,1200,371,1,1199,weakness,11121,2019-10-22_09h03.28.172,SurveyExpMetaMem,3.2.3,Win32,60
,,,,,,,,,,,,,,,,,,,,5,2.051000118,5,0.153000116,1,0,1200,626,1,1199,pan,11121,2019-10-22_09h03.28.172,SurveyExpMetaMem,3.2.3,Win32,60
,,,,,,,,,,,,,,,,,,,,8,1.907000065,8,1.584000111,1,0,1200,141,1,1199,surprise,11121,2019-10-22_09h03.28.172,SurveyExpMetaMem,3.2.3,Win32,60
,,,,,,,,,,,,,,,,,,,,5,1.713000059,5,0.192000151,1,0,1200,661,1,1199,cow,11121,2019-10-22_09h03.28.172,SurveyExpMetaMem,3.2.3,Win32,60
,,,,,,,,,,,,,,,,,,,,4,3.304000139,6,1.105000257,1,0,1200,85,1,1199,like,11121,2019-10-22_09h03.28.172,SurveyExpMetaMem,3.2.3,Win32,60
,,,,,,,,,,,,,,,,,,,,2,2.038000107,8,1.023000002,1,0,1200,787,1,1199,dawn,11121,2019-10-22_09h03.28.172,SurveyExpMetaMem,3.2.3,Win32,60
,,,,,,,,,,,,,,,,,,,,5,2.238000154,3,1.937999964,1,0,1200,1116,1,1199,emergency,11121,2019-10-22_09h03.28.172,SurveyExpMetaMem,3.2.3,Win32,60
,,,,,,,,,,,,,,,,,,,,5,2.130000114,2,0.855000257,1,0,1200,369,1,1199,blind,11121,2019-10-22_09h03.28.172,SurveyExpMetaMem,3.2.3,Win32,60
,,,,,,,,,,,,,,,,,,,,6,3.088000059,7,1.039000273,1,0,1200,127,1,1199,glamorous,11121,2019-10-22_09h03.28.172,SurveyExpMetaMem,3.2.3,Win32,60
,,,,,,,,,,,,,,,,,,,,8,1.836000204,8,3.40500021,1,0,1200,182,1,1199,genius,11121,2019-10-22_09h03.28.172,SurveyExpMetaMem,3.2.3,Win32,60
,,,,,,,,,,,,,,,,,,,,5,3.903000116,6,1.382000208,1,0,1200,230,1,1199,eager,11121,2019-10-22_09h03.28.172,SurveyExpMetaMem,3.2.3,Win32,60
,,,,,,,,,,,,,,,,,,,,1,1.595000267,8,1.482000351,1,0,1200,865,1,1199,bliss,11121,2019-10-22_09h03.28.172,SurveyExpMetaMem,3.2.3,Win32,60
,,,,,,,,,,,,,,,,,,,,5,1.594000101,5,0.203999996,1,0,1200,645,1,1199,telescope,11121,2019-10-22_09h03.28.172,SurveyExpMetaMem,3.2.3,Win32,60
,,,,,,,,,,,,,,,,,,,,5,1.291000128,5,0.178000212,1,0,1200,716,1,1199,blouse,11121,2019-10-22_09h03.28.172,SurveyExpMetaMem,3.2.3,Win32,60
,,,,,,,,,,,,,,,,,,,,5,0.881999969,5,0.193000317,1,0,1200,611,1,1199,herring,11121,2019-10-22_09h03.28.172,SurveyExpMetaMem,3.2.3,Win32,60
,,,,,,,,,,,,,,,,,,,,5,2.574000359,4,0.456000328,1,0,1200,999,1,1199,burdened,11121,2019-10-22_09h03.28.172,SurveyExpMetaMem,3.2.3,Win32,60
,,,,,,,,,,,,,,,,,,,,5,1.110000134,5,0.210000038,1,0,1200,765,1,1199,candid,11121,2019-10-22_09h03.28.172,SurveyExpMetaMem,3.2.3,Win32,60
,,,,,,,,,,,,,,,,,,,,6,3.054000139,3,1.218000174,1,0,1200,1023,1,1199,disorder,11121,2019-10-22_09h03.28.172,SurveyExpMetaMem,3.2.3,Win32,60
,,,,,,,,,,,,,,,,,,,,8,2.275000334,8,1.793000221,1,0,1200,54,1,1199,alcohol,11121,2019-10-22_09h03.28.172,SurveyExpMetaMem,3.2.3,Win32,60
,,,,,,,,,,,,,,,,,,,,5,2.634000063,4,1.042999983,1,0,1200,1140,1,1199,blood,11121,2019-10-22_09h03.28.172,SurveyExpMetaMem,3.2.3,Win32,60
,,,,,,,,,,,,,,,,,,,,6,2.775000095,7,0.861000299,1,0,1200,221,1,1199,sparkle,11121,2019-10-22_09h03.28.172,SurveyExpMetaMem,3.2.3,Win32,60
,,,,,,,,,,,,,,,,,,,,4,2.607000113,3,2.825000048,1,0,1200,552,1,1199,shadow,11121,2019-10-22_09h03.28.172,SurveyExpMetaMem,3.2.3,Win32,60
,,,,,,,,,,,,,,,,,,,,5,1.293000221,5,0.188000202,1,0,1200,807,1,1199,person,11121,2019-10-22_09h03.28.172,SurveyExpMetaMem,3.2.3,Win32,60
,,,,,,,,,,,,,,,,,,,,5,1.261000156,5,0.224000216,1,0,1200,538,1,1199,crumbs,11121,2019-10-22_09h03.28.172,SurveyExpMetaMem,3.2.3,Win32,60
,,,,,,,,,,,,,,,,,,,,7,1.676000118,8,0.846000195,1,0,1200,873,1,1199,useful,11121,2019-10-22_09h03.28.172,SurveyExpMetaMem,3.2.3,Win32,60
,,,,,,,,,,,,,,,,,,,,8,2.959000349,7,0.681000233,1,0,1200,25,1,1199,charisma,11121,2019-10-22_09h03.28.172,SurveyExpMetaMem,3.2.3,Win32,60
,,,,,,,,,,,,,,,,,,,,5,1.486000061,5,0.180000067,1,0,1200,601,1,1199,roof,11121,2019-10-22_09h03.28.172,SurveyExpMetaMem,3.2.3,Win32,60
,,,,,,,,,,,,,,,,,,,,5,1.102000237,5,0.197000027,1,0,1200,429,1,1199,cough,11121,2019-10-22_09h03.28.172,SurveyExpMetaMem,3.2.3,Win32,60
,,,,,,,,,,,,,,,,,,,,5,1.070000172,5,0.201000214,1,0,1200,487,1,1199,junk,11121,2019-10-22_09h03.28.172,SurveyExpMetaMem,3.2.3,Win32,60
,,,,,,,,,,,,,,,,,,,,5,2.823000193,5,0.18900013,1,0,1200,568,1,1199,therapy,11121,2019-10-22_09h03.28.172,SurveyExpMetaMem,3.2.3,Win32,60
,,,,,,,,,,,,,,,,,,,,6,2.342000246,3,0.774000168,1,0,1200,1104,1,1199,avalanche,11121,2019-10-22_09h03.28.172,SurveyExpMetaMem,3.2.3,Win32,60
,,,,,,,,,,,,,,,,,,,,2,2.443000078,7,1.303000212,1,0,1200,35,1,1199,bright,11121,2019-10-22_09h03.28.172,SurveyExpMetaMem,3.2.3,Win32,60
,,,,,,,,,,,,,,,,,,,,5,1.128000259,5,0.174000263,1,0,1200,1124,1,1199,seize,11121,2019-10-22_09h03.28.172,SurveyExpMetaMem,3.2.3,Win32,60
,,,,,,,,,,,,,,,,,,,,5,1.137000084,5,0.176000118,1,0,1200,529,1,1199,small,11121,2019-10-22_09h03.28.172,SurveyExpMetaMem,3.2.3,Win32,60
,,,,,,,,,,,,,,,,,,,,7,3.33100009,8,0.515000105,1,0,1200,687,1,1199,skinny,11121,2019-10-22_09h03.28.172,SurveyExpMetaMem,3.2.3,Win32,60
,,,,,,,,,,,,,,,,,,,,7,5.037000179,3,1.029000044,1,0,1200,483,1,1199,condescension,11121,2019-10-22_09h03.28.172,SurveyExpMetaMem,3.2.3,Win32,60
,,,,,,,,,,,,,,,,,,,,5,1.9150002,5,0.181000233,1,0,1200,694,1,1199,pecan,11121,2019-10-22_09h03.28.172,SurveyExpMetaMem,3.2.3,Win32,60
,,,,,,,,,,,,,,,,,,,,5,2.185000181,6,0.674000025,1,0,1200,799,1,1199,precise,11121,2019-10-22_09h03.28.172,SurveyExpMetaMem,3.2.3,Win32,60
,,,,,,,,,,,,,,,,,,,,5,1.61400032,5,0.17200017,1,0,1200,562,1,1199,average,11121,2019-10-22_09h03.28.172,SurveyExpMetaMem,3.2.3,Win32,60
,,,,,,,,,,,,,,,,,,,,5,1.028000116,5,0.18900013,1,0,1200,812,1,1199,harp,11121,2019-10-22_09h03.28.172,SurveyExpMetaMem,3.2.3,Win32,60
,,,,,,,,,,,,,,,,,,,,5,2.174000263,2,0.65500021,1,0,1200,404,1,1199,nuisance,11121,2019-10-22_09h03.28.172,SurveyExpMetaMem,3.2.3,Win32,60
,,,,,,,,,,,,,,,,,,,,5,1.375000238,5,0.204000235,1,0,1200,695,1,1199,teacher,11121,2019-10-22_09h03.28.172,SurveyExpMetaMem,3.2.3,Win32,60
,,,,,,,,,,,,,,,,,,,,5,2.499000311,5,0.207000017,1,0,1200,1006,1,1199,rash,11121,2019-10-22_09h03.28.172,SurveyExpMetaMem,3.2.3,Win32,60
,,,,,,,,,,,,,,,,,,,,5,3.207000256,5,1.775000095,1,0,1200,355,1,1199,graveyard,11121,2019-10-22_09h03.28.172,SurveyExpMetaMem,3.2.3,Win32,60
,,,,,,,,,,,,,,,,,,,,5,2.062999964,5,0.226000309,1,0,1200,502,1,1199,crap,11121,2019-10-22_09h03.28.172,SurveyExpMetaMem,3.2.3,Win32,60
,,,,,,,,,,,,,,,,,,,,6,3.595000029,3,1.055999994,1,0,1200,997,1,1199,injury,11121,2019-10-22_09h03.28.172,SurveyExpMetaMem,3.2.3,Win32,60
,,,,,,,,,,,,,,,,,,,,5,1.170000315,5,0.158000231,1,0,1200,283,1,1199,elated,11121,2019-10-22_09h03.28.172,SurveyExpMetaMem,3.2.3,Win32,60
,,,,,,,,,,,,,,,,,,,,5,1.428000212,5,0.195000172,1,0,1200,418,1,1199,cheapskate,11121,2019-10-22_09h03.28.172,SurveyExpMetaMem,3.2.3,Win32,60
,,,,,,,,,,,,,,,,,,,,5,1.650000095,4,1.034000158,1,0,1200,492,1,1199,naive,11121,2019-10-22_09h03.28.172,SurveyExpMetaMem,3.2.3,Win32,60
,,,,,,,,,,,,,,,,,,,,5,2.866000175,5,0.159000158,1,0,1200,342,1,1199,alienation,11121,2019-10-22_09h03.28.172,SurveyExpMetaMem,3.2.3,Win32,60
,,,,,,,,,,,,,,,,,,,,5,1.072000265,5,0.203000069,1,0,1200,572,1,1199,cast,11121,2019-10-22_09h03.28.172,SurveyExpMetaMem,3.2.3,Win32,60
,,,,,,,,,,,,,,,,,,,,8,5.554000139,7,0.590000391,1,0,1200,170,1,1199,entertainment,11121,2019-10-22_09h03.28.172,SurveyExpMetaMem,3.2.3,Win32,60
,,,,,,,,,,,,,,,,,,,,5,1.622000217,5,0.174000263,1,0,1200,714,1,1199,courtyard,11121,2019-10-22_09h03.28.172,SurveyExpMetaMem,3.2.3,Win32,60
,,,,,,,,,,,,,,,,,,,,5,3.187999964,4,1.713000298,1,0,1200,583,1,1199,obey,11121,2019-10-22_09h03.28.172,SurveyExpMetaMem,3.2.3,Win32,60
,,,,,,,,,,,,,,,,,,,,5,3.201000214,3,0.854000092,1,0,1200,353,1,1199,blister,11121,2019-10-22_09h03.28.172,SurveyExpMetaMem,3.2.3,Win32,60
,,,,,,,,,,,,,,,,,,,,7,1.829000235,2,1.47900033,1,0,1200,950,1,1199,murder,11121,2019-10-22_09h03.28.172,SurveyExpMetaMem,3.2.3,Win32,60
,,,,,,,,,,,,,,,,,,,,5,3.186000109,5,0.185000181,1,0,1200,490,1,1199,detached,11121,2019-10-22_09h03.28.172,SurveyExpMetaMem,3.2.3,Win32,60
,,,,,,,,,,,,,,,,,,,,5,2.804000139,4,1.275000095,1,0,1200,1119,1,1199,confusion,11121,2019-10-22_09h03.28.172,SurveyExpMetaMem,3.2.3,Win32,60
,,,,,,,,,,,,,,,,,,,,5,2.254000187,8,0.532000303,1,0,1200,188,1,1199,profit,11121,2019-10-22_09h03.28.172,SurveyExpMetaMem,3.2.3,Win32,60
,,,,,,,,,,,,,,,,,,,,5,2.869000196,6,1.331000328,1,0,1200,258,1,1199,children,11121,2019-10-22_09h03.28.172,SurveyExpMetaMem,3.2.3,Win32,60
,,,,,,,,,,,,,,,,,,,,5,1.713000059,5,0.188000202,1,0,1200,209,1,1199,husband,11121,2019-10-22_09h03.28.172,SurveyExpMetaMem,3.2.3,Win32,60
,,,,,,,,,,,,,,,,,,,,2,2.32400012,7,3.413000345,1,0,1200,887,1,1199,elegant,11121,2019-10-22_09h03.28.172,SurveyExpMetaMem,3.2.3,Win32,60
,,,,,,,,,,,,,,,,,,,,5,2.385000229,5,0.187000036,1,0,1200,605,1,1199,year,11121,2019-10-22_09h03.28.172,SurveyExpMetaMem,3.2.3,Win32,60
,,,,,,,,,,,,,,,,,,,,5,3.722000122,6,0.821000099,1,0,1200,712,1,1199,harvest,11121,2019-10-22_09h03.28.172,SurveyExpMetaMem,3.2.3,Win32,60
,,,,,,,,,,,,,,,,,,,,6,2.63800025,7,0.59100008,1,0,1200,672,1,1199,ketchup,11121,2019-10-22_09h03.28.172,SurveyExpMetaMem,3.2.3,Win32,60
,,,,,,,,,,,,,,,,,,,,5,1.359000206,5,0.18900013,1,0,1200,575,1,1199,paragraph,11121,2019-10-22_09h03.28.172,SurveyExpMetaMem,3.2.3,Win32,60
,,,,,,,,,,,,,,,,,,,,5,0.909000158,5,0.196000099,1,0,1200,461,1,1199,ail,11121,2019-10-22_09h03.28.172,SurveyExpMetaMem,3.2.3,Win32,60
,,,,,,,,,,,,,,,,,,,,5,1.046000242,5,0.192000151,1,0,1200,691,1,1199,circle,11121,2019-10-22_09h03.28.172,SurveyExpMetaMem,3.2.3,Win32,60
,,,,,,,,,,,,,,,,,,,,5,2.003000259,3,0.80700016,1,0,1200,381,1,1199,sloppy,11121,2019-10-22_09h03.28.172,SurveyExpMetaMem,3.2.3,Win32,60
,,,,,,,,,,,,,,,,,,,,6,3.116000175,5,2.139000177,1,0,1200,1195,1,1199,speech,11121,2019-10-22_09h03.28.172,SurveyExpMetaMem,3.2.3,Win32,60
,,,,,,,,,,,,,,,,,,,,5,1.522000074,5,0.190000296,1,0,1200,356,1,1199,mucous,11121,2019-10-22_09h03.28.172,SurveyExpMetaMem,3.2.3,Win32,60
,,,,,,,,,,,,,,,,,,,,5,1.81400013,2,0.828000307,1,0,1200,980,1,1199,liar,11121,2019-10-22_09h03.28.172,SurveyExpMetaMem,3.2.3,Win32,60
,,,,,,,,,,,,,,,,,,,,5,1.304000139,5,0.157999992,1,0,1200,41,1,1199,progress,11121,2019-10-22_09h03.28.172,SurveyExpMetaMem,3.2.3,Win32,60
,,,,,,,,,,,,,,,,,,,,5,0.957000017,5,0.162000179,1,0,1200,520,1,1199,gullible,11121,2019-10-22_09h03.28.172,SurveyExpMetaMem,3.2.3,Win32,60
,,,,,,,,,,,,,,,,,,,,7,3.051000118,3,1.145000219,1,0,1200,1166,1,1199,compulsive,11121,2019-10-22_09h03.28.172,SurveyExpMetaMem,3.2.3,Win32,60
,,,,,,,,,,,,,,,,,,,,6,3.313000202,7,0.31400013,1,0,1200,122,1,1199,prince,11121,2019-10-22_09h03.28.172,SurveyExpMetaMem,3.2.3,Win32,60
,,,,,,,,,,,,,,,,,,,,5,1.250000238,5,0.136000156,1,0,1200,544,1,1199,snail,11121,2019-10-22_09h03.28.172,SurveyExpMetaMem,3.2.3,Win32,60
,,,,,,,,,,,,,,,,,,,,8,2.429000378,8,2.054000378,1,0,1200,134,1,1199,dollar,11121,2019-10-22_09h03.28.172,SurveyExpMetaMem,3.2.3,Win32,60
,,,,,,,,,,,,,,,,,,,,1,2.470000029,8,1.210000038,1,0,1200,715,1,1199,sheltered,11121,2019-10-22_09h03.28.172,SurveyExpMetaMem,3.2.3,Win32,60
,,,,,,,,,,,,,,,,,,,,1,1.269000053,7,1.388000011,1,0,1200,808,1,1199,violinist,11121,2019-10-22_09h03.28.172,SurveyExpMetaMem,3.2.3,Win32,60
,,,,,,,,,,,,,,,,,,,,5,1.490000248,5,0.161000252,1,0,1200,444,1,1199,mold,11121,2019-10-22_09h03.28.172,SurveyExpMetaMem,3.2.3,Win32,60
,,,,,,,,,,,,,,,,,,,,7,2.308000326,8,1.775000095,1,0,1200,288,1,1199,tasty,11121,2019-10-22_09h03.28.172,SurveyExpMetaMem,3.2.3,Win32,60
,,,,,,,,,,,,,,,,,,,,9,1.613000393,9,0.724000216,1,0,1200,281,1,1199,summer,11121,2019-10-22_09h03.28.172,SurveyExpMetaMem,3.2.3,Win32,60
,,,,,,,,,,,,,,,,,,,,5,4.070000172,3,4.950000048,1,0,1200,1036,1,1199,anxiety,11121,2019-10-22_09h03.28.172,SurveyExpMetaMem,3.2.3,Win32,60
,,,,,,,,,,,,,,,,,,,,9,1.690000057,9,0.25999999,1,0,1200,45,1,1199,sex,11121,2019-10-22_09h03.28.172,SurveyExpMetaMem,3.2.3,Win32,60
,,,,,,,,,,,,,,,,,,,,8,5.556000233,7,1.14800024,1,0,1200,208,1,1199,wild,11121,2019-10-22_09h03.28.172,SurveyExpMetaMem,3.2.3,Win32,60
,,,,,,,,,,,,,,,,,,,,5,1.936000109,5,0.166000128,1,0,1200,773,1,1199,rational,11121,2019-10-22_09h03.28.172,SurveyExpMetaMem,3.2.3,Win32,60
,,,,,,,,,,,,,,,,,,,,5,1.59800005,1,0.860000134,1,0,1200,310,1,1199,lonely,11121,2019-10-22_09h03.28.172,SurveyExpMetaMem,3.2.3,Win32,60
,,,,,,,,,,,,,,,,,,,,5,1.890000105,5,0.161000013,1,0,1200,360,1,1199,dandruff,11121,2019-10-22_09h03.28.172,SurveyExpMetaMem,3.2.3,Win32,60
,,,,,,,,,,,,,,,,,,,,5,1.026000023,5,0.200000048,1,0,1200,855,1,1199,girl,11121,2019-10-22_09h03.28.172,SurveyExpMetaMem,3.2.3,Win32,60
,,,,,,,,,,,,,,,,,,,,7,2.562000275,5,1.529000282,1,0,1200,268,1,1199,tickle,11121,2019-10-22_09h03.28.172,SurveyExpMetaMem,3.2.3,Win32,60
,,,,,,,,,,,,,,,,,,,,5,0.953000307,5,0.171000004,1,0,1200,582,1,1199,cling,11121,2019-10-22_09h03.28.172,SurveyExpMetaMem,3.2.3,Win32,60
,,,,,,,,,,,,,,,,,,,,9,2.073000193,9,0.205000162,1,0,1200,276,1,1199,pastry,11121,2019-10-22_09h03.28.172,SurveyExpMetaMem,3.2.3,Win32,60
,,,,,,,,,,,,,,,,,,,,8,2.444000244,7,1.257000208,1,0,1200,67,1,1199,penthouse,11121,2019-10-22_09h03.28.172,SurveyExpMetaMem,3.2.3,Win32,60
,,,,,,,,,,,,,,,,,,,,9,1.937999964,9,0.305000305,1,0,1200,29,1,1199,life,11121,2019-10-22_09h03.28.172,SurveyExpMetaMem,3.2.3,Win32,60
,,,,,,,,,,,,,,,,,,,,6,2.315000057,3,0.680000305,1,0,1200,411,1,1199,bitter,11121,2019-10-22_09h03.28.172,SurveyExpMetaMem,3.2.3,Win32,60
,,,,,,,,,,,,,,,,,,,,5,1,5,0.156000376,1,0,1200,693,1,1199,key,11121,2019-10-22_09h03.28.172,SurveyExpMetaMem,3.2.3,Win32,60
,,,,,,,,,,,,,,,,,,,,9,2.490000248,9,0.17200017,1,0,1200,110,1,1199,animal,11121,2019-10-22_09h03.28.172,SurveyExpMetaMem,3.2.3,Win32,60
,,,,,,,,,,,,,,,,,,,,5,1.147000313,5,0.157000303,1,0,1200,573,1,1199,cease,11121,2019-10-22_09h03.28.172,SurveyExpMetaMem,3.2.3,Win32,60
,,,,,,,,,,,,,,,,,,,,5,1.177000046,5,0.171000004,1,0,1200,651,1,1199,bathroom,11121,2019-10-22_09h03.28.172,SurveyExpMetaMem,3.2.3,Win32,60
,,,,,,,,,,,,,,,,,,,,7,2.450000286,3,0.792000055,1,0,1200,1126,1,1199,offensive,11121,2019-10-22_09h03.28.172,SurveyExpMetaMem,3.2.3,Win32,60
,,,,,,,,,,,,,,,,,,,,2,2.269000053,7,1.158000231,1,0,1200,274,1,1199,song,11121,2019-10-22_09h03.28.172,SurveyExpMetaMem,3.2.3,Win32,60
,,,,,,,,,,,,,,,,,,,,5,2.354000092,5,0.176000118,1,0,1200,577,1,1199,retreat,11121,2019-10-22_09h03.28.172,SurveyExpMetaMem,3.2.3,Win32,60
,,,,,,,,,,,,,,,,,,,,5,1.055999994,5,0.204000235,1,0,1200,366,1,1199,fatigue,11121,2019-10-22_09h03.28.172,SurveyExpMetaMem,3.2.3,Win32,60
,,,,,,,,,,,,,,,,,,,,5,1.075000286,5,0.205000162,1,0,1200,522,1,1199,cleft,11121,2019-10-22_09h03.28.172,SurveyExpMetaMem,3.2.3,Win32,60
,,,,,,,,,,,,,,,,,,,,7,2.476999998,3,0.800000191,1,0,1200,1014,1,1199,destroy,11121,2019-10-22_09h03.28.172,SurveyExpMetaMem,3.2.3,Win32,60
,,,,,,,,,,,,,,,,,,,,6,2.350000143,4,0.535000086,1,0,1200,1120,1,1199,gun,11121,2019-10-22_09h03.28.172,SurveyExpMetaMem,3.2.3,Win32,60
,,,,,,,,,,,,,,,,,,,,5,1.203000307,5,0.174000263,1,0,1200,699,1,1199,leg,11121,2019-10-22_09h03.28.172,SurveyExpMetaMem,3.2.3,Win32,60
,,,,,,,,,,,,,,,,,,,,5,2.021000147,2,0.477000237,1,0,1200,307,1,1199,sick,11121,2019-10-22_09h03.28.172,SurveyExpMetaMem,3.2.3,Win32,60
,,,,,,,,,,,,,,,,,,,,5,1.654000282,5,0.15500021,1,0,1200,453,1,1199,prude,11121,2019-10-22_09h03.28.172,SurveyExpMetaMem,3.2.3,Win32,60
,,,,,,,,,,,,,,,,,,,,8,1.962000132,2,1.160000086,1,0,1200,995,1,1199,cult,11121,2019-10-22_09h03.28.172,SurveyExpMetaMem,3.2.3,Win32,60
,,,,,,,,,,,,,,,,,,,,2,2.389000177,7,2.501000166,1,0,1200,860,1,1199,silk,11121,2019-10-22_09h03.28.172,SurveyExpMetaMem,3.2.3,Win32,60
,,,,,,,,,,,,,,,,,,,,3,3.051000118,8,1.117000103,1,0,1200,77,1,1199,adore,11121,2019-10-22_09h03.28.172,SurveyExpMetaMem,3.2.3,Win32,60
,,,,,,,,,,,,,,,,,,,,5,1.5,5,0.159000158,1,0,1200,770,1,1199,buffalo,11121,2019-10-22_09h03.28.172,SurveyExpMetaMem,3.2.3,Win32,60
,,,,,,,,,,,,,,,,,,,,5,1.654000282,5,0.222000122,1,0,1200,420,1,1199,smoke,11121,2019-10-22_09h03.28.172,SurveyExpMetaMem,3.2.3,Win32,60
,,,,,,,,,,,,,,,,,,,,5,1.79700017,3,0.490000248,1,0,1200,978,1,1199,starving,11121,2019-10-22_09h03.28.172,SurveyExpMetaMem,3.2.3,Win32,60
,,,,,,,,,,,,,,,,,,,,4,2.452000141,7,1.911000013,1,0,1200,717,1,1199,modest,11121,2019-10-22_09h03.28.172,SurveyExpMetaMem,3.2.3,Win32,60
,,,,,,,,,,,,,,,,,,,,5,0.988000154,5,0.151000261,1,0,1200,657,1,1199,peanut,11121,2019-10-22_09h03.28.172,SurveyExpMetaMem,3.2.3,Win32,60
,,,,,,,,,,,,,,,,,,,,6,1.955000162,6,0.989000082,1,0,1200,269,1,1199,extravagant,11121,2019-10-22_09h03.28.172,SurveyExpMetaMem,3.2.3,Win32,60
,,,,,,,,,,,,,,,,,,,,8,1.920000076,8,0.311000109,1,0,1200,181,1,1199,fascinate,11121,2019-10-22_09h03.28.172,SurveyExpMetaMem,3.2.3,Win32,60
,,,,,,,,,,,,,,,,,,,,5,1.123000145,5,0.166000128,1,0,1200,778,1,1199,adorn,11121,2019-10-22_09h03.28.172,SurveyExpMetaMem,3.2.3,Win32,60
,,,,,,,,,,,,,,,,,,,,6,2.305000067,6,1.063000202,1,0,1200,79,1,1199,dazzle,11121,2019-10-22_09h03.28.172,SurveyExpMetaMem,3.2.3,Win32,60
,,,,,,,,,,,,,,,,,,,,5,1.371000051,5,0.208000183,1,0,1200,119,1,1199,stereo,11121,2019-10-22_09h03.28.172,SurveyExpMetaMem,3.2.3,Win32,60
,,,,,,,,,,,,,,,,,,,,5,0.827000141,5,0.190000057,1,0,1200,432,1,1199,resign,11121,2019-10-22_09h03.28.172,SurveyExpMetaMem,3.2.3,Win32,60
,,,,,,,,,,,,,,,,,,,,5,0.804000139,5,0.17200017,1,0,1200,556,1,1199,allege,11121,2019-10-22_09h03.28.172,SurveyExpMetaMem,3.2.3,Win32,60
,,,,,,,,,,,,,,,,,,,,3,2.476000309,5,1.644000292,1,0,1200,697,1,1199,clarinet,11121,2019-10-22_09h03.28.172,SurveyExpMetaMem,3.2.3,Win32,60
,,,,,,,,,,,,,,,,,,,,5,2.123000145,5,0.200000048,1,0,1200,710,1,1199,gender,11121,2019-10-22_09h03.28.172,SurveyExpMetaMem,3.2.3,Win32,60
,,,,,,,,,,,,,,,,,,,,2,1.936000347,7,0.976999998,1,0,1200,735,1,1199,tea,11121,2019-10-22_09h03.28.172,SurveyExpMetaMem,3.2.3,Win32,60
,,,,,,,,,,,,,,,,,,,,5,1.738000154,5,0.156000137,1,0,1200,400,1,1199,urine,11121,2019-10-22_09h03.28.172,SurveyExpMetaMem,3.2.3,Win32,60
,,,,,,,,,,,,,,,,,,,,6,2.455000162,7,0.325000048,1,0,1200,198,1,1199,comedy,11121,2019-10-22_09h03.28.172,SurveyExpMetaMem,3.2.3,Win32,60
,,,,,,,,,,,,,,,,,,,,5,1.072000265,5,0.456000328,1,0,1200,491,1,1199,meek,11121,2019-10-22_09h03.28.172,SurveyExpMetaMem,3.2.3,Win32,60
,,,,,,,,,,,,,,,,,,,,6,2.123000145,7,0.527000189,1,0,1200,1150,1,1199,forceful,11121,2019-10-22_09h03.28.172,SurveyExpMetaMem,3.2.3,Win32,60
,,,,,,,,,,,,,,,,,,,,7,2.365000248,6,1.15500021,1,0,1200,286,1,1199,superstar,11121,2019-10-22_09h03.28.172,SurveyExpMetaMem,3.2.3,Win32,60
,,,,,,,,,,,,,,,,,,,,5,0.851999998,5,0.162000179,1,0,1200,1141,1,1199,shark,11121,2019-10-22_09h03.28.172,SurveyExpMetaMem,3.2.3,Win32,60
,,,,,,,,,,,,,,,,,,,,5,0.461000204,7,1.88800025,1,0,1200,191,1,1199,compassion,11121,2019-10-22_09h03.28.172,SurveyExpMetaMem,3.2.3,Win32,60
,,,,,,,,,,,,,,,,,,,,6,3.135000229,5,1.038000107,1,0,1200,1162,1,1199,baffle,11121,2019-10-22_09h03.28.172,SurveyExpMetaMem,3.2.3,Win32,60
,,,,,,,,,,,,,,,,,,,,5,2.673000097,5,0.198000193,1,0,1200,619,1,1199,pulpit,11121,2019-10-22_09h03.28.172,SurveyExpMetaMem,3.2.3,Win32,60
,,,,,,,,,,,,,,,,,,,,5,2.309000254,3,1.673000336,1,0,1200,331,1,1199,casket,11121,2019-10-22_09h03.28.172,SurveyExpMetaMem,3.2.3,Win32,60
,,,,,,,,,,,,,,,,,,,,6,2.36400032,2,0.670000315,1,0,1200,914,1,1199,fail,11121,2019-10-22_09h03.28.172,SurveyExpMetaMem,3.2.3,Win32,60
,,,,,,,,,,,,,,,,,,,,7,2.93900013,3,0.683000088,1,0,1200,340,1,1199,coward,11121,2019-10-22_09h03.28.172,SurveyExpMetaMem,3.2.3,Win32,60
,,,,,,,,,,,,,,,,,,,,5,2.253000259,4,1.455000162,1,0,1200,507,1,1199,smudge,11121,2019-10-22_09h03.28.172,SurveyExpMetaMem,3.2.3,Win32,60
,,,,,,,,,,,,,,,,,,,,7,1.820000172,6,0.808000088,1,0,1200,11,1,1199,astonished,11121,2019-10-22_09h03.28.172,SurveyExpMetaMem,3.2.3,Win32,60
,,,,,,,,,,,,,,,,,,,,5,3.113000154,4,0.541000128,1,0,1200,489,1,1199,timid,11121,2019-10-22_09h03.28.172,SurveyExpMetaMem,3.2.3,Win32,60
,,,,,,,,,,,,,,,,,,,,5,1.356000185,5,0.1650002,1,0,1200,856,1,1199,leisurely,11121,2019-10-22_09h03.28.172,SurveyExpMetaMem,3.2.3,Win32,60
,,,,,,,,,,,,,,,,,,,,5,2.090000153,3,0.610000134,1,0,1200,1087,1,1199,affair,11121,2019-10-22_09h03.28.172,SurveyExpMetaMem,3.2.3,Win32,60
,,,,,,,,,,,,,,,,,,,,5,1.943000078,5,0.194000244,1,0,1200,745,1,1199,inform,11121,2019-10-22_09h03.28.172,SurveyExpMetaMem,3.2.3,Win32,60
,,,,,,,,,,,,,,,,,,,,5,1.879000187,4,0.637000322,1,0,1200,986,1,1199,mad,11121,2019-10-22_09h03.28.172,SurveyExpMetaMem,3.2.3,Win32,60
,,,,,,,,,,,,,,,,,,,,7,1.50600028,8,0.33100009,1,0,1200,137,1,1199,money,11121,2019-10-22_09h03.28.172,SurveyExpMetaMem,3.2.3,Win32,60
,,,,,,,,,,,,,,,,,,,,9,1.458000183,9,0.28000021,1,0,1200,149,1,1199,loved,11121,2019-10-22_09h03.28.172,SurveyExpMetaMem,3.2.3,Win32,60
,,,,,,,,,,,,,,,,,,,,6,2.088000298,2,0.559000254,1,0,1200,1152,1,1199,scream,11121,2019-10-22_09h03.28.172,SurveyExpMetaMem,3.2.3,Win32,60
,,,,,,,,,,,,,,,,,,,,5,1.964000225,3,0.406000137,1,0,1200,546,1,1199,solemn,11121,2019-10-22_09h03.28.172,SurveyExpMetaMem,3.2.3,Win32,60
,,,,,,,,,,,,,,,,,,,,5,1.995000124,5,0.20600009,1,0,1200,751,1,1199,listen,11121,2019-10-22_09h03.28.172,SurveyExpMetaMem,3.2.3,Win32,60
,,,,,,,,,,,,,,,,,,,,6,2.335000277,7,0.239000082,1,0,1200,205,1,1199,outspoken,11121,2019-10-22_09h03.28.172,SurveyExpMetaMem,3.2.3,Win32,60
,,,,,,,,,,,,,,,,,,,,2,1.759000301,6,1.312999964,1,0,1200,227,1,1199,musician,11121,2019-10-22_09h03.28.172,SurveyExpMetaMem,3.2.3,Win32,60
,,,,,,,,,,,,,,,,,,,,1,2.141000271,8,1.055999994,1,0,1200,874,1,1199,butterfly,11121,2019-10-22_09h03.28.172,SurveyExpMetaMem,3.2.3,Win32,60
,,,,,,,,,,,,,,,,,,,,7,4.05700016,2,1.134000301,1,0,1200,936,1,1199,assault,11121,2019-10-22_09h03.28.172,SurveyExpMetaMem,3.2.3,Win32,60
,,,,,,,,,,,,,,,,,,,,5,2.120000124,5,0.160000324,1,0,1200,561,1,1199,plain,11121,2019-10-22_09h03.28.172,SurveyExpMetaMem,3.2.3,Win32,60
,,,,,,,,,,,,,,,,,,,,1,1.897000074,8,0.857000113,1,0,1200,805,1,1199,autumn,11121,2019-10-22_09h03.28.172,SurveyExpMetaMem,3.2.3,Win32,60
,,,,,,,,,,,,,,,,,,,,1,1.436000109,8,0.548000097,1,0,1200,859,1,1199,serene,11121,2019-10-22_09h03.28.172,SurveyExpMetaMem,3.2.3,Win32,60
,,,,,,,,,,,,,,,,,,,,5,2.325999975,4,1.928000212,1,0,1200,530,1,1199,erase,11121,2019-10-22_09h03.28.172,SurveyExpMetaMem,3.2.3,Win32,60
,,,,,,,,,,,,,,,,,,,,5,2.843000174,3,0.438000202,1,0,1200,438,1,1199,dull,11121,2019-10-22_09h03.28.172,SurveyExpMetaMem,3.2.3,Win32,60
,,,,,,,,,,,,,,,,,,,,5,1.419000149,5,0.164000273,1,0,1200,495,1,1199,dust,11121,2019-10-22_09h03.28.172,SurveyExpMetaMem,3.2.3,Win32,60
,,,,,,,,,,,,,,,,,,,,5,1.10800004,5,0.174000025,1,0,1200,132,1,1199,silly,11121,2019-10-22_09h03.28.172,SurveyExpMetaMem,3.2.3,Win32,60
,,,,,,,,,,,,,,,,,,,,7,1.390000105,6,0.455000162,1,0,1200,78,1,1199,energetic,11121,2019-10-22_09h03.28.172,SurveyExpMetaMem,3.2.3,Win32,60
,,,,,,,,,,,,,,,,,,,,7,1.970000029,3,0.718000174,1,0,1200,1194,1,1199,obsession,11121,2019-10-22_09h03.28.172,SurveyExpMetaMem,3.2.3,Win32,60
,,,,,,,,,,,,,,,,,,,,5,1.391000032,5,0.484000206,1,0,1200,412,1,1199,mucus,11121,2019-10-22_09h03.28.172,SurveyExpMetaMem,3.2.3,Win32,60
,,,,,,,,,,,,,,,,,,,,5,1.568000078,5,0.177000046,1,0,1200,313,1,1199,rotten,11121,2019-10-22_09h03.28.172,SurveyExpMetaMem,3.2.3,Win32,60
,,,,,,,,,,,,,,,,,,,,5,2.10800004,2,0.48300004,1,0,1200,917,1,1199,slave,11121,2019-10-22_09h03.28.172,SurveyExpMetaMem,3.2.3,Win32,60
,,,,,,,,,,,,,,,,,,,,9,1.315000057,9,0.154999971,1,0,1200,197,1,1199,happy,11121,2019-10-22_09h03.28.172,SurveyExpMetaMem,3.2.3,Win32,60
,,,,,,,,,,,,,,,,,,,,6,4.88800025,7,0.377000093,1,0,1200,203,1,1199,seal,11121,2019-10-22_09h03.28.172,SurveyExpMetaMem,3.2.3,Win32,60
,,,,,,,,,,,,,,,,,,,,6,2.052999973,7,0.292999983,1,0,1200,111,1,1199,band,11121,2019-10-22_09h03.28.172,SurveyExpMetaMem,3.2.3,Win32,60
,,,,,,,,,,,,,,,,,,,,5,2.985000372,3,0.573000193,1,0,1200,1199,1,1199,expensive,11121,2019-10-22_09h03.28.172,SurveyExpMetaMem,3.2.3,Win32,60
,,,,,,,,,,,,,,,,,,,,6,1.737000227,2,0.857000113,1,0,1200,1069,1,1199,defeat,11121,2019-10-22_09h03.28.172,SurveyExpMetaMem,3.2.3,Win32,60
,,,,,,,,,,,,,,,,,,,,8,1.485000134,2,0.505000114,1,0,1200,1026,1,1199,crisis,11121,2019-10-22_09h03.28.172,SurveyExpMetaMem,3.2.3,Win32,60
,,,,,,,,,,,,,,,,,,,,1,1.884000301,7,2.525000095,1,0,1200,732,1,1199,humble,11121,2019-10-22_09h03.28.172,SurveyExpMetaMem,3.2.3,Win32,60
,,,,,,,,,,,,,,,,,,,,5,1.584000349,5,0.177000046,1,0,1200,690,1,1199,similar,11121,2019-10-22_09h03.28.172,SurveyExpMetaMem,3.2.3,Win32,60
,,,,,,,,,,,,,,,,,,,,2,2.303000212,7,0.779000282,1,0,1200,138,1,1199,blessings,11121,2019-10-22_09h03.28.172,SurveyExpMetaMem,3.2.3,Win32,60
,,,,,,,,,,,,,,,,,,,,5,1.187000275,5,0.171000242,1,0,1200,793,1,1199,virtue,11121,2019-10-22_09h03.28.172,SurveyExpMetaMem,3.2.3,Win32,60
,,,,,,,,,,,,,,,,,,,,6,2.164999962,8,0.611000061,1,0,1200,287,1,1199,optimistic,11121,2019-10-22_09h03.28.172,SurveyExpMetaMem,3.2.3,Win32,60
,,,,,,,,,,,,,,,,,,,,7,2.004000187,2,0.762000322,1,0,1200,969,1,1199,whore,11121,2019-10-22_09h03.28.172,SurveyExpMetaMem,3.2.3,Win32,60
,,,,,,,,,,,,,,,,,,,,3,2.198000193,7,0.927000046,1,0,1200,754,1,1199,reflection,11121,2019-10-22_09h03.28.172,SurveyExpMetaMem,3.2.3,Win32,60
,,,,,,,,,,,,,,,,,,,,1,1.891000032,9,0.692000151,1,0,1200,196,1,1199,smile,11121,2019-10-22_09h03.28.172,SurveyExpMetaMem,3.2.3,Win32,60
,,,,,,,,,,,,,,,,,,,,5,1.331000328,5,0.158000231,1,0,1200,628,1,1199,chess,11121,2019-10-22_09h03.28.172,SurveyExpMetaMem,3.2.3,Win32,60
,,,,,,,,,,,,,,,,,,,,5,1.004000187,5,0.171000242,1,0,1200,659,1,1199,hair,11121,2019-10-22_09h03.28.172,SurveyExpMetaMem,3.2.3,Win32,60
,,,,,,,,,,,,,,,,,,,,5,1.636000156,5,0.1650002,1,0,1200,700,1,1199,frog,11121,2019-10-22_09h03.28.172,SurveyExpMetaMem,3.2.3,Win32,60
,,,,,,,,,,,,,,,,,,,,6,2.676000357,3,0.555000067,1,0,1200,1079,1,1199,critic,11121,2019-10-22_09h03.28.172,SurveyExpMetaMem,3.2.3,Win32,60
,,,,,,,,,,,,,,,,,,,,7,1.768000364,2,0.653000116,1,0,1200,346,1,1199,alcoholism,11121,2019-10-22_09h03.28.172,SurveyExpMetaMem,3.2.3,Win32,60
,,,,,,,,,,,,,,,,,,,,5,2.315000057,5,0.171000242,1,0,1200,154,1,1199,race,11121,2019-10-22_09h03.28.172,SurveyExpMetaMem,3.2.3,Win32,60
,,,,,,,,,,,,,,,,,,,,5,1.778000116,5,0.170000315,1,0,1200,75,1,1199,actor,11121,2019-10-22_09h03.28.172,SurveyExpMetaMem,3.2.3,Win32,60
,,,,,,,,,,,,,,,,,,,,6,1.70600009,5,0.775000334,1,0,1200,167,1,1199,casino,11121,2019-10-22_09h03.28.172,SurveyExpMetaMem,3.2.3,Win32,60
,,,,,,,,,,,,,,,,,,,,7,2.287000179,5,2.616000175,1,0,1200,10,1,1199,cheerleader,11121,2019-10-22_09h03.28.172,SurveyExpMetaMem,3.2.3,Win32,60
,,,,,,,,,,,,,,,,,,,,3,1.771000147,7,0.954000235,1,0,1200,734,1,1199,piano,11121,2019-10-22_09h03.28.172,SurveyExpMetaMem,3.2.3,Win32,60
,,,,,,,,,,,,,,,,,,,,5,1.154000044,5,0.156000137,1,0,1200,501,1,1199,dustpan,11121,2019-10-22_09h03.28.172,SurveyExpMetaMem,3.2.3,Win32,60
,,,,,,,,,,,,,,,,,,,,5,0.918000221,5,0.154000044,1,0,1200,410,1,1199,tarnish,11121,2019-10-22_09h03.28.172,SurveyExpMetaMem,3.2.3,Win32,60
,,,,,,,,,,,,,,,,,,,,5,0.878000021,5,0.159000158,1,0,1200,686,1,1199,phone,11121,2019-10-22_09h03.28.172,SurveyExpMetaMem,3.2.3,Win32,60
,,,,,,,,,,,,,,,,,,,,2,2.641000032,8,0.987000227,1,0,1200,245,1,1199,beach,11121,2019-10-22_09h03.28.172,SurveyExpMetaMem,3.2.3,Win32,60
,,,,,,,,,,,,,,,,,,,,5,1.330000162,5,0.145000219,1,0,1200,779,1,1199,shampoo,11121,2019-10-22_09h03.28.172,SurveyExpMetaMem,3.2.3,Win32,60
,,,,,,,,,,,,,,,,,,,,5,2.055000067,5,1.647000313,1,0,1200,962,1,1199,poisonous,11121,2019-10-22_09h03.28.172,SurveyExpMetaMem,3.2.3,Win32,60
,,,,,,,,,,,,,,,,,,,,5,1.150000095,5,0.212000132,1,0,1200,726,1,1199,crackers,11121,2019-10-22_09h03.28.172,SurveyExpMetaMem,3.2.3,Win32,60
,,,,,,,,,,,,,,,,,,,,3,1.459000349,5,1.440000057,1,0,1200,704,1,1199,flute,11121,2019-10-22_09h03.28.172,SurveyExpMetaMem,3.2.3,Win32,60
,,,,,,,,,,,,,,,,,,,,7,1.791000128,8,0.388999939,1,0,1200,296,1,1199,awesome,11121,2019-10-22_09h03.28.172,SurveyExpMetaMem,3.2.3,Win32,60
,,,,,,,,,,,,,,,,,,,,6,1.80700016,7,0.590000153,1,0,1200,837,1,1199,responsible,11121,2019-10-22_09h03.28.172,SurveyExpMetaMem,3.2.3,Win32,60
,,,,,,,,,,,,,,,,,,,,6,1.654000282,7,0.224000216,1,0,1200,125,1,1199,dancing,11121,2019-10-22_09h03.28.172,SurveyExpMetaMem,3.2.3,Win32,60
,,,,,,,,,,,,,,,,,,,,5,2.089000225,7,0.5400002,1,0,1200,705,1,1199,tolerant,11121,2019-10-22_09h03.28.172,SurveyExpMetaMem,3.2.3,Win32,60
,,,,,,,,,,,,,,,,,,,,5,1.339000225,5,0.149000168,1,0,1200,610,1,1199,miniature,11121,2019-10-22_09h03.28.172,SurveyExpMetaMem,3.2.3,Win32,60
,,,,,,,,,,,,,,,,,,,,8,3.491000175,8,1.055000067,1,0,1200,210,1,1199,elephant,11121,2019-10-22_09h03.28.172,SurveyExpMetaMem,3.2.3,Win32,60
,,,,,,,,,,,,,,,,,,,,5,1.820000172,3,0.40500021,1,0,1200,1111,1,1199,bruise,11121,2019-10-22_09h03.28.172,SurveyExpMetaMem,3.2.3,Win32,60
,,,,,,,,,,,,,,,,,,,,5,1.05700016,5,0.157999992,1,0,1200,655,1,1199,name,11121,2019-10-22_09h03.28.172,SurveyExpMetaMem,3.2.3,Win32,60
,,,,,,,,,,,,,,,,,,,,7,2.573000193,3,5.09100008,1,0,1200,303,1,1199,death,11121,2019-10-22_09h03.28.172,SurveyExpMetaMem,3.2.3,Win32,60
,,,,,,,,,,,,,,,,,,,,4,2.147000313,5,1.375,1,0,1200,744,1,1199,village,11121,2019-10-22_09h03.28.172,SurveyExpMetaMem,3.2.3,Win32,60
,,,,,,,,,,,,,,,,,,,,3,3.337000132,7,0.876000166,1,0,1200,128,1,1199,supper,11121,2019-10-22_09h03.28.172,SurveyExpMetaMem,3.2.3,Win32,60
,,,,,,,,,,,,,,,,,,,,1,2.386000156,8,0.957000256,1,0,1200,124,1,1199,honeymoon,11121,2019-10-22_09h03.28.172,SurveyExpMetaMem,3.2.3,Win32,60
,,,,,,,,,,,,,,,,,,,,5,1.830000162,5,0.188000202,1,0,1200,27,1,1199,gourmet,11121,2019-10-22_09h03.28.172,SurveyExpMetaMem,3.2.3,Win32,60
,,,,,,,,,,,,,,,,,,,,5,0.937000036,5,0.190000057,1,0,1200,306,1,1199,gloom,11121,2019-10-22_09h03.28.172,SurveyExpMetaMem,3.2.3,Win32,60
,,,,,,,,,,,,,,,,,,,,5,0.925000191,5,0.216000319,1,0,1200,663,1,1199,trout,11121,2019-10-22_09h03.28.172,SurveyExpMetaMem,3.2.3,Win32,60
,,,,,,,,,,,,,,,,,,,,1,1.603000164,9,0.582000256,1,0,1200,238,1,1199,sunshine,11121,2019-10-22_09h03.28.172,SurveyExpMetaMem,3.2.3,Win32,60
,,,,,,,,,,,,,,,,,,,,5,1.643000126,5,0.207000256,1,0,1200,1097,1,1199,bees,11121,2019-10-22_09h03.28.172,SurveyExpMetaMem,3.2.3,Win32,60
,,,,,,,,,,,,,,,,,,,,5,1.221000195,5,0.20600009,1,0,1200,435,1,1199,grovel,11121,2019-10-22_09h03.28.172,SurveyExpMetaMem,3.2.3,Win32,60
,,,,,,,,,,,,,,,,,,,,5,1.796000004,6,0.445000172,1,0,1200,246,1,1199,complete,11121,2019-10-22_09h03.28.172,SurveyExpMetaMem,3.2.3,Win32,60
,,,,,,,,,,,,,,,,,,,,6,2.400000334,7,0.423000336,1,0,1200,267,1,1199,bold,11121,2019-10-22_09h03.28.172,SurveyExpMetaMem,3.2.3,Win32,60
,,,,,,,,,,,,,,,,,,,,7,1.65500021,4,0.955000162,1,0,1200,967,1,1199,horrible,11121,2019-10-22_09h03.28.172,SurveyExpMetaMem,3.2.3,Win32,60
,,,,,,,,,,,,,,,,,,,,6,2.538000107,3,0.417999983,1,0,1200,937,1,1199,prison,11121,2019-10-22_09h03.28.172,SurveyExpMetaMem,3.2.3,Win32,60
,,,,,,,,,,,,,,,,,,,,5,1.279000282,5,0.15500021,1,0,1200,1136,1,1199,appall,11121,2019-10-22_09h03.28.172,SurveyExpMetaMem,3.2.3,Win32,60
,,,,,,,,,,,,,,,,,,,,5,1.897000313,5,0.209000111,1,0,1200,73,1,1199,rhythm,11121,2019-10-22_09h03.28.172,SurveyExpMetaMem,3.2.3,Win32,60
,,,,,,,,,,,,,,,,,,,,7,2.286000252,8,0.895000219,1,0,1200,94,1,1199,engaged,11121,2019-10-22_09h03.28.172,SurveyExpMetaMem,3.2.3,Win32,60
,,,,,,,,,,,,,,,,,,,,7,2.96600008,6,1.361999989,1,0,1200,8,1,1199,extreme,11121,2019-10-22_09h03.28.172,SurveyExpMetaMem,3.2.3,Win32,60
,,,,,,,,,,,,,,,,,,,,5,0.874000072,5,0.192000151,1,0,1200,395,1,1199,lack,11121,2019-10-22_09h03.28.172,SurveyExpMetaMem,3.2.3,Win32,60
,,,,,,,,,,,,,,,,,,,,2,2.269000053,8,0.75600028,1,0,1200,192,1,1199,pleased,11121,2019-10-22_09h03.28.172,SurveyExpMetaMem,3.2.3,Win32,60
,,,,,,,,,,,,,,,,,,,,5,2.576000214,7,0.570000172,1,0,1200,226,1,1199,prize,11121,2019-10-22_09h03.28.172,SurveyExpMetaMem,3.2.3,Win32,60
,,,,,,,,,,,,,,,,,,,,4,1.770000219,7,0.867000103,1,0,1200,189,1,1199,thoughtful,11121,2019-10-22_09h03.28.172,SurveyExpMetaMem,3.2.3,Win32,60
,,,,,,,,,,,,,,,,,,,,5,1.570000172,5,0.154000044,1,0,1200,121,1,1199,self,11121,2019-10-22_09h03.28.172,SurveyExpMetaMem,3.2.3,Win32,60
,,,,,,,,,,,,,,,,,,,,6,1.623000145,3,0.891000032,1,0,1200,988,1,1199,deserter,11121,2019-10-22_09h03.28.172,SurveyExpMetaMem,3.2.3,Win32,60
,,,,,,,,,,,,,,,,,,,,4,2.911000013,7,0.762000084,1,0,1200,840,1,1199,cuisine,11121,2019-10-22_09h03.28.172,SurveyExpMetaMem,3.2.3,Win32,60
,,,,,,,,,,,,,,,,,,,,6,2.142000198,3,0.974000216,1,0,1200,1125,1,1199,outrage,11121,2019-10-22_09h03.28.172,SurveyExpMetaMem,3.2.3,Win32,60
,,,,,,,,,,,,,,,,,,,,5,1.219000101,5,0.1650002,1,0,1200,585,1,1199,tatter,11121,2019-10-22_09h03.28.172,SurveyExpMetaMem,3.2.3,Win32,60
,,,,,,,,,,,,,,,,,,,,5,11.46600008,4,0.369000196,1,0,1200,933,1,1199,afraid,11121,2019-10-22_09h03.28.172,SurveyExpMetaMem,3.2.3,Win32,60
,,,,,,,,,,,,,,,,,,,,8,1.784000158,8,0.791000128,1,0,1200,248,1,1199,win,11121,2019-10-22_09h03.28.172,SurveyExpMetaMem,3.2.3,Win32,60
,,,,,,,,,,,,,,,,,,,,5,1.03000021,5,0.18200016,1,0,1200,463,1,1199,limp,11121,2019-10-22_09h03.28.172,SurveyExpMetaMem,3.2.3,Win32,60
,,,,,,,,,,,,,,,,,,,,7,3.32400012,8,0.671000004,1,0,1200,173,1,1199,hope,11121,2019-10-22_09h03.28.172,SurveyExpMetaMem,3.2.3,Win32,60
,,,,,,,,,,,,,,,,,,,,3,3.159000158,8,0.770000219,1,0,1200,89,1,1199,cruiseship,11121,2019-10-22_09h03.28.172,SurveyExpMetaMem,3.2.3,Win32,60
,,,,,,,,,,,,,,,,,,,,5,1.285000086,5,0.152000189,1,0,1200,772,1,1199,ornament,11121,2019-10-22_09h03.28.172,SurveyExpMetaMem,3.2.3,Win32,60
,,,,,,,,,,,,,,,,,,,,8,1.854000092,8,0.497000217,1,0,1200,206,1,1199,comet,11121,2019-10-22_09h03.28.172,SurveyExpMetaMem,3.2.3,Win32,60
,,,,,,,,,,,,,,,,,,,,5,2.667000055,6,0.43200016,1,0,1200,666,1,1199,verify,11121,2019-10-22_09h03.28.172,SurveyExpMetaMem,3.2.3,Win32,60
,,,,,,,,,,,,,,,,,,,,7,2.810000181,3,0.511000156,1,0,1200,1112,1,1199,pressure,11121,2019-10-22_09h03.28.172,SurveyExpMetaMem,3.2.3,Win32,60
,,,,,,,,,,,,,,,,,,,,6,3.207000017,6,0.189000368,1,0,1200,273,1,1199,worthwhile,11121,2019-10-22_09h03.28.172,SurveyExpMetaMem,3.2.3,Win32,60
,,,,,,,,,,,,,,,,,,,,4,1.910000324,6,1.302999973,1,0,1200,641,1,1199,writer,11121,2019-10-22_09h03.28.172,SurveyExpMetaMem,3.2.3,Win32,60
,,,,,,,,,,,,,,,,,,,,5,1.588000298,5,0.171000242,1,0,1200,1153,1,1199,mangle,11121,2019-10-22_09h03.28.172,SurveyExpMetaMem,3.2.3,Win32,60
,,,,,,,,,,,,,,,,,,,,5,1.756999969,2,0.546000004,1,0,1200,1004,1,1199,burglar,11121,2019-10-22_09h03.28.172,SurveyExpMetaMem,3.2.3,Win32,60
,,,,,,,,,,,,,,,,,,,,5,1.675000191,2,0.370000124,1,0,1200,979,1,1199,harassment,11121,2019-10-22_09h03.28.172,SurveyExpMetaMem,3.2.3,Win32,60
,,,,,,,,,,,,,,,,,,,,3,2.754000187,7,1.205000162,1,0,1200,798,1,1199,crystal,11121,2019-10-22_09h03.28.172,SurveyExpMetaMem,3.2.3,Win32,60
,,,,,,,,,,,,,,,,,,,,7,1.74000001,7,0.374000072,1,0,1200,291,1,1199,fantastic,11121,2019-10-22_09h03.28.172,SurveyExpMetaMem,3.2.3,Win32,60
,,,,,,,,,,,,,,,,,,,,8,2.004000187,3,0.925000191,1,0,1200,1115,1,1199,invade,11121,2019-10-22_09h03.28.172,SurveyExpMetaMem,3.2.3,Win32,60
,,,,,,,,,,,,,,,,,,,,8,1.601000071,8,0.252000093,1,0,1200,80,1,1199,wonderful,11121,2019-10-22_09h03.28.172,SurveyExpMetaMem,3.2.3,Win32,60
,,,,,,,,,,,,,,,,,,,,6,2.635000229,3,0.471000195,1,0,1200,1063,1,1199,quarrel,11121,2019-10-22_09h03.28.172,SurveyExpMetaMem,3.2.3,Win32,60
,,,,,,,,,,,,,,,,,,,,6,3.385000229,7,0.35800004,1,0,1200,70,1,1199,cartoon,11121,2019-10-22_09h03.28.172,SurveyExpMetaMem,3.2.3,Win32,60
,,,,,,,,,,,,,,,,,,,,5,2.226000071,5,0.178000212,1,0,1200,486,1,1199,fool,11121,2019-10-22_09h03.28.172,SurveyExpMetaMem,3.2.3,Win32,60
,,,,,,,,,,,,,,,,,,,,6,2.592000246,5,0.695000172,1,0,1200,118,1,1199,conquer,11121,2019-10-22_09h03.28.172,SurveyExpMetaMem,3.2.3,Win32,60
,,,,,,,,,,,,,,,,,,,,7,2.509000063,5,0.606000185,1,0,1200,1040,1,1199,communism,11121,2019-10-22_09h03.28.172,SurveyExpMetaMem,3.2.3,Win32,60
,,,,,,,,,,,,,,,,,,,,7,2.704000235,3,0.421000004,1,0,1200,1018,1,1199,distress,11121,2019-10-22_09h03.28.172,SurveyExpMetaMem,3.2.3,Win32,60
,,,,,,,,,,,,,,,,,,,,6,2.220000267,3,0.804000139,1,0,1200,1062,1,1199,shoplifter,11121,2019-10-22_09h03.28.172,SurveyExpMetaMem,3.2.3,Win32,60
,,,,,,,,,,,,,,,,,,,,7,3.947000265,8,0.506000042,1,0,1200,775,1,1199,pancakes,11121,2019-10-22_09h03.28.172,SurveyExpMetaMem,3.2.3,Win32,60
,,,,,,,,,,,,,,,,,,,,5,2.470000029,2,0.538000107,1,0,1200,447,1,1199,dishes,11121,2019-10-22_09h03.28.172,SurveyExpMetaMem,3.2.3,Win32,60
,,,,,,,,,,,,,,,,,,,,5,1.554000139,7,0.712000132,1,0,1200,251,1,1199,meteor,11121,2019-10-22_09h03.28.172,SurveyExpMetaMem,3.2.3,Win32,60
,,,,,,,,,,,,,,,,,,,,5,1.974000216,5,0.493000031,1,0,1200,541,1,1199,apathy,11121,2019-10-22_09h03.28.172,SurveyExpMetaMem,3.2.3,Win32,60
,,,,,,,,,,,,,,,,,,,,6,2.598000288,6,0.543000221,1,0,1200,692,1,1199,medicine,11121,2019-10-22_09h03.28.172,SurveyExpMetaMem,3.2.3,Win32,60
,,,,,,,,,,,,,,,,,,,,7,2.120000124,7,1.179000139,1,0,1200,33,1,1199,sister,11121,2019-10-22_09h03.28.172,SurveyExpMetaMem,3.2.3,Win32,60
,,,,,,,,,,,,,,,,,,,,5,2.427000284,5,0.459000111,1,0,1200,476,1,1199,warden,11121,2019-10-22_09h03.28.172,SurveyExpMetaMem,3.2.3,Win32,60
,,,,,,,,,,,,,,,,,,,,6,1.955000162,3,0.707000017,1,0,1200,993,1,1199,remorse,11121,2019-10-22_09h03.28.172,SurveyExpMetaMem,3.2.3,Win32,60
,,,,,,,,,,,,,,,,,,,,5,2.454000235,6,0.436000109,1,0,1200,1179,1,1199,nerves,11121,2019-10-22_09h03.28.172,SurveyExpMetaMem,3.2.3,Win32,60
,,,,,,,,,,,,,,,,,,,,5,3.24000001,5,0.249000311,1,0,1200,214,1,1199,revive,11121,2019-10-22_09h03.28.172,SurveyExpMetaMem,3.2.3,Win32,60
,,,,,,,,,,,,,,,,,,,,5,1.303000212,5,0.171000004,1,0,1200,1173,1,1199,lurk,11121,2019-10-22_09h03.28.172,SurveyExpMetaMem,3.2.3,Win32,60
,,,,,,,,,,,,,,,,,,,,5,1.70600009,5,0.170000076,1,0,1200,673,1,1199,bedspread,11121,2019-10-22_09h03.28.172,SurveyExpMetaMem,3.2.3,Win32,60
,,,,,,,,,,,,,,,,,,,,5,3.033000231,5,1.124000072,1,0,1200,387,1,1199,tax,11121,2019-10-22_09h03.28.172,SurveyExpMetaMem,3.2.3,Win32,60
,,,,,,,,,,,,,,,,,,,,5,1.274000168,5,0.195000172,1,0,1200,1155,1,1199,tangle,11121,2019-10-22_09h03.28.172,SurveyExpMetaMem,3.2.3,Win32,60
,,,,,,,,,,,,,,,,,,,,6,1.921000004,7,0.411000013,1,0,1200,34,1,1199,personality,11121,2019-10-22_09h03.28.172,SurveyExpMetaMem,3.2.3,Win32,60
,,,,,,,,,,,,,,,,,,,,5,1.688000202,5,0.197000265,1,0,1200,685,1,1199,makeup,11121,2019-10-22_09h03.28.172,SurveyExpMetaMem,3.2.3,Win32,60
,,,,,,,,,,,,,,,,,,,,5,6.494000196,5,0.154999971,1,0,1200,462,1,1199,shallow,11121,2019-10-22_09h03.28.172,SurveyExpMetaMem,3.2.3,Win32,60
,,,,,,,,,,,,,,,,,,,,7,1.82400012,8,0.272000313,1,0,1200,282,1,1199,luck,11121,2019-10-22_09h03.28.172,SurveyExpMetaMem,3.2.3,Win32,60
,,,,,,,,,,,,,,,,,,,,5,2.154000282,3,0.344000101,1,0,1200,312,1,1199,stench,11121,2019-10-22_09h03.28.172,SurveyExpMetaMem,3.2.3,Win32,60
,,,,,,,,,,,,,,,,,,,,6,1.981000185,4,0.451000214,1,0,1200,336,1,1199,wasteful,11121,2019-10-22_09h03.28.172,SurveyExpMetaMem,3.2.3,Win32,60
,,,,,,,,,,,,,,,,,,,,5,2.252000093,5,0.424000025,1,0,1200,187,1,1199,excite,11121,2019-10-22_09h03.28.172,SurveyExpMetaMem,3.2.3,Win32,60
,,,,,,,,,,,,,,,,,,,,7,2.067000151,5,1.226000071,1,0,1200,1186,1,1199,goddamn,11121,2019-10-22_09h03.28.172,SurveyExpMetaMem,3.2.3,Win32,60
,,,,,,,,,,,,,,,,,,,,6,1.55700016,7,0.380000114,1,0,1200,278,1,1199,king,11121,2019-10-22_09h03.28.172,SurveyExpMetaMem,3.2.3,Win32,60
,,,,,,,,,,,,,,,,,,,,7,3.029000282,7,0.40500021,1,0,1200,87,1,1199,cookie,11121,2019-10-22_09h03.28.172,SurveyExpMetaMem,3.2.3,Win32,60
,,,,,,,,,,,,,,,,,,,,1,1.532000065,8,0.651000261,1,0,1200,680,1,1199,candle,11121,2019-10-22_09h03.28.172,SurveyExpMetaMem,3.2.3,Win32,60
,,,,,,,,,,,,,,,,,,,,5,1.265000105,5,0.526000261,1,0,1200,578,1,1199,govern,11121,2019-10-22_09h03.28.172,SurveyExpMetaMem,3.2.3,Win32,60
,,,,,,,,,,,,,,,,,,,,2,1.770000219,8,0.858000278,1,0,1200,703,1,1199,book,11121,2019-10-22_09h03.28.172,SurveyExpMetaMem,3.2.3,Win32,60
,,,,,,,,,,,,,,,,,,,,2,1.407999992,8,0.834000111,1,0,1200,780,1,1199,grass,11121,2019-10-22_09h03.28.172,SurveyExpMetaMem,3.2.3,Win32,60
,,,,,,,,,,,,,,,,,,,,5,1.444000244,5,0.149000168,1,0,1200,730,1,1199,slogan,11121,2019-10-22_09h03.28.172,SurveyExpMetaMem,3.2.3,Win32,60
,,,,,,,,,,,,,,,,,,,,5,2.185000181,5,0.139000177,1,0,1200,390,1,1199,impair,11121,2019-10-22_09h03.28.172,SurveyExpMetaMem,3.2.3,Win32,60
,,,,,,,,,,,,,,,,,,,,6,2.925000191,6,0.473000288,1,0,1200,816,1,1199,hippotamus,11121,2019-10-22_09h03.28.172,SurveyExpMetaMem,3.2.3,Win32,60
,,,,,,,,,,,,,,,,,,,,5,1.590000153,5,0.205000162,1,0,1200,1039,1,1199,stalk,11121,2019-10-22_09h03.28.172,SurveyExpMetaMem,3.2.3,Win32,60
,,,,,,,,,,,,,,,,,,,,5,0.970000267,5,0.193000317,1,0,1200,682,1,1199,camel,11121,2019-10-22_09h03.28.172,SurveyExpMetaMem,3.2.3,Win32,60
,,,,,,,,,,,,,,,,,,,,7,2.255000353,8,0.46600008,1,0,1200,98,1,1199,affection,11121,2019-10-22_09h03.28.172,SurveyExpMetaMem,3.2.3,Win32,60
,,,,,,,,,,,,,,,,,,,,5,1.537000179,5,0.163000107,1,0,1200,633,1,1199,cattle,11121,2019-10-22_09h03.28.172,SurveyExpMetaMem,3.2.3,Win32,60
,,,,,,,,,,,,,,,,,,,,6,3.209000111,3,0.745000124,1,0,1200,981,1,1199,rage,11121,2019-10-22_09h03.28.172,SurveyExpMetaMem,3.2.3,Win32,60
,,,,,,,,,,,,,,,,,,,,6,1.743000269,2,0.656000137,1,0,1200,407,1,1199,handicap,11121,2019-10-22_09h03.28.172,SurveyExpMetaMem,3.2.3,Win32,60
,,,,,,,,,,,,,,,,,,,,7,1.704000235,8,0.475000143,1,0,1200,711,1,1199,sympathetic,11121,2019-10-22_09h03.28.172,SurveyExpMetaMem,3.2.3,Win32,60
,,,,,,,,,,,,,,,,,,,,5,1.838000059,6,0.455000162,1,0,1200,161,1,1199,limousine,11121,2019-10-22_09h03.28.172,SurveyExpMetaMem,3.2.3,Win32,60
,,,,,,,,,,,,,,,,,,,,4,2.955000162,6,0.974000216,1,0,1200,886,1,1199,sunflower,11121,2019-10-22_09h03.28.172,SurveyExpMetaMem,3.2.3,Win32,60
,,,,,,,,,,,,,,,,,,,,5,1.454000235,5,0.157999992,1,0,1200,593,1,1199,errand,11121,2019-10-22_09h03.28.172,SurveyExpMetaMem,3.2.3,Win32,60
,,,,,,,,,,,,,,,,,,,,6,1.499000072,3,0.474000216,1,0,1200,927,1,1199,jail,11121,2019-10-22_09h03.28.172,SurveyExpMetaMem,3.2.3,Win32,60
,,,,,,,,,,,,,,,,,,,,5,2.756000042,5,1.62100029,1,0,1200,670,1,1199,urinate,11121,2019-10-22_09h03.28.172,SurveyExpMetaMem,3.2.3,Win32,60
,,,,,,,,,,,,,,,,,,,,5,1.068000078,5,0.225000143,1,0,1200,677,1,1199,handwriting,11121,2019-10-22_09h03.28.172,SurveyExpMetaMem,3.2.3,Win32,60
,,,,,,,,,,,,,,,,,,,,6,2.505000114,6,1.007000208,1,0,1200,234,1,1199,redeem,11121,2019-10-22_09h03.28.172,SurveyExpMetaMem,3.2.3,Win32,60
,,,,,,,,,,,,,,,,,,,,2,1.801000357,6,1.45600009,1,0,1200,789,1,1199,green,11121,2019-10-22_09h03.28.172,SurveyExpMetaMem,3.2.3,Win32,60
,,,,,,,,,,,,,,,,,,,,7,1.951000214,7,0.522000313,1,0,1200,147,1,1199,cure,11121,2019-10-22_09h03.28.172,SurveyExpMetaMem,3.2.3,Win32,60
,,,,,,,,,,,,,,,,,,,,5,1.032000065,5,0.173000336,1,0,1200,649,1,1199,donkey,11121,2019-10-22_09h03.28.172,SurveyExpMetaMem,3.2.3,Win32,60
,,,,,,,,,,,,,,,,,,,,9,1.755000114,9,1.331000328,1,0,1200,143,1,1199,weekend,11121,2019-10-22_09h03.28.172,SurveyExpMetaMem,3.2.3,Win32,60
,,,,,,,,,,,,,,,,,,,,6,2.111000061,3,0.521000147,1,0,1200,910,1,1199,abusive,11121,2019-10-22_09h03.28.172,SurveyExpMetaMem,3.2.3,Win32,60
,,,,,,,,,,,,,,,,,,,,8,4.003000021,8,0.457000017,1,0,1200,240,1,1199,giggles,11121,2019-10-22_09h03.28.172,SurveyExpMetaMem,3.2.3,Win32,60
,,,,,,,,,,,,,,,,,,,,6,1.772000313,3,0.372000217,1,0,1200,1016,1,1199,awful,11121,2019-10-22_09h03.28.172,SurveyExpMetaMem,3.2.3,Win32,60
,,,,,,,,,,,,,,,,,,,,5,1.588000298,5,0.174000025,1,0,1200,153,1,1199,teach,11121,2019-10-22_09h03.28.172,SurveyExpMetaMem,3.2.3,Win32,60
,,,,,,,,,,,,,,,,,,,,5,1.469000101,3,0.458000183,1,0,1200,343,1,1199,fever,11121,2019-10-22_09h03.28.172,SurveyExpMetaMem,3.2.3,Win32,60
,,,,,,,,,,,,,,,,,,,,5,2.605000257,3,0.593000174,1,0,1200,416,1,1199,boring,11121,2019-10-22_09h03.28.172,SurveyExpMetaMem,3.2.3,Win32,60
,,,,,,,,,,,,,,,,,,,,5,1.358000278,5,0.174000263,1,0,1200,722,1,1199,consoled,11121,2019-10-22_09h03.28.172,SurveyExpMetaMem,3.2.3,Win32,60
,,,,,,,,,,,,,,,,,,,,5,0.93900013,5,0.194000244,1,0,1200,513,1,1199,bland,11121,2019-10-22_09h03.28.172,SurveyExpMetaMem,3.2.3,Win32,60
,,,,,,,,,,,,,,,,,,,,5,1.806000233,3,0.394000292,1,0,1200,1011,1,1199,robber,11121,2019-10-22_09h03.28.172,SurveyExpMetaMem,3.2.3,Win32,60
,,,,,,,,,,,,,,,,,,,,5,1.196000099,5,0.13800025,1,0,1200,1163,1,1199,python,11121,2019-10-22_09h03.28.172,SurveyExpMetaMem,3.2.3,Win32,60
,,,,,,,,,,,,,,,,,,,,5,2.705000162,4,0.499000072,1,0,1200,1017,1,1199,aggravated,11121,2019-10-22_09h03.28.172,SurveyExpMetaMem,3.2.3,Win32,60
,,,,,,,,,,,,,,,,,,,,5,1.036000252,5,0.173000097,1,0,1200,569,1,1199,onion,11121,2019-10-22_09h03.28.172,SurveyExpMetaMem,3.2.3,Win32,60
,,,,,,,,,,,,,,,,,,,,2,1.736000061,8,0.90500021,1,0,1200,850,1,1199,lake,11121,2019-10-22_09h03.28.172,SurveyExpMetaMem,3.2.3,Win32,60
,,,,,,,,,,,,,,,,,,,,6,3.035000086,4,1.28000021,1,0,1200,987,1,1199,disgusted,11121,2019-10-22_09h03.28.172,SurveyExpMetaMem,3.2.3,Win32,60
,,,,,,,,,,,,,,,,,,,,5,1.825000048,5,0.20600009,1,0,1200,417,1,1199,dummy,11121,2019-10-22_09h03.28.172,SurveyExpMetaMem,3.2.3,Win32,60
,,,,,,,,,,,,,,,,,,,,5,1.945000172,4,0.289999962,1,0,1200,1148,1,1199,suspicious,11121,2019-10-22_09h03.28.172,SurveyExpMetaMem,3.2.3,Win32,60
,,,,,,,,,,,,,,,,,,,,5,0.997000217,5,0.18900013,1,0,1200,266,1,1199,juice,11121,2019-10-22_09h03.28.172,SurveyExpMetaMem,3.2.3,Win32,60
,,,,,,,,,,,,,,,,,,,,7,2.69900012,3,1.213999987,1,0,1200,966,1,1199,regretful,11121,2019-10-22_09h03.28.172,SurveyExpMetaMem,3.2.3,Win32,60
,,,,,,,,,,,,,,,,,,,,5,1.570000172,5,0.1650002,1,0,1200,623,1,1199,suburban,11121,2019-10-22_09h03.28.172,SurveyExpMetaMem,3.2.3,Win32,60
,,,,,,,,,,,,,,,,,,,,5,1.309000254,5,0.194000006,1,0,1200,1067,1,1199,wicked,11121,2019-10-22_09h03.28.172,SurveyExpMetaMem,3.2.3,Win32,60
,,,,,,,,,,,,,,,,,,,,7,1.794000149,6,0.438000202,1,0,1200,82,1,1199,stunning,11121,2019-10-22_09h03.28.172,SurveyExpMetaMem,3.2.3,Win32,60
,,,,,,,,,,,,,,,,,,,,5,1.317000151,5,0.15500021,1,0,1200,163,1,1199,gem,11121,2019-10-22_09h03.28.172,SurveyExpMetaMem,3.2.3,Win32,60
,,,,,,,,,,,,,,,,,,,,5,2.430999994,7,0.622000217,1,0,1200,671,1,1199,windmill,11121,2019-10-22_09h03.28.172,SurveyExpMetaMem,3.2.3,Win32,60
,,,,,,,,,,,,,,,,,,,,7,1.866000175,3,1.436000347,1,0,1200,911,1,1199,rejection,11121,2019-10-22_09h03.28.172,SurveyExpMetaMem,3.2.3,Win32,60
,,,,,,,,,,,,,,,,,,,,5,1.691000223,4,1.220000029,1,0,1200,467,1,1199,FALSE,11121,2019-10-22_09h03.28.172,SurveyExpMetaMem,3.2.3,Win32,60
,,,,,,,,,,,,,,,,,,,,5,1.525000095,5,0.156000137,1,0,1200,1050,1,1199,scorn,11121,2019-10-22_09h03.28.172,SurveyExpMetaMem,3.2.3,Win32,60
,,,,,,,,,,,,,,,,,,,,7,1.470000267,8,0.351000309,1,0,1200,298,1,1199,success,11121,2019-10-22_09h03.28.172,SurveyExpMetaMem,3.2.3,Win32,60
,,,,,,,,,,,,,,,,,,,,7,1.492000103,2,1.141000271,1,0,1200,924,1,1199,terrible,11121,2019-10-22_09h03.28.172,SurveyExpMetaMem,3.2.3,Win32,60
,,,,,,,,,,,,,,,,,,,,5,1.173000097,5,0.18900013,1,0,1200,375,1,1199,manure,11121,2019-10-22_09h03.28.172,SurveyExpMetaMem,3.2.3,Win32,60
,,,,,,,,,,,,,,,,,,,,5,0.997000217,5,0.219000101,1,0,1200,211,1,1199,surfer,11121,2019-10-22_09h03.28.172,SurveyExpMetaMem,3.2.3,Win32,60
,,,,,,,,,,,,,,,,,,,,8,1.876000166,8,0.494000196,1,0,1200,242,1,1199,triumph,11121,2019-10-22_09h03.28.172,SurveyExpMetaMem,3.2.3,Win32,60
,,,,,,,,,,,,,,,,,,,,9,1.118000269,9,0.380000114,1,0,1200,893,1,1199,nature,11121,2019-10-22_09h03.28.172,SurveyExpMetaMem,3.2.3,Win32,60
,,,,,,,,,,,,,,,,,,,,6,1.68900013,7,2.078999996,1,0,1200,1172,1,1199,overwhelmed,11121,2019-10-22_09h03.28.172,SurveyExpMetaMem,3.2.3,Win32,60
,,,,,,,,,,,,,,,,,,,,7,2.454000235,3,0.527000189,1,0,1200,1049,1,1199,electrocute,11121,2019-10-22_09h03.28.172,SurveyExpMetaMem,3.2.3,Win32,60
,,,,,,,,,,,,,,,,,,,,5,2.421000242,5,0.173000336,1,0,1200,566,1,1199,obscure,11121,2019-10-22_09h03.28.172,SurveyExpMetaMem,3.2.3,Win32,60
,,,,,,,,,,,,,,,,,,,,5,0.834000111,5,0.171000004,1,0,1200,683,1,1199,scarf,11121,2019-10-22_09h03.28.172,SurveyExpMetaMem,3.2.3,Win32,60
,,,,,,,,,,,,,,,,,,,,5,1.123000145,5,0.222000122,1,0,1200,684,1,1199,send,11121,2019-10-22_09h03.28.172,SurveyExpMetaMem,3.2.3,Win32,60
,,,,,,,,,,,,,,,,,,,,5,0.755000114,5,0.208000183,1,0,1200,460,1,1199,rag,11121,2019-10-22_09h03.28.172,SurveyExpMetaMem,3.2.3,Win32,60
,,,,,,,,,,,,,,,,,,,,8,1.555000067,3,1.121000051,1,0,1200,1100,1,1199,evil,11121,2019-10-22_09h03.28.172,SurveyExpMetaMem,3.2.3,Win32,60
,,,,,,,,,,,,,,,,,,,,5,1.33100009,5,0.176000118,1,0,1200,630,1,1199,website,11121,2019-10-22_09h03.28.172,SurveyExpMetaMem,3.2.3,Win32,60
,,,,,,,,,,,,,,,,,,,,2,1.474000216,8,1.060000181,1,0,1200,871,1,1199,comfort,11121,2019-10-22_09h03.28.172,SurveyExpMetaMem,3.2.3,Win32,60
,,,,,,,,,,,,,,,,,,,,5,1.474000216,5,0.184000015,1,0,1200,553,1,1199,corner,11121,2019-10-22_09h03.28.172,SurveyExpMetaMem,3.2.3,Win32,60
,,,,,,,,,,,,,,,,,,,,5,1.096000195,5,0.197999954,1,0,1200,636,1,1199,refine,11121,2019-10-22_09h03.28.172,SurveyExpMetaMem,3.2.3,Win32,60
,,,,,,,,,,,,,,,,,,,,5,1.502000332,5,0.18200016,1,0,1200,818,1,1199,priest,11121,2019-10-22_09h03.28.172,SurveyExpMetaMem,3.2.3,Win32,60
,,,,,,,,,,,,,,,,,,,,5,0.872000217,5,0.227000237,1,0,1200,624,1,1199,tower,11121,2019-10-22_09h03.28.172,SurveyExpMetaMem,3.2.3,Win32,60
,,,,,,,,,,,,,,,,,,,,5,2.772000074,4,0.360000134,1,0,1200,1074,1,1199,detain,11121,2019-10-22_09h03.28.172,SurveyExpMetaMem,3.2.3,Win32,60
,,,,,,,,,,,,,,,,,,,,5,1.326000214,5,0.239000082,1,0,1200,1114,1,1199,foe,11121,2019-10-22_09h03.28.172,SurveyExpMetaMem,3.2.3,Win32,60
,,,,,,,,,,,,,,,,,,,,5,2.771000147,5,0.164000273,1,0,1200,145,1,1199,me,11121,2019-10-22_09h03.28.172,SurveyExpMetaMem,3.2.3,Win32,60
,,,,,,,,,,,,,,,,,,,,4,1.906000137,6,0.741000175,1,0,1200,727,1,1199,author,11121,2019-10-22_09h03.28.172,SurveyExpMetaMem,3.2.3,Win32,60
,,,,,,,,,,,,,,,,,,,,7,1.703000069,3,0.705000162,1,0,1200,1068,1,1199,riot,11121,2019-10-22_09h03.28.172,SurveyExpMetaMem,3.2.3,Win32,60
,,,,,,,,,,,,,,,,,,,,5,1.225000143,5,0.171000242,1,0,1200,564,1,1199,wane,11121,2019-10-22_09h03.28.172,SurveyExpMetaMem,3.2.3,Win32,60
,,,,,,,,,,,,,,,,,,,,5,0.811000109,5,0.171000242,1,0,1200,393,1,1199,droop,11121,2019-10-22_09h03.28.172,SurveyExpMetaMem,3.2.3,Win32,60
,,,,,,,,,,,,,,,,,,,,5,1.07400012,5,0.183000088,1,0,1200,755,1,1199,soap,11121,2019-10-22_09h03.28.172,SurveyExpMetaMem,3.2.3,Win32,60
,,,,,,,,,,,,,,,,,,,,6,2.435000181,7,0.606000185,1,0,1200,872,1,1199,dignified,11121,2019-10-22_09h03.28.172,SurveyExpMetaMem,3.2.3,Win32,60
,,,,,,,,,,,,,,,,,,,,5,1.122000217,5,0.164000273,1,0,1200,637,1,1199,flock,11121,2019-10-22_09h03.28.172,SurveyExpMetaMem,3.2.3,Win32,60
,,,,,,,,,,,,,,,,,,,,8,1.62100029,3,1.016000271,1,0,1200,958,1,1199,traitor,11121,2019-10-22_09h03.28.172,SurveyExpMetaMem,3.2.3,Win32,60
,,,,,,,,,,,,,,,,,,,,6,3.13800025,8,0.605000019,1,0,1200,824,1,1199,favor,11121,2019-10-22_09h03.28.172,SurveyExpMetaMem,3.2.3,Win32,60
,,,,,,,,,,,,,,,,,,,,6,1.911000013,3,0.811000109,1,0,1200,414,1,1199,pity,11121,2019-10-22_09h03.28.172,SurveyExpMetaMem,3.2.3,Win32,60
,,,,,,,,,,,,,,,,,,,,5,1.322000265,5,0.167000294,1,0,1200,129,1,1199,fly,11121,2019-10-22_09h03.28.172,SurveyExpMetaMem,3.2.3,Win32,60
,,,,,,,,,,,,,,,,,,,,5,2.353000164,2,0.465000153,1,0,1200,1015,1,1199,frighten,11121,2019-10-22_09h03.28.172,SurveyExpMetaMem,3.2.3,Win32,60
,,,,,,,,,,,,,,,,,,,,6,1.534000158,3,0.517000198,1,0,1200,1137,1,1199,knife,11121,2019-10-22_09h03.28.172,SurveyExpMetaMem,3.2.3,Win32,60
,,,,,,,,,,,,,,,,,,,,5,1.220000267,5,0.175000191,1,0,1200,104,1,1199,freeway,11121,2019-10-22_09h03.28.172,SurveyExpMetaMem,3.2.3,Win32,60
,,,,,,,,,,,,,,,,,,,,5,1.319000244,5,0.238000393,1,0,1200,508,1,1199,haphazard,11121,2019-10-22_09h03.28.172,SurveyExpMetaMem,3.2.3,Win32,60
,,,,,,,,,,,,,,,,,,,,6,2.090000153,6,3.248000145,1,0,1200,100,1,1199,intense,11121,2019-10-22_09h03.28.172,SurveyExpMetaMem,3.2.3,Win32,60
,,,,,,,,,,,,,,,,,,,,7,1.453000307,4,1.930000067,1,0,1200,1168,1,1199,financial,11121,2019-10-22_09h03.28.172,SurveyExpMetaMem,3.2.3,Win32,60
,,,,,,,,,,,,,,,,,,,,5,0.988000154,5,0.213000059,1,0,1200,607,1,1199,greyhound,11121,2019-10-22_09h03.28.172,SurveyExpMetaMem,3.2.3,Win32,60
,,,,,,,,,,,,,,,,,,,,5,0.785000324,5,0.164000273,1,0,1200,597,1,1199,drool,11121,2019-10-22_09h03.28.172,SurveyExpMetaMem,3.2.3,Win32,60
,,,,,,,,,,,,,,,,,,,,3,3.089000225,7,0.84100008,1,0,1200,737,1,1199,lamb,11121,2019-10-22_09h03.28.172,SurveyExpMetaMem,3.2.3,Win32,60
,,,,,,,,,,,,,,,,,,,,6,4.090000153,4,0.354000092,1,0,1200,1134,1,1199,obsessed,11121,2019-10-22_09h03.28.172,SurveyExpMetaMem,3.2.3,Win32,60
,,,,,,,,,,,,,,,,,,,,5,1.696000099,3,0.470000267,1,0,1200,329,1,1199,worse,11121,2019-10-22_09h03.28.172,SurveyExpMetaMem,3.2.3,Win32,60
,,,,,,,,,,,,,,,,,,,,7,2.120000124,4,0.82400012,1,0,1200,1021,1,1199,attack,11121,2019-10-22_09h03.28.172,SurveyExpMetaMem,3.2.3,Win32,60
,,,,,,,,,,,,,,,,,,,,7,1.537000179,3,0.440000296,1,0,1200,928,1,1199,cruel,11121,2019-10-22_09h03.28.172,SurveyExpMetaMem,3.2.3,Win32,60
,,,,,,,,,,,,,,,,,,,,5,1.400000095,5,0.171000242,1,0,1200,608,1,1199,carrot,11121,2019-10-22_09h03.28.172,SurveyExpMetaMem,3.2.3,Win32,60
,,,,,,,,,,,,,,,,,,,,6,6.629000187,7,0.425000191,1,0,1200,164,1,1199,marry,11121,2019-10-22_09h03.28.172,SurveyExpMetaMem,3.2.3,Win32,60
,,,,,,,,,,,,,,,,,,,,8,1.836000204,8,0.961000204,1,0,1200,244,1,1199,sexy,11121,2019-10-22_09h03.28.172,SurveyExpMetaMem,3.2.3,Win32,60
,,,,,,,,,,,,,,,,,,,,6,1.812000275,7,0.260000229,1,0,1200,828,1,1199,cooperative,11121,2019-10-22_09h03.28.172,SurveyExpMetaMem,3.2.3,Win32,60
,,,,,,,,,,,,,,,,,,,,5,1.402000189,5,0.190000296,1,0,1200,665,1,1199,read,11121,2019-10-22_09h03.28.172,SurveyExpMetaMem,3.2.3,Win32,60
,,,,,,,,,,,,,,,,,,,,5,0.810000181,5,0.215000153,1,0,1200,22,1,1199,doughnut,11121,2019-10-22_09h03.28.172,SurveyExpMetaMem,3.2.3,Win32,60
,,,,,,,,,,,,,,,,,,,,7,1.634000301,2,0.490000248,1,0,1200,1028,1,1199,terror,11121,2019-10-22_09h03.28.172,SurveyExpMetaMem,3.2.3,Win32,60
,,,,,,,,,,,,,,,,,,,,1,1.471000195,9,0.688000202,1,0,1200,817,1,1199,countryside,11121,2019-10-22_09h03.28.172,SurveyExpMetaMem,3.2.3,Win32,60
,,,,,,,,,,,,,,,,,,,,5,1.639000177,5,0.15500021,1,0,1200,861,1,1199,nectar,11121,2019-10-22_09h03.28.172,SurveyExpMetaMem,3.2.3,Win32,60
,,,,,,,,,,,,,,,,,,,,5,2.569000006,5,0.194000006,1,0,1200,866,1,1199,haven,11121,2019-10-22_09h03.28.172,SurveyExpMetaMem,3.2.3,Win32,60
,,,,,,,,,,,,,,,,,,,,8,2.143000126,8,0.509000301,1,0,1200,832,1,1199,candy,11121,2019-10-22_09h03.28.172,SurveyExpMetaMem,3.2.3,Win32,60
,,,,,,,,,,,,,,,,,,,,7,1.690000057,7,0.455000162,1,0,1200,185,1,1199,flirt,11121,2019-10-22_09h03.28.172,SurveyExpMetaMem,3.2.3,Win32,60
,,,,,,,,,,,,,,,,,,,,5,2.404000044,2,0.488000154,1,0,1200,311,1,1199,discomfort,11121,2019-10-22_09h03.28.172,SurveyExpMetaMem,3.2.3,Win32,60
,,,,,,,,,,,,,,,,,,,,5,1.463000059,5,0.148000002,1,0,1200,56,1,1199,spice,11121,2019-10-22_09h03.28.172,SurveyExpMetaMem,3.2.3,Win32,60
,,,,,,,,,,,,,,,,,,,,5,0.89800024,5,0.156000137,1,0,1200,264,1,1199,thong,11121,2019-10-22_09h03.28.172,SurveyExpMetaMem,3.2.3,Win32,60
,,,,,,,,,,,,,,,,,,,,5,0.964000225,5,0.174000263,1,0,1200,201,1,1199,gorilla,11121,2019-10-22_09h03.28.172,SurveyExpMetaMem,3.2.3,Win32,60
,,,,,,,,,,,,,,,,,,,,5,1.062999964,5,0.180999994,1,0,1200,804,1,1199,peach,11121,2019-10-22_09h03.28.172,SurveyExpMetaMem,3.2.3,Win32,60
,,,,,,,,,,,,,,,,,,,,7,2.637000084,8,0.30700016,1,0,1200,31,1,1199,brownie,11121,2019-10-22_09h03.28.172,SurveyExpMetaMem,3.2.3,Win32,60
,,,,,,,,,,,,,,,,,,,,5,1.052999973,5,0.167000055,1,0,1200,934,1,1199,sob,11121,2019-10-22_09h03.28.172,SurveyExpMetaMem,3.2.3,Win32,60
,,,,,,,,,,,,,,,,,,,,5,1.504000187,3,0.423000097,1,0,1200,919,1,1199,loss,11121,2019-10-22_09h03.28.172,SurveyExpMetaMem,3.2.3,Win32,60
,,,,,,,,,,,,,,,,,,,,6,1.894999981,2,0.794000149,1,0,1200,1043,1,1199,scold,11121,2019-10-22_09h03.28.172,SurveyExpMetaMem,3.2.3,Win32,60
,,,,,,,,,,,,,,,,,,,,5,2.246999979,5,0.17200017,1,0,1200,1182,1,1199,pierce,11121,2019-10-22_09h03.28.172,SurveyExpMetaMem,3.2.3,Win32,60
,,,,,,,,,,,,,,,,,,,,5,0.879000187,5,0.177000284,1,0,1200,405,1,1199,fatigued,11121,2019-10-22_09h03.28.172,SurveyExpMetaMem,3.2.3,Win32,60
,,,,,,,,,,,,,,,,,,,,6,2.292000294,7,0.510000229,1,0,1200,21,1,1199,game,11121,2019-10-22_09h03.28.172,SurveyExpMetaMem,3.2.3,Win32,60
,,,,,,,,,,,,,,,,,,,,5,1.968000174,3,0.440000296,1,0,1200,376,1,1199,incompetent,11121,2019-10-22_09h03.28.172,SurveyExpMetaMem,3.2.3,Win32,60
,,,,,,,,,,,,,,,,,,,,5,1.571000099,5,0.167000055,1,0,1200,13,1,1199,mingle,11121,2019-10-22_09h03.28.172,SurveyExpMetaMem,3.2.3,Win32,60
,,,,,,,,,,,,,,,,,,,,5,0.918000221,5,0.157000303,1,0,1200,1190,1,1199,clench,11121,2019-10-22_09h03.28.172,SurveyExpMetaMem,3.2.3,Win32,60
,,,,,,,,,,,,,,,,,,,,5,1.677000284,5,0.209000111,1,0,1200,974,1,1199,roach,11121,2019-10-22_09h03.28.172,SurveyExpMetaMem,3.2.3,Win32,60
,,,,,,,,,,,,,,,,,,,,5,1.037000179,5,0.174000263,1,0,1200,1117,1,1199,court,11121,2019-10-22_09h03.28.172,SurveyExpMetaMem,3.2.3,Win32,60
,,,,,,,,,,,,,,,,,,,,5,3.36400032,3,0.323000193,1,0,1200,570,1,1199,muddy,11121,2019-10-22_09h03.28.172,SurveyExpMetaMem,3.2.3,Win32,60
,,,,,,,,,,,,,,,,,,,,7,1.891000271,7,1.25600028,1,0,1200,39,1,1199,birth,11121,2019-10-22_09h03.28.172,SurveyExpMetaMem,3.2.3,Win32,60
,,,,,,,,,,,,,,,,,,,,5,1.371000051,5,0.173000336,1,0,1200,1189,1,1199,lava,11121,2019-10-22_09h03.28.172,SurveyExpMetaMem,3.2.3,Win32,60
,,,,,,,,,,,,,,,,,,,,5,1.741000175,3,0.491000175,1,0,1200,498,1,1199,alimony,11121,2019-10-22_09h03.28.172,SurveyExpMetaMem,3.2.3,Win32,60
,,,,,,,,,,,,,,,,,,,,6,2.603000164,7,0.579000235,1,0,1200,162,1,1199,royalty,11121,2019-10-22_09h03.28.172,SurveyExpMetaMem,3.2.3,Win32,60
,,,,,,,,,,,,,,,,,,,,5,2.610000372,8,0.591000319,1,0,1200,784,1,1199,logical,11121,2019-10-22_09h03.28.172,SurveyExpMetaMem,3.2.3,Win32,60
,,,,,,,,,,,,,,,,,,,,5,1.196000099,5,0.173000336,1,0,1200,539,1,1199,novice,11121,2019-10-22_09h03.28.172,SurveyExpMetaMem,3.2.3,Win32,60
,,,,,,,,,,,,,,,,,,,,5,1.00600028,5,0.174000025,1,0,1200,2,1,1199,zealous,11121,2019-10-22_09h03.28.172,SurveyExpMetaMem,3.2.3,Win32,60
,,,,,,,,,,,,,,,,,,,,9,1.59800005,9,0.170000315,1,0,1200,199,1,1199,laughter,11121,2019-10-22_09h03.28.172,SurveyExpMetaMem,3.2.3,Win32,60
,,,,,,,,,,,,,,,,,,,,5,2.347000122,3,0.360000134,1,0,1200,510,1,1199,excuse,11121,2019-10-22_09h03.28.172,SurveyExpMetaMem,3.2.3,Win32,60
,,,,,,,,,,,,,,,,,,,,5,2.058000326,5,0.184000254,1,0,1200,990,1,1199,enraged,11121,2019-10-22_09h03.28.172,SurveyExpMetaMem,3.2.3,Win32,60
,,,,,,,,,,,,,,,,,,,,5,1.042000055,5,0.190000296,1,0,1200,965,1,1199,traffic,11121,2019-10-22_09h03.28.172,SurveyExpMetaMem,3.2.3,Win32,60
,,,,,,,,,,,,,,,,,,,,5,0.853000164,5,0.195000172,1,0,1200,156,1,1199,gym,11121,2019-10-22_09h03.28.172,SurveyExpMetaMem,3.2.3,Win32,60
,,,,,,,,,,,,,,,,,,,,7,1.783000231,8,0.404000282,1,0,1200,202,1,1199,mercy,11121,2019-10-22_09h03.28.172,SurveyExpMetaMem,3.2.3,Win32,60
,,,,,,,,,,,,,,,,,,,,6,2.000000238,3,0.521000147,1,0,1200,1037,1,1199,scared,11121,2019-10-22_09h03.28.172,SurveyExpMetaMem,3.2.3,Win32,60
,,,,,,,,,,,,,,,,,,,,6,1.504000187,3,0.492000103,1,0,1200,424,1,1199,fault,11121,2019-10-22_09h03.28.172,SurveyExpMetaMem,3.2.3,Win32,60
,,,,,,,,,,,,,,,,,,,,5,1.485000134,2,0.481000185,1,0,1200,364,1,1199,stink,11121,2019-10-22_09h03.28.172,SurveyExpMetaMem,3.2.3,Win32,60
,,,,,,,,,,,,,,,,,,,,7,2.519000053,8,0.426000118,1,0,1200,247,1,1199,graduate,11121,2019-10-22_09h03.28.172,SurveyExpMetaMem,3.2.3,Win32,60
,,,,,,,,,,,,,,,,,,,,7,2.103000164,6,1.755000114,1,0,1200,0,1,1199,dragon,11121,2019-10-22_09h03.28.172,SurveyExpMetaMem,3.2.3,Win32,60
,,,,,,,,,,,,,,,,,,,,6,3.504000187,3,0.393000126,1,0,1200,1078,1,1199,trouble,11121,2019-10-22_09h03.28.172,SurveyExpMetaMem,3.2.3,Win32,60
,,,,,,,,,,,,,,,,,,,,6,2.203000069,3,0.661000013,1,0,1200,345,1,1199,unfortunate,11121,2019-10-22_09h03.28.172,SurveyExpMetaMem,3.2.3,Win32,60
,,,,,,,,,,,,,,,,,,,,5,1.122000217,5,0.191000223,1,0,1200,524,1,1199,sigh,11121,2019-10-22_09h03.28.172,SurveyExpMetaMem,3.2.3,Win32,60
,,,,,,,,,,,,,,,,,,,,5,0.837000132,5,0.173000097,1,0,1200,819,1,1199,sheep,11121,2019-10-22_09h03.28.172,SurveyExpMetaMem,3.2.3,Win32,60
,,,,,,,,,,,,,,,,,,,,5,0.771000147,5,0.188000202,1,0,1200,1138,1,1199,wail,11121,2019-10-22_09h03.28.172,SurveyExpMetaMem,3.2.3,Win32,60
,,,,,,,,,,,,,,,,,,,,5,0.839000225,5,0.18900013,1,0,1200,647,1,1199,accord,11121,2019-10-22_09h03.28.172,SurveyExpMetaMem,3.2.3,Win32,60
,,,,,,,,,,,,,,,,,,,,5,2.78000021,4,1.443000078,1,0,1200,1183,1,1199,emotional,11121,2019-10-22_09h03.28.172,SurveyExpMetaMem,3.2.3,Win32,60
,,,,,,,,,,,,,,,,,,,,5,2.972000122,3,0.423000097,1,0,1200,358,1,1199,waste,11121,2019-10-22_09h03.28.172,SurveyExpMetaMem,3.2.3,Win32,60
,,,,,,,,,,,,,,,,,,,,5,1.079000235,5,0.179000139,1,0,1200,1105,1,1199,flee,11121,2019-10-22_09h03.28.172,SurveyExpMetaMem,3.2.3,Win32,60
,,,,,,,,,,,,,,,,,,,,6,2.406000137,3,0.370000124,1,0,1200,470,1,1199,cynical,11121,2019-10-22_09h03.28.172,SurveyExpMetaMem,3.2.3,Win32,60
,,,,,,,,,,,,,,,,,,,,7,1.441000223,3,0.717000246,1,0,1200,1052,1,1199,angry,11121,2019-10-22_09h03.28.172,SurveyExpMetaMem,3.2.3,Win32,60
,,,,,,,,,,,,,,,,,,,,7,1.788000345,8,0.423000336,1,0,1200,299,1,1199,champion,11121,2019-10-22_09h03.28.172,SurveyExpMetaMem,3.2.3,Win32,60
,,,,,,,,,,,,,,,,,,,,5,1.486000061,5,0.173000336,1,0,1200,638,1,1199,quench,11121,2019-10-22_09h03.28.172,SurveyExpMetaMem,3.2.3,Win32,60
,,,,,,,,,,,,,,,,,,,,6,2.092000246,3,0.510000229,1,0,1200,389,1,1199,gloomy,11121,2019-10-22_09h03.28.172,SurveyExpMetaMem,3.2.3,Win32,60
,,,,,,,,,,,,,,,,,,,,5,1.868000031,5,0.156000137,1,0,1200,842,1,1199,breathe,11121,2019-10-22_09h03.28.172,SurveyExpMetaMem,3.2.3,Win32,60
,,,,,,,,,,,,,,,,,,,,6,2.011000395,2,0.872000217,1,0,1200,384,1,1199,idiot,11121,2019-10-22_09h03.28.172,SurveyExpMetaMem,3.2.3,Win32,60
,,,,,,,,,,,,,,,,,,,,6,4.149000168,6,0.34400034,1,0,1200,806,1,1199,tree,11121,2019-10-22_09h03.28.172,SurveyExpMetaMem,3.2.3,Win32,60
,,,,,,,,,,,,,,,,,,,,5,1.258000135,5,0.179000139,1,0,1200,589,1,1199,coarse,11121,2019-10-22_09h03.28.172,SurveyExpMetaMem,3.2.3,Win32,60
,,,,,,,,,,,,,,,,,,,,5,0.765000105,5,0.192000151,1,0,1200,66,1,1199,zest,11121,2019-10-22_09h03.28.172,SurveyExpMetaMem,3.2.3,Win32,60
,,,,,,,,,,,,,,,,,,,,5,1.40500021,5,0.167999983,1,0,1200,801,1,1199,noon,11121,2019-10-22_09h03.28.172,SurveyExpMetaMem,3.2.3,Win32,60
,,,,,,,,,,,,,,,,,,,,7,2.308000088,8,0.587000132,1,0,1200,40,1,1199,kissing,11121,2019-10-22_09h03.28.172,SurveyExpMetaMem,3.2.3,Win32,60
,,,,,,,,,,,,,,,,,,,,5,2.552000284,6,0.22300005,1,0,1200,757,1,1199,sentiment,11121,2019-10-22_09h03.28.172,SurveyExpMetaMem,3.2.3,Win32,60
,,,,,,,,,,,,,,,,,,,,5,0.994000196,5,0.198000193,1,0,1200,112,1,1199,jaguar,11121,2019-10-22_09h03.28.172,SurveyExpMetaMem,3.2.3,Win32,60
,,,,,,,,,,,,,,,,,,,,5,0.81400013,5,0.17200017,1,0,1200,357,1,1199,whine,11121,2019-10-22_09h03.28.172,SurveyExpMetaMem,3.2.3,Win32,60
,,,,,,,,,,,,,,,,,,,,6,1.491000175,3,0.438000202,1,0,1200,973,1,1199,anger,11121,2019-10-22_09h03.28.172,SurveyExpMetaMem,3.2.3,Win32,60
,,,,,,,,,,,,,,,,,,,,5,1.524000168,4,0.492000341,1,0,1200,1142,1,1199,disturb,11121,2019-10-22_09h03.28.172,SurveyExpMetaMem,3.2.3,Win32,60
,,,,,,,,,,,,,,,,,,,,3,3.243000031,6,0.980000257,1,0,1200,640,1,1199,cabin,11121,2019-10-22_09h03.28.172,SurveyExpMetaMem,3.2.3,Win32,60
,,,,,,,,,,,,,,,,,,,,5,1.429000139,5,0.161000013,1,0,1200,1118,1,1199,frantic,11121,2019-10-22_09h03.28.172,SurveyExpMetaMem,3.2.3,Win32,60
,,,,,,,,,,,,,,,,,,,,6,1.23900032,3,0.924000263,1,0,1200,1056,1,1199,crime,11121,2019-10-22_09h03.28.172,SurveyExpMetaMem,3.2.3,Win32,60
,,,,,,,,,,,,,,,,,,,,5,1.2900002,5,0.158000231,1,0,1200,222,1,1199,waterskiing,11121,2019-10-22_09h03.28.172,SurveyExpMetaMem,3.2.3,Win32,60
,,,,,,,,,,,,,,,,,,,,6,3.503000021,5,0.277000189,1,0,1200,1188,1,1199,swear,11121,2019-10-22_09h03.28.172,SurveyExpMetaMem,3.2.3,Win32,60
,,,,,,,,,,,,,,,,,,,,3,1.736999989,6,0.948000193,1,0,1200,629,1,1199,barn,11121,2019-10-22_09h03.28.172,SurveyExpMetaMem,3.2.3,Win32,60
,,,,,,,,,,,,,,,,,,,,6,3.924000025,7,0.295000076,1,0,1200,764,1,1199,coin,11121,2019-10-22_09h03.28.172,SurveyExpMetaMem,3.2.3,Win32,60
,,,,,,,,,,,,,,,,,,,,7,1.981000185,2,0.536000013,1,0,1200,1038,1,1199,pervert,11121,2019-10-22_09h03.28.172,SurveyExpMetaMem,3.2.3,Win32,60
,,,,,,,,,,,,,,,,,,,,8,1.826000214,8,0.83700037,1,0,1200,292,1,1199,birthday,11121,2019-10-22_09h03.28.172,SurveyExpMetaMem,3.2.3,Win32,60
,,,,,,,,,,,,,,,,,,,,7,1.5400002,2,0.840000153,1,0,1200,940,1,1199,war,11121,2019-10-22_09h03.28.172,SurveyExpMetaMem,3.2.3,Win32,60
,,,,,,,,,,,,,,,,,,,,2,1.937000275,8,0.768000126,1,0,1200,831,1,1199,sofa,11121,2019-10-22_09h03.28.172,SurveyExpMetaMem,3.2.3,Win32,60
,,,,,,,,,,,,,,,,,,,,5,2.202000141,5,0.173000336,1,0,1200,408,1,1199,bore,11121,2019-10-22_09h03.28.172,SurveyExpMetaMem,3.2.3,Win32,60
,,,,,,,,,,,,,,,,,,,,5,0.903000355,5,0.20600009,1,0,1200,512,1,1199,insect,11121,2019-10-22_09h03.28.172,SurveyExpMetaMem,3.2.3,Win32,60
,,,,,,,,,,,,,,,,,,,,7,5.254000187,8,0.242000103,1,0,1200,293,1,1199,succeed,11121,2019-10-22_09h03.28.172,SurveyExpMetaMem,3.2.3,Win32,60
,,,,,,,,,,,,,,,,,,,,7,1.602000237,8,0.191000223,1,0,1200,139,1,1199,generosity,11121,2019-10-22_09h03.28.172,SurveyExpMetaMem,3.2.3,Win32,60
,,,,,,,,,,,,,,,,,,,,5,2.515000105,6,0.618000269,1,0,1200,709,1,1199,ancestor,11121,2019-10-22_09h03.28.172,SurveyExpMetaMem,3.2.3,Win32,60
,,,,,,,,,,,,,,,,,,,,4,2.144000053,6,1.238000154,1,0,1200,762,1,1199,orchestra,11121,2019-10-22_09h03.28.172,SurveyExpMetaMem,3.2.3,Win32,60
,,,,,,,,,,,,,,,,,,,,5,2.07400012,5,0.183000088,1,0,1200,523,1,1199,witch,11121,2019-10-22_09h03.28.172,SurveyExpMetaMem,3.2.3,Win32,60
,,,,,,,,,,,,,,,,,,,,5,0.847000122,5,0.18900013,1,0,1200,612,1,1199,propeller,11121,2019-10-22_09h03.28.172,SurveyExpMetaMem,3.2.3,Win32,60
,,,,,,,,,,,,,,,,,,,,5,1.22300005,5,0.206000328,1,0,1200,750,1,1199,porpoise,11121,2019-10-22_09h03.28.172,SurveyExpMetaMem,3.2.3,Win32,60
,,,,,,,,,,,,,,,,,,,,7,1.541000128,8,0.22300005,1,0,1200,99,1,1199,funny,11121,2019-10-22_09h03.28.172,SurveyExpMetaMem,3.2.3,Win32,60
,,,,,,,,,,,,,,,,,,,,5,1.371000051,5,0.171000242,1,0,1200,1196,1,1199,breathless,11121,2019-10-22_09h03.28.172,SurveyExpMetaMem,3.2.3,Win32,60
,,,,,,,,,,,,,,,,,,,,7,2.72300005,4,1.777000189,1,0,1200,1032,1,1199,exam,11121,2019-10-22_09h03.28.172,SurveyExpMetaMem,3.2.3,Win32,60
,,,,,,,,,,,,,,,,,,,,6,4.534000158,6,0.187000036,1,0,1200,144,1,1199,aroused,11121,2019-10-22_09h03.28.172,SurveyExpMetaMem,3.2.3,Win32,60
,,,,,,,,,,,,,,,,,,,,3,1.541000128,7,0.741000175,1,0,1200,854,1,1199,river,11121,2019-10-22_09h03.28.172,SurveyExpMetaMem,3.2.3,Win32,60
,,,,,,,,,,,,,,,,,,,,6,1.59800005,2,0.429000139,1,0,1200,909,1,1199,terrified,11121,2019-10-22_09h03.28.172,SurveyExpMetaMem,3.2.3,Win32,60
,,,,,,,,,,,,,,,,,,,,5,2.931000233,3,0.379000187,1,0,1200,992,1,1199,addict,11121,2019-10-22_09h03.28.172,SurveyExpMetaMem,3.2.3,Win32,60
,,,,,,,,,,,,,,,,,,,,5,1.122000217,5,0.174999952,1,0,1200,557,1,1199,class,11121,2019-10-22_09h03.28.172,SurveyExpMetaMem,3.2.3,Win32,60
,,,,,,,,,,,,,,,,,,,,5,0.888000011,5,0.179000139,1,0,1200,790,1,1199,binoculars,11121,2019-10-22_09h03.28.172,SurveyExpMetaMem,3.2.3,Win32,60
,,,,,,,,,,,,,,,,,,,,5,0.781000376,5,0.230000019,1,0,1200,752,1,1199,milk,11121,2019-10-22_09h03.28.172,SurveyExpMetaMem,3.2.3,Win32,60
,,,,,,,,,,,,,,,,,,,,5,1.620000124,3,0.406000137,1,0,1200,1070,1,1199,bleed,11121,2019-10-22_09h03.28.172,SurveyExpMetaMem,3.2.3,Win32,60
,,,,,,,,,,,,,,,,,,,,5,1.437000036,5,0.153000116,1,0,1200,391,1,1199,detach,11121,2019-10-22_09h03.28.172,SurveyExpMetaMem,3.2.3,Win32,60
,,,,,,,,,,,,,,,,,,,,5,1.018000126,5,0.207000256,1,0,1200,918,1,1199,gunpoint,11121,2019-10-22_09h03.28.172,SurveyExpMetaMem,3.2.3,Win32,60
,,,,,,,,,,,,,,,,,,,,5,0.924000263,5,0.190000057,1,0,1200,511,1,1199,slouch,11121,2019-10-22_09h03.28.172,SurveyExpMetaMem,3.2.3,Win32,60
,,,,,,,,,,,,,,,,,,,,5,1.22200036,5,0.221000195,1,0,1200,719,1,1199,western,11121,2019-10-22_09h03.28.172,SurveyExpMetaMem,3.2.3,Win32,60
,,,,,,,,,,,,,,,,,,,,5,1.796000242,3,0.417000055,1,0,1200,383,1,1199,messy,11121,2019-10-22_09h03.28.172,SurveyExpMetaMem,3.2.3,Win32,60
,,,,,,,,,,,,,,,,,,,,5,1.519000053,5,0.170000076,1,0,1200,497,1,1199,pungent,11121,2019-10-22_09h03.28.172,SurveyExpMetaMem,3.2.3,Win32,60
,,,,,,,,,,,,,,,,,,,,4,1.767000198,4,3.778000355,1,0,1200,496,1,1199,slow,11121,2019-10-22_09h03.28.172,SurveyExpMetaMem,3.2.3,Win32,60
,,,,,,,,,,,,,,,,,,,,8,2.241000175,5,1.353000164,1,0,1200,1,1,1199,fuck,11121,2019-10-22_09h03.28.172,SurveyExpMetaMem,3.2.3,Win32,60
,,,,,,,,,,,,,,,,,,,,5,1.538000345,5,0.174000263,1,0,1200,484,1,1199,leave,11121,2019-10-22_09h03.28.172,SurveyExpMetaMem,3.2.3,Win32,60
,,,,,,,,,,,,,,,,,,,,5,0.825000048,5,0.161000013,1,0,1200,613,1,1199,cup,11121,2019-10-22_09h03.28.172,SurveyExpMetaMem,3.2.3,Win32,60
,,,,,,,,,,,,,,,,,,,,2,1.51300025,6,2.749000311,1,0,1200,1099,1,1199,fire,11121,2019-10-22_09h03.28.172,SurveyExpMetaMem,3.2.3,Win32,60
,,,,,,,,,,,,,,,,,,,,5,1.909000158,7,0.707000256,1,0,1200,746,1,1199,proper,11121,2019-10-22_09h03.28.172,SurveyExpMetaMem,3.2.3,Win32,60
,,,,,,,,,,,,,,,,,,,,6,2.34800005,3,0.555000305,1,0,1200,921,1,1199,humiliation,11121,2019-10-22_09h03.28.172,SurveyExpMetaMem,3.2.3,Win32,60
