mouse_4.x,mouse_4.y,mouse_4.leftButton,mouse_4.midButton,mouse_4.rightButton,mouse.x,mouse.y,mouse.leftButton,mouse.midButton,mouse.rightButton,mouse_2.x,mouse_2.y,mouse_2.leftButton,mouse_2.midButton,mouse_2.rightButton,mouse_3.x,mouse_3.y,mouse_3.leftButton,mouse_3.midButton,mouse_3.rightButton,A_key_resp.keys,A_key_resp.rt,key_resp.keys,key_resp.rt,trials.thisRepN,trials.thisTrialN,trials.thisN,trials.thisIndex,trials.ran,trials.order,word,ParticipantID,date,expName,psychopyVersion,OS,frameRate
-0.095967237,0.168196995,1,0,0,-0.095967237,0.168196995,1,0,0,-0.237290015,-0.064189013,1,0,0,-0.237290015,-0.064189013,1,0,0,1,2.407000065,5,0.170999765,1,0,1200,1197,1,1199,command,47284,2019-10-29_18h10.08.855,SurveyExpMetaMem,3.2.3,MacIntel,60
,,,,,,,,,,,,,,,,,,,,1,0.556999922,5,0.193000078,1,0,1200,320,1,1199,deformed,47284,2019-10-29_18h10.08.855,SurveyExpMetaMem,3.2.3,MacIntel,60
,,,,,,,,,,,,,,,,,,,,1,0.468999863,5,0.238999844,1,0,1200,828,1,1199,cooperative,47284,2019-10-29_18h10.08.855,SurveyExpMetaMem,3.2.3,MacIntel,60
,,,,,,,,,,,,,,,,,,,,1,17.5,5,0.115999937,1,0,1200,886,1,1199,sunflower,47284,2019-10-29_18h10.08.855,SurveyExpMetaMem,3.2.3,MacIntel,60
,,,,,,,,,,,,,,,,,,,,1,0.752999783,5,0.161999941,1,0,1200,201,1,1199,gorilla,47284,2019-10-29_18h10.08.855,SurveyExpMetaMem,3.2.3,MacIntel,60
,,,,,,,,,,,,,,,,,,,,1,0.378999949,5,0.338999748,1,0,1200,271,1,1199,applaud,47284,2019-10-29_18h10.08.855,SurveyExpMetaMem,3.2.3,MacIntel,60
,,,,,,,,,,,,,,,,,,,,1,0.303999901,5,0.245000124,1,0,1200,18,1,1199,mail,47284,2019-10-29_18h10.08.855,SurveyExpMetaMem,3.2.3,MacIntel,60
,,,,,,,,,,,,,,,,,,,,1,0.254999876,5,0.255999804,1,0,1200,127,1,1199,glamorous,47284,2019-10-29_18h10.08.855,SurveyExpMetaMem,3.2.3,MacIntel,60
,,,,,,,,,,,,,,,,,,,,1,0.302999973,5,0.270999908,1,0,1200,1082,1,1199,hazard,47284,2019-10-29_18h10.08.855,SurveyExpMetaMem,3.2.3,MacIntel,60
,,,,,,,,,,,,,,,,,,,,1,0.337999821,5,0.210999966,1,0,1200,369,1,1199,blind,47284,2019-10-29_18h10.08.855,SurveyExpMetaMem,3.2.3,MacIntel,60
,,,,,,,,,,,,,,,,,,,,2,1.348999739,5,0.072999954,1,0,1200,286,1,1199,superstar,47284,2019-10-29_18h10.08.855,SurveyExpMetaMem,3.2.3,MacIntel,60
,,,,,,,,,,,,,,,,,,,,2,0.947000027,5,0.095000029,1,0,1200,1110,1,1199,bastard,47284,2019-10-29_18h10.08.855,SurveyExpMetaMem,3.2.3,MacIntel,60
,,,,,,,,,,,,,,,,,,,,1,1.194999933,5,0.11500001,1,0,1200,158,1,1199,engage,47284,2019-10-29_18h10.08.855,SurveyExpMetaMem,3.2.3,MacIntel,60
,,,,,,,,,,,,,,,,,,,,1,1.368999958,5,0.110000134,1,0,1200,722,1,1199,consoled,47284,2019-10-29_18h10.08.855,SurveyExpMetaMem,3.2.3,MacIntel,60
,,,,,,,,,,,,,,,,,,,,2,0.809000015,5,0.10800004,1,0,1200,199,1,1199,laughter,47284,2019-10-29_18h10.08.855,SurveyExpMetaMem,3.2.3,MacIntel,60
,,,,,,,,,,,,,,,,,,,,3,2.217999935,4,2.138999939,1,0,1200,922,1,1199,nightmare,47284,2019-10-29_18h10.08.855,SurveyExpMetaMem,3.2.3,MacIntel,60
,,,,,,,,,,,,,,,,,,,,2,2.148999929,6,1.024999857,1,0,1200,173,1,1199,hope,47284,2019-10-29_18h10.08.855,SurveyExpMetaMem,3.2.3,MacIntel,60
,,,,,,,,,,,,,,,,,,,,1,1.593999863,5,0.223999977,1,0,1200,597,1,1199,drool,47284,2019-10-29_18h10.08.855,SurveyExpMetaMem,3.2.3,MacIntel,60
,,,,,,,,,,,,,,,,,,,,1,0.653999805,5,0.227999926,1,0,1200,1176,1,1199,vampire,47284,2019-10-29_18h10.08.855,SurveyExpMetaMem,3.2.3,MacIntel,60
,,,,,,,,,,,,,,,,,,,,1,0.522999763,5,0.237999916,1,0,1200,795,1,1199,soup,47284,2019-10-29_18h10.08.855,SurveyExpMetaMem,3.2.3,MacIntel,60
,,,,,,,,,,,,,,,,,,,,1,0.338000059,5,0.187999964,1,0,1200,487,1,1199,junk,47284,2019-10-29_18h10.08.855,SurveyExpMetaMem,3.2.3,MacIntel,60
,,,,,,,,,,,,,,,,,,,,1,0.321999788,5,0.148999929,1,0,1200,1164,1,1199,battle,47284,2019-10-29_18h10.08.855,SurveyExpMetaMem,3.2.3,MacIntel,60
,,,,,,,,,,,,,,,,,,,,1,0.355999947,5,0.128999949,1,0,1200,703,1,1199,book,47284,2019-10-29_18h10.08.855,SurveyExpMetaMem,3.2.3,MacIntel,60
,,,,,,,,,,,,,,,,,,,,1,0.274999857,5,0.155999899,1,0,1200,885,1,1199,cozy,47284,2019-10-29_18h10.08.855,SurveyExpMetaMem,3.2.3,MacIntel,60
,,,,,,,,,,,,,,,,,,,,1,0.22699976,5,0.15899992,1,0,1200,64,1,1199,brain,47284,2019-10-29_18h10.08.855,SurveyExpMetaMem,3.2.3,MacIntel,60
,,,,,,,,,,,,,,,,,,,,1,0.131999969,5,0.157999754,1,0,1200,627,1,1199,introductory,47284,2019-10-29_18h10.08.855,SurveyExpMetaMem,3.2.3,MacIntel,60
,,,,,,,,,,,,,,,,,,,,1,0.105000019,5,0.162999868,1,0,1200,401,1,1199,feeble,47284,2019-10-29_18h10.08.855,SurveyExpMetaMem,3.2.3,MacIntel,60
,,,,,,,,,,,,,,,,,,,,1,0.109999895,5,0.190000057,1,0,1200,944,1,1199,kill,47284,2019-10-29_18h10.08.855,SurveyExpMetaMem,3.2.3,MacIntel,60
,,,,,,,,,,,,,,,,,,,,1,0.544000149,5,0.155999899,1,0,1200,689,1,1199,land,47284,2019-10-29_18h10.08.855,SurveyExpMetaMem,3.2.3,MacIntel,60
,,,,,,,,,,,,,,,,,,,,6,4.319999933,1,1.072000027,1,0,1200,1001,1,1199,rude,47284,2019-10-29_18h10.08.855,SurveyExpMetaMem,3.2.3,MacIntel,60
,,,,,,,,,,,,,,,,,,,,1,1.403000116,5,0.191999912,1,0,1200,355,1,1199,graveyard,47284,2019-10-29_18h10.08.855,SurveyExpMetaMem,3.2.3,MacIntel,60
,,,,,,,,,,,,,,,,,,,,1,0.575999975,5,0.225999832,1,0,1200,569,1,1199,onion,47284,2019-10-29_18h10.08.855,SurveyExpMetaMem,3.2.3,MacIntel,60
,,,,,,,,,,,,,,,,,,,,1,0.247999907,5,0.358999968,1,0,1200,591,1,1199,bereavement,47284,2019-10-29_18h10.08.855,SurveyExpMetaMem,3.2.3,MacIntel,60
,,,,,,,,,,,,,,,,,,,,1,0.422999859,5,0.297999859,1,0,1200,428,1,1199,end,47284,2019-10-29_18h10.08.855,SurveyExpMetaMem,3.2.3,MacIntel,60
,,,,,,,,,,,,,,,,,,,,1,0.404999733,5,0.294999838,1,0,1200,68,1,1199,perfect,47284,2019-10-29_18h10.08.855,SurveyExpMetaMem,3.2.3,MacIntel,60
,,,,,,,,,,,,,,,,,,,,1,0.312999964,5,0.344000101,1,0,1200,1132,1,1199,anarchy,47284,2019-10-29_18h10.08.855,SurveyExpMetaMem,3.2.3,MacIntel,60
,,,,,,,,,,,,,,,,,,,,4,2.981999874,1,0.792999983,1,0,1200,909,1,1199,terrified,47284,2019-10-29_18h10.08.855,SurveyExpMetaMem,3.2.3,MacIntel,60
,,,,,,,,,,,,,,,,,,,,1,1.183999777,5,0.174000025,1,0,1200,1196,1,1199,breathless,47284,2019-10-29_18h10.08.855,SurveyExpMetaMem,3.2.3,MacIntel,60
,,,,,,,,,,,,,,,,,,,,1,0.662999868,5,0.153999805,1,0,1200,181,1,1199,fascinate,47284,2019-10-29_18h10.08.855,SurveyExpMetaMem,3.2.3,MacIntel,60
,,,,,,,,,,,,,,,,,,,,1,1.234999895,5,0.112999916,1,0,1200,378,1,1199,dislike,47284,2019-10-29_18h10.08.855,SurveyExpMetaMem,3.2.3,MacIntel,60
,,,,,,,,,,,,,,,,,,,,1,0.539999962,5,0.188999891,1,0,1200,185,1,1199,flirt,47284,2019-10-29_18h10.08.855,SurveyExpMetaMem,3.2.3,MacIntel,60
,,,,,,,,,,,,,,,,,,,,1,5.475999832,5,0.188999891,1,0,1200,131,1,1199,treat,47284,2019-10-29_18h10.08.855,SurveyExpMetaMem,3.2.3,MacIntel,60
,,,,,,,,,,,,,,,,,,,,1,1.597999811,5,0.327000141,1,0,1200,155,1,1199,ignite,47284,2019-10-29_18h10.08.855,SurveyExpMetaMem,3.2.3,MacIntel,60
,,,,,,,,,,,,,,,,,,,,1,0.721999884,5,0.31099987,1,0,1200,1124,1,1199,seize,47284,2019-10-29_18h10.08.855,SurveyExpMetaMem,3.2.3,MacIntel,60
,,,,,,,,,,,,,,,,,,,,1,0.655999899,5,0.256000042,1,0,1200,1195,1,1199,speech,47284,2019-10-29_18h10.08.855,SurveyExpMetaMem,3.2.3,MacIntel,60
,,,,,,,,,,,,,,,,,,,,1,0.878999949,5,0.289000034,1,0,1200,118,1,1199,conquer,47284,2019-10-29_18h10.08.855,SurveyExpMetaMem,3.2.3,MacIntel,60
,,,,,,,,,,,,,,,,,,,,1,2.898999929,5,0.246000051,1,0,1200,879,1,1199,bird,47284,2019-10-29_18h10.08.855,SurveyExpMetaMem,3.2.3,MacIntel,60
,,,,,,,,,,,,,,,,,,,,1,1.370999813,5,0.407000065,1,0,1200,1134,1,1199,obsessed,47284,2019-10-29_18h10.08.855,SurveyExpMetaMem,3.2.3,MacIntel,60
,,,,,,,,,,,,,,,,,,,,1,1.833999872,5,0.346999884,1,0,1200,180,1,1199,embrace,47284,2019-10-29_18h10.08.855,SurveyExpMetaMem,3.2.3,MacIntel,60
,,,,,,,,,,,,,,,,,,,,1,0.477999926,5,0.211999893,1,0,1200,1131,1,1199,envious,47284,2019-10-29_18h10.08.855,SurveyExpMetaMem,3.2.3,MacIntel,60
,,,,,,,,,,,,,,,,,,,,1,1.041000128,5,0.289000034,1,0,1200,829,1,1199,innocent,47284,2019-10-29_18h10.08.855,SurveyExpMetaMem,3.2.3,MacIntel,60
,,,,,,,,,,,,,,,,,,,,1,1.328000069,5,0.273999929,1,0,1200,773,1,1199,rational,47284,2019-10-29_18h10.08.855,SurveyExpMetaMem,3.2.3,MacIntel,60
,,,,,,,,,,,,,,,,,,,,1,3.781999826,5,0.127999783,1,0,1200,1151,1,1199,drama,47284,2019-10-29_18h10.08.855,SurveyExpMetaMem,3.2.3,MacIntel,60
,,,,,,,,,,,,,,,,,,,,1,0.609999895,5,0.141000032,1,0,1200,132,1,1199,silly,47284,2019-10-29_18h10.08.855,SurveyExpMetaMem,3.2.3,MacIntel,60
,,,,,,,,,,,,,,,,,,,,1,0.869999886,5,0.116999865,1,0,1200,1048,1,1199,paranoid,47284,2019-10-29_18h10.08.855,SurveyExpMetaMem,3.2.3,MacIntel,60
,,,,,,,,,,,,,,,,,,,,1,0.559000015,5,0.130999804,1,0,1200,653,1,1199,detail,47284,2019-10-29_18h10.08.855,SurveyExpMetaMem,3.2.3,MacIntel,60
,,,,,,,,,,,,,,,,,,,,1,0.670999765,5,0.139999866,1,0,1200,681,1,1199,fig,47284,2019-10-29_18h10.08.855,SurveyExpMetaMem,3.2.3,MacIntel,60
,,,,,,,,,,,,,,,,,,,,1,0.49000001,5,0.227999926,1,0,1200,1085,1,1199,sever,47284,2019-10-29_18h10.08.855,SurveyExpMetaMem,3.2.3,MacIntel,60
,,,,,,,,,,,,,,,,,,,,1,0.420999765,5,0.298999786,1,0,1200,389,1,1199,gloomy,47284,2019-10-29_18h10.08.855,SurveyExpMetaMem,3.2.3,MacIntel,60
,,,,,,,,,,,,,,,,,,,,1,0.385999918,5,0.339999914,1,0,1200,436,1,1199,mediocre,47284,2019-10-29_18h10.08.855,SurveyExpMetaMem,3.2.3,MacIntel,60
,,,,,,,,,,,,,,,,,,,,1,0.424999952,1,2.770999908,1,0,1200,362,1,1199,despair,47284,2019-10-29_18h10.08.855,SurveyExpMetaMem,3.2.3,MacIntel,60
,,,,,,,,,,,,,,,,,,,,1,6.779999733,5,0.256000042,1,0,1200,484,1,1199,leave,47284,2019-10-29_18h10.08.855,SurveyExpMetaMem,3.2.3,MacIntel,60
,,,,,,,,,,,,,,,,,,,,1,0.485999823,5,0.254999876,1,0,1200,50,1,1199,bolt,47284,2019-10-29_18h10.08.855,SurveyExpMetaMem,3.2.3,MacIntel,60
,,,,,,,,,,,,,,,,,,,,1,0.720999956,5,0.322999954,1,0,1200,146,1,1199,congratulations,47284,2019-10-29_18h10.08.855,SurveyExpMetaMem,3.2.3,MacIntel,60
,,,,,,,,,,,,,,,,,,,,2,2.253000021,2,1.593999863,1,0,1200,913,1,1199,ulcer,47284,2019-10-29_18h10.08.855,SurveyExpMetaMem,3.2.3,MacIntel,60
,,,,,,,,,,,,,,,,,,,,1,1.04399991,5,0.20600009,1,0,1200,822,1,1199,clearer,47284,2019-10-29_18h10.08.855,SurveyExpMetaMem,3.2.3,MacIntel,60
,,,,,,,,,,,,,,,,,,,,1,0.78399992,5,0.222999811,1,0,1200,1133,1,1199,slip,47284,2019-10-29_18h10.08.855,SurveyExpMetaMem,3.2.3,MacIntel,60
,,,,,,,,,,,,,,,,,,,,1,0.631000042,5,0.289000034,1,0,1200,994,1,1199,repulsed,47284,2019-10-29_18h10.08.855,SurveyExpMetaMem,3.2.3,MacIntel,60
,,,,,,,,,,,,,,,,,,,,1,0.546000004,5,0.263000011,1,0,1200,527,1,1199,passive,47284,2019-10-29_18h10.08.855,SurveyExpMetaMem,3.2.3,MacIntel,60
,,,,,,,,,,,,,,,,,,,,1,0.523999929,5,0.295000076,1,0,1200,723,1,1199,cinnamon,47284,2019-10-29_18h10.08.855,SurveyExpMetaMem,3.2.3,MacIntel,60
,,,,,,,,,,,,,,,,,,,,1,0.707999945,5,0.171999931,1,0,1200,728,1,1199,patio,47284,2019-10-29_18h10.08.855,SurveyExpMetaMem,3.2.3,MacIntel,60
,,,,,,,,,,,,,,,,,,,,1,0.410999775,5,0.155999899,1,0,1200,512,1,1199,insect,47284,2019-10-29_18h10.08.855,SurveyExpMetaMem,3.2.3,MacIntel,60
,,,,,,,,,,,,,,,,,,,,5,4.559999943,1,0.874999762,1,0,1200,906,1,1199,syphilis,47284,2019-10-29_18h10.08.855,SurveyExpMetaMem,3.2.3,MacIntel,60
,,,,,,,,,,,,,,,,,,,,1,2.632999897,5,0.196999788,1,0,1200,1074,1,1199,detain,47284,2019-10-29_18h10.08.855,SurveyExpMetaMem,3.2.3,MacIntel,60
,,,,,,,,,,,,,,,,,,,,1,0.741999865,5,0.361999989,1,0,1200,1006,1,1199,rash,47284,2019-10-29_18h10.08.855,SurveyExpMetaMem,3.2.3,MacIntel,60
,,,,,,,,,,,,,,,,,,,,1,0.859999895,5,0.364000082,1,0,1200,1107,1,1199,snake,47284,2019-10-29_18h10.08.855,SurveyExpMetaMem,3.2.3,MacIntel,60
,,,,,,,,,,,,,,,,,,,,1,0.524999857,5,0.506999969,1,0,1200,188,1,1199,profit,47284,2019-10-29_18h10.08.855,SurveyExpMetaMem,3.2.3,MacIntel,60
,,,,,,,,,,,,,,,,,,,,1,0.805999994,5,0.419999838,1,0,1200,601,1,1199,roof,47284,2019-10-29_18h10.08.855,SurveyExpMetaMem,3.2.3,MacIntel,60
,,,,,,,,,,,,,,,,,,,,1,0.838999987,5,0.32799983,1,0,1200,214,1,1199,revive,47284,2019-10-29_18h10.08.855,SurveyExpMetaMem,3.2.3,MacIntel,60
,,,,,,,,,,,,,,,,,,,,1,0.837999821,5,0.378999949,1,0,1200,105,1,1199,curious,47284,2019-10-29_18h10.08.855,SurveyExpMetaMem,3.2.3,MacIntel,60
,,,,,,,,,,,,,,,,,,,,1,0.854000092,5,0.475999832,1,0,1200,1056,1,1199,crime,47284,2019-10-29_18h10.08.855,SurveyExpMetaMem,3.2.3,MacIntel,60
,,,,,,,,,,,,,,,,,,,,1,0.640999794,5,0.376999855,1,0,1200,409,1,1199,old,47284,2019-10-29_18h10.08.855,SurveyExpMetaMem,3.2.3,MacIntel,60
,,,,,,,,,,,,,,,,,,,,1,0.47300005,2,3.70299983,1,0,1200,1092,1,1199,rattlesnake,47284,2019-10-29_18h10.08.855,SurveyExpMetaMem,3.2.3,MacIntel,60
,,,,,,,,,,,,,,,,,,,,1,1.074999809,5,0.291999817,1,0,1200,599,1,1199,obstinate,47284,2019-10-29_18h10.08.855,SurveyExpMetaMem,3.2.3,MacIntel,60
,,,,,,,,,,,,,,,,,,,,1,0.786000013,5,0.305999756,1,0,1200,63,1,1199,clothes,47284,2019-10-29_18h10.08.855,SurveyExpMetaMem,3.2.3,MacIntel,60
,,,,,,,,,,,,,,,,,,,,1,0.572999954,5,0.322999954,1,0,1200,482,1,1199,cell,47284,2019-10-29_18h10.08.855,SurveyExpMetaMem,3.2.3,MacIntel,60
,,,,,,,,,,,,,,,,,,,,1,0.522000074,5,0.328000069,1,0,1200,1118,1,1199,frantic,47284,2019-10-29_18h10.08.855,SurveyExpMetaMem,3.2.3,MacIntel,60
,,,,,,,,,,,,,,,,,,,,1,0.562999725,8,3.765000105,1,0,1200,32,1,1199,festival,47284,2019-10-29_18h10.08.855,SurveyExpMetaMem,3.2.3,MacIntel,60
,,,,,,,,,,,,,,,,,,,,1,5.789000034,5,0.806999922,1,0,1200,643,1,1199,library,47284,2019-10-29_18h10.08.855,SurveyExpMetaMem,3.2.3,MacIntel,60
,,,,,,,,,,,,,,,,,,,,1,1.270999908,5,0.203999996,1,0,1200,190,1,1199,rescue,47284,2019-10-29_18h10.08.855,SurveyExpMetaMem,3.2.3,MacIntel,60
,,,,,,,,,,,,,,,,,,,,1,0.417999983,5,0.22300005,1,0,1200,529,1,1199,small,47284,2019-10-29_18h10.08.855,SurveyExpMetaMem,3.2.3,MacIntel,60
,,,,,,,,,,,,,,,,,,,,1,0.319999933,5,0.977999926,1,0,1200,99,1,1199,funny,47284,2019-10-29_18h10.08.855,SurveyExpMetaMem,3.2.3,MacIntel,60
,,,,,,,,,,,,,,,,,,,,1,0.363999844,5,0.271000147,1,0,1200,82,1,1199,stunning,47284,2019-10-29_18h10.08.855,SurveyExpMetaMem,3.2.3,MacIntel,60
,,,,,,,,,,,,,,,,,,,,1,0.44299984,5,0.245000124,1,0,1200,411,1,1199,bitter,47284,2019-10-29_18h10.08.855,SurveyExpMetaMem,3.2.3,MacIntel,60
,,,,,,,,,,,,,,,,,,,,1,0.33100009,5,0.357999802,1,0,1200,950,1,1199,murder,47284,2019-10-29_18h10.08.855,SurveyExpMetaMem,3.2.3,MacIntel,60
,,,,,,,,,,,,,,,,,,,,1,0.326999903,5,0.319999695,1,0,1200,259,1,1199,thin,47284,2019-10-29_18h10.08.855,SurveyExpMetaMem,3.2.3,MacIntel,60
,,,,,,,,,,,,,,,,,,,,1,0.311999798,5,0.355999947,1,0,1200,422,1,1199,doubtful,47284,2019-10-29_18h10.08.855,SurveyExpMetaMem,3.2.3,MacIntel,60
,,,,,,,,,,,,,,,,,,,,1,0.355000019,5,0.342000008,1,0,1200,1037,1,1199,scared,47284,2019-10-29_18h10.08.855,SurveyExpMetaMem,3.2.3,MacIntel,60
,,,,,,,,,,,,,,,,,,,,1,0.459000111,5,0.273000002,1,0,1200,891,1,1199,kind,47284,2019-10-29_18h10.08.855,SurveyExpMetaMem,3.2.3,MacIntel,60
,,,,,,,,,,,,,,,,,,,,1,0.305999994,5,0.322999954,1,0,1200,311,1,1199,discomfort,47284,2019-10-29_18h10.08.855,SurveyExpMetaMem,3.2.3,MacIntel,60
,,,,,,,,,,,,,,,,,,,,1,0.381000042,5,0.262999773,1,0,1200,603,1,1199,mane,47284,2019-10-29_18h10.08.855,SurveyExpMetaMem,3.2.3,MacIntel,60
,,,,,,,,,,,,,,,,,,,,1,0.322999954,5,0.263999939,1,0,1200,596,1,1199,factory,47284,2019-10-29_18h10.08.855,SurveyExpMetaMem,3.2.3,MacIntel,60
,,,,,,,,,,,,,,,,,,,,1,0.302999973,4,2.227999926,1,0,1200,987,1,1199,disgusted,47284,2019-10-29_18h10.08.855,SurveyExpMetaMem,3.2.3,MacIntel,60
,,,,,,,,,,,,,,,,,,,,1,1.055999994,5,0.342999935,1,0,1200,1191,1,1199,evade,47284,2019-10-29_18h10.08.855,SurveyExpMetaMem,3.2.3,MacIntel,60
,,,,,,,,,,,,,,,,,,,,1,2.01699996,5,0.351999998,1,0,1200,518,1,1199,report,47284,2019-10-29_18h10.08.855,SurveyExpMetaMem,3.2.3,MacIntel,60
,,,,,,,,,,,,,,,,,,,,1,0.990999937,5,0.269000053,1,0,1200,191,1,1199,compassion,47284,2019-10-29_18h10.08.855,SurveyExpMetaMem,3.2.3,MacIntel,60
,,,,,,,,,,,,,,,,,,,,1,0.487999916,5,0.339999914,1,0,1200,491,1,1199,meek,47284,2019-10-29_18h10.08.855,SurveyExpMetaMem,3.2.3,MacIntel,60
,,,,,,,,,,,,,,,,,,,,1,2.134000063,5,0.244999886,1,0,1200,632,1,1199,avenue,47284,2019-10-29_18h10.08.855,SurveyExpMetaMem,3.2.3,MacIntel,60
,,,,,,,,,,,,,,,,,,,,1,2.134000063,5,0.289000034,1,0,1200,919,1,1199,loss,47284,2019-10-29_18h10.08.855,SurveyExpMetaMem,3.2.3,MacIntel,60
,,,,,,,,,,,,,,,,,,,,1,0.230999947,5,0.295999765,1,0,1200,71,1,1199,spirit,47284,2019-10-29_18h10.08.855,SurveyExpMetaMem,3.2.3,MacIntel,60
,,,,,,,,,,,,,,,,,,,,1,0.307999849,5,0.19299984,1,0,1200,197,1,1199,happy,47284,2019-10-29_18h10.08.855,SurveyExpMetaMem,3.2.3,MacIntel,60
,,,,,,,,,,,,,,,,,,,,1,0.187999964,5,0.177999973,1,0,1200,1160,1,1199,enlist,47284,2019-10-29_18h10.08.855,SurveyExpMetaMem,3.2.3,MacIntel,60
,,,,,,,,,,,,,,,,,,,,1,0.144999981,5,0.24000001,1,0,1200,1148,1,1199,suspicious,47284,2019-10-29_18h10.08.855,SurveyExpMetaMem,3.2.3,MacIntel,60
,,,,,,,,,,,,,,,,,,,,1,0.088000059,5,0.171000004,1,0,1200,1005,1,1199,pissed,47284,2019-10-29_18h10.08.855,SurveyExpMetaMem,3.2.3,MacIntel,60
,,,,,,,,,,,,,,,,,,,,1,0.204999924,5,0.123999834,1,0,1200,374,1,1199,sluggish,47284,2019-10-29_18h10.08.855,SurveyExpMetaMem,3.2.3,MacIntel,60
,,,,,,,,,,,,,,,,,,,,1,0.148000002,5,0.183000088,1,0,1200,1021,1,1199,attack,47284,2019-10-29_18h10.08.855,SurveyExpMetaMem,3.2.3,MacIntel,60
,,,,,,,,,,,,,,,,,,,,1,0.125999928,5,0.147000074,1,0,1200,1188,1,1199,swear,47284,2019-10-29_18h10.08.855,SurveyExpMetaMem,3.2.3,MacIntel,60
,,,,,,,,,,,,,,,,,,,,1,0.118999958,5,0.144000053,1,0,1200,982,1,1199,robbery,47284,2019-10-29_18h10.08.855,SurveyExpMetaMem,3.2.3,MacIntel,60
,,,,,,,,,,,,,,,,,,,,1,0.096999884,5,0.174000025,1,0,1200,353,1,1199,blister,47284,2019-10-29_18h10.08.855,SurveyExpMetaMem,3.2.3,MacIntel,60
,,,,,,,,,,,,,,,,,,,,1,0.105000019,5,0.140000105,1,0,1200,679,1,1199,yellow,47284,2019-10-29_18h10.08.855,SurveyExpMetaMem,3.2.3,MacIntel,60
,,,,,,,,,,,,,,,,,,,,1,0.108999968,5,0.145999908,1,0,1200,42,1,1199,accomplish,47284,2019-10-29_18h10.08.855,SurveyExpMetaMem,3.2.3,MacIntel,60
,,,,,,,,,,,,,,,,,,,,1,0.138999939,5,0.125,1,0,1200,1113,1,1199,dagger,47284,2019-10-29_18h10.08.855,SurveyExpMetaMem,3.2.3,MacIntel,60
,,,,,,,,,,,,,,,,,,,,1,0.143999815,5,0.139999866,1,0,1200,161,1,1199,limousine,47284,2019-10-29_18h10.08.855,SurveyExpMetaMem,3.2.3,MacIntel,60
,,,,,,,,,,,,,,,,,,,,1,0.106999874,5,0.155999899,1,0,1200,493,1,1199,little,47284,2019-10-29_18h10.08.855,SurveyExpMetaMem,3.2.3,MacIntel,60
,,,,,,,,,,,,,,,,,,,,1,0.130000114,5,0.140999794,1,0,1200,971,1,1199,crash,47284,2019-10-29_18h10.08.855,SurveyExpMetaMem,3.2.3,MacIntel,60
,,,,,,,,,,,,,,,,,,,,1,0.137999773,5,0.139999866,1,0,1200,765,1,1199,candid,47284,2019-10-29_18h10.08.855,SurveyExpMetaMem,3.2.3,MacIntel,60
,,,,,,,,,,,,,,,,,,,,1,0.131999731,5,0.126999855,1,0,1200,887,1,1199,elegant,47284,2019-10-29_18h10.08.855,SurveyExpMetaMem,3.2.3,MacIntel,60
,,,,,,,,,,,,,,,,,,,,1,0.122999907,5,0.138999939,1,0,1200,943,1,1199,trauma,47284,2019-10-29_18h10.08.855,SurveyExpMetaMem,3.2.3,MacIntel,60
,,,,,,,,,,,,,,,,,,,,1,0.110999823,5,0.130999804,1,0,1200,881,1,1199,protected,47284,2019-10-29_18h10.08.855,SurveyExpMetaMem,3.2.3,MacIntel,60
,,,,,,,,,,,,,,,,,,,,1,0.141000032,5,0.111999989,1,0,1200,1120,1,1199,gun,47284,2019-10-29_18h10.08.855,SurveyExpMetaMem,3.2.3,MacIntel,60
,,,,,,,,,,,,,,,,,,,,1,0.146999836,5,0.279000044,1,0,1200,1193,1,1199,damn,47284,2019-10-29_18h10.08.855,SurveyExpMetaMem,3.2.3,MacIntel,60
,,,,,,,,,,,,,,,,,,,,1,0.122999907,5,0.200999737,1,0,1200,617,1,1199,tomato,47284,2019-10-29_18h10.08.855,SurveyExpMetaMem,3.2.3,MacIntel,60
,,,,,,,,,,,,,,,,,,,,1,0.150999784,5,0.323999882,1,0,1200,150,1,1199,vodka,47284,2019-10-29_18h10.08.855,SurveyExpMetaMem,3.2.3,MacIntel,60
,,,,,,,,,,,,,,,,,,,,1,0.148000002,5,0.200000048,1,0,1200,1046,1,1199,unsafe,47284,2019-10-29_18h10.08.855,SurveyExpMetaMem,3.2.3,MacIntel,60
,,,,,,,,,,,,,,,,,,,,1,0.174000025,5,0.221999884,1,0,1200,866,1,1199,haven,47284,2019-10-29_18h10.08.855,SurveyExpMetaMem,3.2.3,MacIntel,60
,,,,,,,,,,,,,,,,,,,,1,0.14199996,5,0.172999859,1,0,1200,731,1,1199,decency,47284,2019-10-29_18h10.08.855,SurveyExpMetaMem,3.2.3,MacIntel,60
,,,,,,,,,,,,,,,,,,,,1,0.286999941,5,0.141000032,1,0,1200,266,1,1199,juice,47284,2019-10-29_18h10.08.855,SurveyExpMetaMem,3.2.3,MacIntel,60
,,,,,,,,,,,,,,,,,,,,1,0.193000078,5,0.207999706,1,0,1200,227,1,1199,musician,47284,2019-10-29_18h10.08.855,SurveyExpMetaMem,3.2.3,MacIntel,60
,,,,,,,,,,,,,,,,,,,,1,0.187000036,5,0.258999825,1,0,1200,343,1,1199,fever,47284,2019-10-29_18h10.08.855,SurveyExpMetaMem,3.2.3,MacIntel,60
,,,,,,,,,,,,,,,,,,,,1,0.188999891,5,0.188999891,1,0,1200,153,1,1199,teach,47284,2019-10-29_18h10.08.855,SurveyExpMetaMem,3.2.3,MacIntel,60
,,,,,,,,,,,,,,,,,,,,1,0.18900013,5,0.171999931,1,0,1200,39,1,1199,birth,47284,2019-10-29_18h10.08.855,SurveyExpMetaMem,3.2.3,MacIntel,60
,,,,,,,,,,,,,,,,,,,,1,0.171999931,5,0.256000042,1,0,1200,289,1,1199,concert,47284,2019-10-29_18h10.08.855,SurveyExpMetaMem,3.2.3,MacIntel,60
,,,,,,,,,,,,,,,,,,,,1,0.154999971,5,0.155999899,1,0,1200,864,1,1199,blanket,47284,2019-10-29_18h10.08.855,SurveyExpMetaMem,3.2.3,MacIntel,60
,,,,,,,,,,,,,,,,,,,,1,0.139999866,5,0.172999859,1,0,1200,883,1,1199,sky,47284,2019-10-29_18h10.08.855,SurveyExpMetaMem,3.2.3,MacIntel,60
,,,,,,,,,,,,,,,,,,,,1,0.140000105,5,0.147999763,1,0,1200,751,1,1199,listen,47284,2019-10-29_18h10.08.855,SurveyExpMetaMem,3.2.3,MacIntel,60
,,,,,,,,,,,,,,,,,,,,1,0.197000027,5,0.17599988,1,0,1200,386,1,1199,pale,47284,2019-10-29_18h10.08.855,SurveyExpMetaMem,3.2.3,MacIntel,60
,,,,,,,,,,,,,,,,,,,,1,0.286999941,5,0.18900013,1,0,1200,232,1,1199,prosper,47284,2019-10-29_18h10.08.855,SurveyExpMetaMem,3.2.3,MacIntel,60
,,,,,,,,,,,,,,,,,,,,1,0.195999861,4,2.421999931,1,0,1200,910,1,1199,abusive,47284,2019-10-29_18h10.08.855,SurveyExpMetaMem,3.2.3,MacIntel,60
,,,,,,,,,,,,,,,,,,,,1,1.66899991,5,0.205999851,1,0,1200,685,1,1199,makeup,47284,2019-10-29_18h10.08.855,SurveyExpMetaMem,3.2.3,MacIntel,60
,,,,,,,,,,,,,,,,,,,,1,4.14199996,5,1.670999765,1,0,1200,29,1,1199,life,47284,2019-10-29_18h10.08.855,SurveyExpMetaMem,3.2.3,MacIntel,60
,,,,,,,,,,,,,,,,,,,,1,0.607000113,5,0.355000019,1,0,1200,803,1,1199,tidy,47284,2019-10-29_18h10.08.855,SurveyExpMetaMem,3.2.3,MacIntel,60
,,,,,,,,,,,,,,,,,,,,1,1.473999739,5,0.656999826,1,0,1200,412,1,1199,mucus,47284,2019-10-29_18h10.08.855,SurveyExpMetaMem,3.2.3,MacIntel,60
,,,,,,,,,,,,,,,,,,,,1,1.089999914,5,0.263999939,1,0,1200,1106,1,1199,pushy,47284,2019-10-29_18h10.08.855,SurveyExpMetaMem,3.2.3,MacIntel,60
,,,,,,,,,,,,,,,,,,,,1,152.859,5,0.112999916,1,0,1200,375,1,1199,manure,47284,2019-10-29_18h10.08.855,SurveyExpMetaMem,3.2.3,MacIntel,60
,,,,,,,,,,,,,,,,,,,,1,0.554999828,5,0.112999916,1,0,1200,488,1,1199,rusty,47284,2019-10-29_18h10.08.855,SurveyExpMetaMem,3.2.3,MacIntel,60
,,,,,,,,,,,,,,,,,,,,1,0.188999891,5,0.204999924,1,0,1200,298,1,1199,success,47284,2019-10-29_18h10.08.855,SurveyExpMetaMem,3.2.3,MacIntel,60
,,,,,,,,,,,,,,,,,,,,1,0.19299984,5,0.621999979,1,0,1200,1111,1,1199,bruise,47284,2019-10-29_18h10.08.855,SurveyExpMetaMem,3.2.3,MacIntel,60
,,,,,,,,,,,,,,,,,,,,1,0.891999722,5,0.286000013,1,0,1200,124,1,1199,honeymoon,47284,2019-10-29_18h10.08.855,SurveyExpMetaMem,3.2.3,MacIntel,60
,,,,,,,,,,,,,,,,,,,,1,0.70299983,5,0.188999891,1,0,1200,725,1,1199,checkerboard,47284,2019-10-29_18h10.08.855,SurveyExpMetaMem,3.2.3,MacIntel,60
,,,,,,,,,,,,,,,,,,,,1,0.288999796,5,0.339999914,1,0,1200,942,1,1199,aggravation,47284,2019-10-29_18h10.08.855,SurveyExpMetaMem,3.2.3,MacIntel,60
,,,,,,,,,,,,,,,,,,,,1,0.345999956,5,0.306999922,1,0,1200,717,1,1199,modest,47284,2019-10-29_18h10.08.855,SurveyExpMetaMem,3.2.3,MacIntel,60
,,,,,,,,,,,,,,,,,,,,1,0.330999851,5,0.553999901,1,0,1200,70,1,1199,cartoon,47284,2019-10-29_18h10.08.855,SurveyExpMetaMem,3.2.3,MacIntel,60
,,,,,,,,,,,,,,,,,,,,1,0.54399991,5,0.155999899,1,0,1200,878,1,1199,sleep,47284,2019-10-29_18h10.08.855,SurveyExpMetaMem,3.2.3,MacIntel,60
,,,,,,,,,,,,,,,,,,,,1,0.822000027,5,0.139999866,1,0,1200,1078,1,1199,trouble,47284,2019-10-29_18h10.08.855,SurveyExpMetaMem,3.2.3,MacIntel,60
,,,,,,,,,,,,,,,,,,,,1,0.57400012,5,0.147000074,1,0,1200,111,1,1199,band,47284,2019-10-29_18h10.08.855,SurveyExpMetaMem,3.2.3,MacIntel,60
,,,,,,,,,,,,,,,,,,,,1,0.521999836,5,0.154999971,1,0,1200,249,1,1199,award,47284,2019-10-29_18h10.08.855,SurveyExpMetaMem,3.2.3,MacIntel,60
,,,,,,,,,,,,,,,,,,,,1,0.654999971,5,0.12899971,1,0,1200,106,1,1199,voyage,47284,2019-10-29_18h10.08.855,SurveyExpMetaMem,3.2.3,MacIntel,60
,,,,,,,,,,,,,,,,,,,,1,0.572000027,5,0.174999952,1,0,1200,454,1,1199,damp,47284,2019-10-29_18h10.08.855,SurveyExpMetaMem,3.2.3,MacIntel,60
,,,,,,,,,,,,,,,,,,,,1,0.504999876,5,0.140999794,1,0,1200,221,1,1199,sparkle,47284,2019-10-29_18h10.08.855,SurveyExpMetaMem,3.2.3,MacIntel,60
,,,,,,,,,,,,,,,,,,,,1,0.542999983,5,0.131000042,1,0,1200,250,1,1199,erupt,47284,2019-10-29_18h10.08.855,SurveyExpMetaMem,3.2.3,MacIntel,60
,,,,,,,,,,,,,,,,,,,,1,0.492999792,5,0.139999866,1,0,1200,945,1,1199,demon,47284,2019-10-29_18h10.08.855,SurveyExpMetaMem,3.2.3,MacIntel,60
,,,,,,,,,,,,,,,,,,,,1,0.540999889,5,0.11199975,1,0,1200,134,1,1199,dollar,47284,2019-10-29_18h10.08.855,SurveyExpMetaMem,3.2.3,MacIntel,60
,,,,,,,,,,,,,,,,,,,,1,0.474999905,5,0.105999947,1,0,1200,114,1,1199,raise,47284,2019-10-29_18h10.08.855,SurveyExpMetaMem,3.2.3,MacIntel,60
,,,,,,,,,,,,,,,,,,,,1,0.471999884,5,0.114999771,1,0,1200,176,1,1199,champ,47284,2019-10-29_18h10.08.855,SurveyExpMetaMem,3.2.3,MacIntel,60
,,,,,,,,,,,,,,,,,,,,1,0.574999809,5,0.140999794,1,0,1200,1076,1,1199,embarrassed,47284,2019-10-29_18h10.08.855,SurveyExpMetaMem,3.2.3,MacIntel,60
,,,,,,,,,,,,,,,,,,,,1,0.546999931,5,0.119999886,1,0,1200,165,1,1199,sizzle,47284,2019-10-29_18h10.08.855,SurveyExpMetaMem,3.2.3,MacIntel,60
,,,,,,,,,,,,,,,,,,,,1,0.576999903,5,0.138999939,1,0,1200,560,1,1199,spurn,47284,2019-10-29_18h10.08.855,SurveyExpMetaMem,3.2.3,MacIntel,60
,,,,,,,,,,,,,,,,,,,,1,0.461999893,5,0.195999861,1,0,1200,985,1,1199,pollution,47284,2019-10-29_18h10.08.855,SurveyExpMetaMem,3.2.3,MacIntel,60
,,,,,,,,,,,,,,,,,,,,1,0.563999891,5,0.154999971,1,0,1200,869,1,1199,assure,47284,2019-10-29_18h10.08.855,SurveyExpMetaMem,3.2.3,MacIntel,60
,,,,,,,,,,,,,,,,,,,,1,0.671000004,5,0.126999855,1,0,1200,862,1,1199,ease,47284,2019-10-29_18h10.08.855,SurveyExpMetaMem,3.2.3,MacIntel,60
,,,,,,,,,,,,,,,,,,,,1,0.394000053,5,0.099999905,1,0,1200,734,1,1199,piano,47284,2019-10-29_18h10.08.855,SurveyExpMetaMem,3.2.3,MacIntel,60
,,,,,,,,,,,,,,,,,,,,1,0.493999958,5,0.121000051,1,0,1200,325,1,1199,disability,47284,2019-10-29_18h10.08.855,SurveyExpMetaMem,3.2.3,MacIntel,60
,,,,,,,,,,,,,,,,,,,,1,0.522000074,5,0.085999966,1,0,1200,693,1,1199,key,47284,2019-10-29_18h10.08.855,SurveyExpMetaMem,3.2.3,MacIntel,60
,,,,,,,,,,,,,,,,,,,,1,0.639999866,5,0.079999924,1,0,1200,288,1,1199,tasty,47284,2019-10-29_18h10.08.855,SurveyExpMetaMem,3.2.3,MacIntel,60
,,,,,,,,,,,,,,,,,,,,1,0.506999731,5,0.078999758,1,0,1200,633,1,1199,cattle,47284,2019-10-29_18h10.08.855,SurveyExpMetaMem,3.2.3,MacIntel,60
,,,,,,,,,,,,,,,,,,,,1,0.540999889,5,0.072999954,1,0,1200,314,1,1199,hopeless,47284,2019-10-29_18h10.08.855,SurveyExpMetaMem,3.2.3,MacIntel,60
,,,,,,,,,,,,,,,,,,,,1,0.444999933,5,0.092999935,1,0,1200,157,1,1199,reveal,47284,2019-10-29_18h10.08.855,SurveyExpMetaMem,3.2.3,MacIntel,60
,,,,,,,,,,,,,,,,,,,,1,0.437000036,5,0.072999954,1,0,1200,587,1,1199,dissolve,47284,2019-10-29_18h10.08.855,SurveyExpMetaMem,3.2.3,MacIntel,60
,,,,,,,,,,,,,,,,,,,,1,1.299999952,5,0.212999821,1,0,1200,499,1,1199,stop,47284,2019-10-29_18h10.08.855,SurveyExpMetaMem,3.2.3,MacIntel,60
,,,,,,,,,,,,,,,,,,,,1,0.687999964,5,0.139999866,1,0,1200,609,1,1199,candlestick,47284,2019-10-29_18h10.08.855,SurveyExpMetaMem,3.2.3,MacIntel,60
,,,,,,,,,,,,,,,,,,,,1,1.003999949,5,0.057999849,1,0,1200,129,1,1199,fly,47284,2019-10-29_18h10.08.855,SurveyExpMetaMem,3.2.3,MacIntel,60
,,,,,,,,,,,,,,,,,,,,1,0.639999866,5,0.09800005,1,0,1200,316,1,1199,sorrow,47284,2019-10-29_18h10.08.855,SurveyExpMetaMem,3.2.3,MacIntel,60
,,,,,,,,,,,,,,,,,,,,1,0.940999985,5,0.305000067,1,0,1200,433,1,1199,uninteresting,47284,2019-10-29_18h10.08.855,SurveyExpMetaMem,3.2.3,MacIntel,60
,,,,,,,,,,,,,,,,,,,,1,0.520999908,5,0.322999954,1,0,1200,1122,1,1199,gossip,47284,2019-10-29_18h10.08.855,SurveyExpMetaMem,3.2.3,MacIntel,60
,,,,,,,,,,,,,,,,,,,,1,0.600999832,5,0.446999788,1,0,1200,1112,1,1199,pressure,47284,2019-10-29_18h10.08.855,SurveyExpMetaMem,3.2.3,MacIntel,60
,,,,,,,,,,,,,,,,,,,,1,1.141000032,5,0.156999826,1,0,1200,650,1,1199,native,47284,2019-10-29_18h10.08.855,SurveyExpMetaMem,3.2.3,MacIntel,60
,,,,,,,,,,,,,,,,,,,,1,0.621000051,5,0.125,1,0,1200,503,1,1199,sludge,47284,2019-10-29_18h10.08.855,SurveyExpMetaMem,3.2.3,MacIntel,60
,,,,,,,,,,,,,,,,,,,,1,0.50999999,5,0.139999866,1,0,1200,876,1,1199,politeness,47284,2019-10-29_18h10.08.855,SurveyExpMetaMem,3.2.3,MacIntel,60
,,,,,,,,,,,,,,,,,,,,1,1.822000027,5,0.221999884,1,0,1200,179,1,1199,star,47284,2019-10-29_18h10.08.855,SurveyExpMetaMem,3.2.3,MacIntel,60
,,,,,,,,,,,,,,,,,,,,1,0.909999847,5,0.221999884,1,0,1200,549,1,1199,beet,47284,2019-10-29_18h10.08.855,SurveyExpMetaMem,3.2.3,MacIntel,60
,,,,,,,,,,,,,,,,,,,,1,0.635999918,4,2.631999969,1,0,1200,1026,1,1199,crisis,47284,2019-10-29_18h10.08.855,SurveyExpMetaMem,3.2.3,MacIntel,60
,,,,,,,,,,,,,,,,,,,,1,1.28399992,5,0.359999895,1,0,1200,489,1,1199,timid,47284,2019-10-29_18h10.08.855,SurveyExpMetaMem,3.2.3,MacIntel,60
,,,,,,,,,,,,,,,,,,,,1,0.654999971,5,0.424999952,1,0,1200,30,1,1199,impressed,47284,2019-10-29_18h10.08.855,SurveyExpMetaMem,3.2.3,MacIntel,60
,,,,,,,,,,,,,,,,,,,,1,1.111999989,5,1.138999939,1,0,1200,145,1,1199,me,47284,2019-10-29_18h10.08.855,SurveyExpMetaMem,3.2.3,MacIntel,60
,,,,,,,,,,,,,,,,,,,,1,0.824999809,5,0.437999964,1,0,1200,410,1,1199,tarnish,47284,2019-10-29_18h10.08.855,SurveyExpMetaMem,3.2.3,MacIntel,60
,,,,,,,,,,,,,,,,,,,,1,0.753000021,7,1.437999964,1,0,1200,706,1,1199,cat,47284,2019-10-29_18h10.08.855,SurveyExpMetaMem,3.2.3,MacIntel,60
,,,,,,,,,,,,,,,,,,,,1,0.718999863,5,1.171999931,1,0,1200,66,1,1199,zest,47284,2019-10-29_18h10.08.855,SurveyExpMetaMem,3.2.3,MacIntel,60
,,,,,,,,,,,,,,,,,,,,1,0.618000031,5,0.321999788,1,0,1200,758,1,1199,camera,47284,2019-10-29_18h10.08.855,SurveyExpMetaMem,3.2.3,MacIntel,60
,,,,,,,,,,,,,,,,,,,,1,0.670000076,5,0.269999981,1,0,1200,749,1,1199,glasses,47284,2019-10-29_18h10.08.855,SurveyExpMetaMem,3.2.3,MacIntel,60
,,,,,,,,,,,,,,,,,,,,1,1.373000145,7,1.306999922,1,0,1200,277,1,1199,cupcake,47284,2019-10-29_18h10.08.855,SurveyExpMetaMem,3.2.3,MacIntel,60
,,,,,,,,,,,,,,,,,,,,1,0.895999908,5,0.430999994,1,0,1200,1002,1,1199,wounds,47284,2019-10-29_18h10.08.855,SurveyExpMetaMem,3.2.3,MacIntel,60
,,,,,,,,,,,,,,,,,,,,1,1.805999756,1,0.809999943,1,0,1200,981,1,1199,rage,47284,2019-10-29_18h10.08.855,SurveyExpMetaMem,3.2.3,MacIntel,60
,,,,,,,,,,,,,,,,,,,,1,1.148000002,5,0.703999996,1,0,1200,406,1,1199,tired,47284,2019-10-29_18h10.08.855,SurveyExpMetaMem,3.2.3,MacIntel,60
,,,,,,,,,,,,,,,,,,,,1,0.768000126,5,0.355999708,1,0,1200,189,1,1199,thoughtful,47284,2019-10-29_18h10.08.855,SurveyExpMetaMem,3.2.3,MacIntel,60
,,,,,,,,,,,,,,,,,,,,1,0.872999907,6,1.38499999,1,0,1200,849,1,1199,blue,47284,2019-10-29_18h10.08.855,SurveyExpMetaMem,3.2.3,MacIntel,60
,,,,,,,,,,,,,,,,,,,,1,0.856999874,5,1.70600009,1,0,1200,270,1,1199,toddler,47284,2019-10-29_18h10.08.855,SurveyExpMetaMem,3.2.3,MacIntel,60
,,,,,,,,,,,,,,,,,,,,1,0.802000046,6,1.135999918,1,0,1200,27,1,1199,gourmet,47284,2019-10-29_18h10.08.855,SurveyExpMetaMem,3.2.3,MacIntel,60
,,,,,,,,,,,,,,,,,,,,1,0.984999895,5,0.299999952,1,0,1200,15,1,1199,curiosity,47284,2019-10-29_18h10.08.855,SurveyExpMetaMem,3.2.3,MacIntel,60
,,,,,,,,,,,,,,,,,,,,1,1.09499979,5,0.50999999,1,0,1200,349,1,1199,mope,47284,2019-10-29_18h10.08.855,SurveyExpMetaMem,3.2.3,MacIntel,60
,,,,,,,,,,,,,,,,,,,,1,1.132999897,5,0.199999809,1,0,1200,651,1,1199,bathroom,47284,2019-10-29_18h10.08.855,SurveyExpMetaMem,3.2.3,MacIntel,60
,,,,,,,,,,,,,,,,,,,,1,1.493000031,1,0.495999813,1,0,1200,1053,1,1199,surgery,47284,2019-10-29_18h10.08.855,SurveyExpMetaMem,3.2.3,MacIntel,60
,,,,,,,,,,,,,,,,,,,,1,0.691999912,5,0.297999859,1,0,1200,509,1,1199,ash,47284,2019-10-29_18h10.08.855,SurveyExpMetaMem,3.2.3,MacIntel,60
,,,,,,,,,,,,,,,,,,,,1,1.069999933,1,0.445999861,1,0,1200,938,1,1199,seasick,47284,2019-10-29_18h10.08.855,SurveyExpMetaMem,3.2.3,MacIntel,60
,,,,,,,,,,,,,,,,,,,,1,0.506000042,1,0.656999826,1,0,1200,370,1,1199,rodent,47284,2019-10-29_18h10.08.855,SurveyExpMetaMem,3.2.3,MacIntel,60
,,,,,,,,,,,,,,,,,,,,1,0.904999971,1,0.27699995,1,0,1200,366,1,1199,fatigue,47284,2019-10-29_18h10.08.855,SurveyExpMetaMem,3.2.3,MacIntel,60
,,,,,,,,,,,,,,,,,,,,1,1.059000015,5,0.22300005,1,0,1200,120,1,1199,imaginative,47284,2019-10-29_18h10.08.855,SurveyExpMetaMem,3.2.3,MacIntel,60
,,,,,,,,,,,,,,,,,,,,1,1.569999933,5,0.246999979,1,0,1200,565,1,1199,frozen,47284,2019-10-29_18h10.08.855,SurveyExpMetaMem,3.2.3,MacIntel,60
,,,,,,,,,,,,,,,,,,,,1,0.687000036,5,1.386999846,1,0,1200,521,1,1199,laundry,47284,2019-10-29_18h10.08.855,SurveyExpMetaMem,3.2.3,MacIntel,60
,,,,,,,,,,,,,,,,,,,,1,0.984999895,5,0.303999901,1,0,1200,781,1,1199,emerald,47284,2019-10-29_18h10.08.855,SurveyExpMetaMem,3.2.3,MacIntel,60
,,,,,,,,,,,,,,,,,,,,1,0.503999949,5,0.279999733,1,0,1200,442,1,1199,foolish,47284,2019-10-29_18h10.08.855,SurveyExpMetaMem,3.2.3,MacIntel,60
,,,,,,,,,,,,,,,,,,,,1,0.526000023,5,0.388999939,1,0,1200,237,1,1199,beautiful,47284,2019-10-29_18h10.08.855,SurveyExpMetaMem,3.2.3,MacIntel,60
,,,,,,,,,,,,,,,,,,,,1,0.621000051,5,0.323999882,1,0,1200,571,1,1199,marrow,47284,2019-10-29_18h10.08.855,SurveyExpMetaMem,3.2.3,MacIntel,60
,,,,,,,,,,,,,,,,,,,,1,0.708999872,5,0.421999931,1,0,1200,222,1,1199,waterskiing,47284,2019-10-29_18h10.08.855,SurveyExpMetaMem,3.2.3,MacIntel,60
,,,,,,,,,,,,,,,,,,,,1,0.858999968,5,0.443999767,1,0,1200,1154,1,1199,politics,47284,2019-10-29_18h10.08.855,SurveyExpMetaMem,3.2.3,MacIntel,60
,,,,,,,,,,,,,,,,,,,,1,0.610000134,5,0.371999979,1,0,1200,256,1,1199,galaxy,47284,2019-10-29_18h10.08.855,SurveyExpMetaMem,3.2.3,MacIntel,60
,,,,,,,,,,,,,,,,,,,,1,0.919999838,6,0.79399991,1,0,1200,87,1,1199,cookie,47284,2019-10-29_18h10.08.855,SurveyExpMetaMem,3.2.3,MacIntel,60
,,,,,,,,,,,,,,,,,,,,1,0.687000036,5,0.521999836,1,0,1200,332,1,1199,sewage,47284,2019-10-29_18h10.08.855,SurveyExpMetaMem,3.2.3,MacIntel,60
,,,,,,,,,,,,,,,,,,,,1,0.891000032,5,0.321999788,1,0,1200,646,1,1199,wear,47284,2019-10-29_18h10.08.855,SurveyExpMetaMem,3.2.3,MacIntel,60
,,,,,,,,,,,,,,,,,,,,1,0.471999884,5,0.604999781,1,0,1200,1157,1,1199,slayer,47284,2019-10-29_18h10.08.855,SurveyExpMetaMem,3.2.3,MacIntel,60
,,,,,,,,,,,,,,,,,,,,1,0.753999949,5,0.254999876,1,0,1200,230,1,1199,eager,47284,2019-10-29_18h10.08.855,SurveyExpMetaMem,3.2.3,MacIntel,60
,,,,,,,,,,,,,,,,,,,,1,0.460999727,9,1.467999935,1,0,1200,248,1,1199,win,47284,2019-10-29_18h10.08.855,SurveyExpMetaMem,3.2.3,MacIntel,60
,,,,,,,,,,,,,,,,,,,,1,1.691999912,5,0.196000099,1,0,1200,614,1,1199,crossword,47284,2019-10-29_18h10.08.855,SurveyExpMetaMem,3.2.3,MacIntel,60
,,,,,,,,,,,,,,,,,,,,1,0.539999962,5,0.17599988,1,0,1200,764,1,1199,coin,47284,2019-10-29_18h10.08.855,SurveyExpMetaMem,3.2.3,MacIntel,60
,,,,,,,,,,,,,,,,,,,,1,0.43599987,5,0.156999826,1,0,1200,379,1,1199,slob,47284,2019-10-29_18h10.08.855,SurveyExpMetaMem,3.2.3,MacIntel,60
,,,,,,,,,,,,,,,,,,,,1,1.224999905,1,0.274999857,1,0,1200,918,1,1199,gunpoint,47284,2019-10-29_18h10.08.855,SurveyExpMetaMem,3.2.3,MacIntel,60
,,,,,,,,,,,,,,,,,,,,1,0.588000059,5,0.154999971,1,0,1200,791,1,1199,shoes,47284,2019-10-29_18h10.08.855,SurveyExpMetaMem,3.2.3,MacIntel,60
,,,,,,,,,,,,,,,,,,,,1,1.017999887,5,0.157999992,1,0,1200,602,1,1199,vegetable,47284,2019-10-29_18h10.08.855,SurveyExpMetaMem,3.2.3,MacIntel,60
,,,,,,,,,,,,,,,,,,,,1,0.709000111,1,0.460000038,1,0,1200,384,1,1199,idiot,47284,2019-10-29_18h10.08.855,SurveyExpMetaMem,3.2.3,MacIntel,60
,,,,,,,,,,,,,,,,,,,,1,0.523000002,5,0.127000093,1,0,1200,175,1,1199,playground,47284,2019-10-29_18h10.08.855,SurveyExpMetaMem,3.2.3,MacIntel,60
,,,,,,,,,,,,,,,,,,,,1,0.904999971,5,0.230999947,1,0,1200,745,1,1199,inform,47284,2019-10-29_18h10.08.855,SurveyExpMetaMem,3.2.3,MacIntel,60
,,,,,,,,,,,,,,,,,,,,1,0.553999901,5,0.322999954,1,0,1200,83,1,1199,appreciative,47284,2019-10-29_18h10.08.855,SurveyExpMetaMem,3.2.3,MacIntel,60
,,,,,,,,,,,,,,,,,,,,1,0.379999876,5,0.368999958,1,0,1200,56,1,1199,spice,47284,2019-10-29_18h10.08.855,SurveyExpMetaMem,3.2.3,MacIntel,60
,,,,,,,,,,,,,,,,,,,,1,0.573999882,5,0.306999922,1,0,1200,656,1,1199,number,47284,2019-10-29_18h10.08.855,SurveyExpMetaMem,3.2.3,MacIntel,60
,,,,,,,,,,,,,,,,,,,,1,0.34100008,5,0.264999866,1,0,1200,1000,1,1199,threat,47284,2019-10-29_18h10.08.855,SurveyExpMetaMem,3.2.3,MacIntel,60
,,,,,,,,,,,,,,,,,,,,1,0.35800004,5,0.328999996,1,0,1200,80,1,1199,wonderful,47284,2019-10-29_18h10.08.855,SurveyExpMetaMem,3.2.3,MacIntel,60
,,,,,,,,,,,,,,,,,,,,1,0.364000082,5,0.279999971,1,0,1200,142,1,1199,christmas,47284,2019-10-29_18h10.08.855,SurveyExpMetaMem,3.2.3,MacIntel,60
,,,,,,,,,,,,,,,,,,,,1,0.825999975,5,0.322999716,1,0,1200,585,1,1199,tatter,47284,2019-10-29_18h10.08.855,SurveyExpMetaMem,3.2.3,MacIntel,60
,,,,,,,,,,,,,,,,,,,,1,0.454999924,5,0.355999947,1,0,1200,1149,1,1199,fight,47284,2019-10-29_18h10.08.855,SurveyExpMetaMem,3.2.3,MacIntel,60
,,,,,,,,,,,,,,,,,,,,1,0.510999918,5,0.332999945,1,0,1200,474,1,1199,weary,47284,2019-10-29_18h10.08.855,SurveyExpMetaMem,3.2.3,MacIntel,60
,,,,,,,,,,,,,,,,,,,,1,0.52699995,5,0.337000132,1,0,1200,1183,1,1199,emotional,47284,2019-10-29_18h10.08.855,SurveyExpMetaMem,3.2.3,MacIntel,60
,,,,,,,,,,,,,,,,,,,,1,0.423999786,5,0.262000084,1,0,1200,637,1,1199,flock,47284,2019-10-29_18h10.08.855,SurveyExpMetaMem,3.2.3,MacIntel,60
,,,,,,,,,,,,,,,,,,,,1,0.536000013,5,0.664999723,1,0,1200,988,1,1199,deserter,47284,2019-10-29_18h10.08.855,SurveyExpMetaMem,3.2.3,MacIntel,60
,,,,,,,,,,,,,,,,,,,,1,0.50999999,1,0.671000004,1,0,1200,1079,1,1199,critic,47284,2019-10-29_18h10.08.855,SurveyExpMetaMem,3.2.3,MacIntel,60
,,,,,,,,,,,,,,,,,,,,1,0.553999901,5,0.292999744,1,0,1200,702,1,1199,den,47284,2019-10-29_18h10.08.855,SurveyExpMetaMem,3.2.3,MacIntel,60
,,,,,,,,,,,,,,,,,,,,1,0.792999983,5,0.195999861,1,0,1200,437,1,1199,blubber,47284,2019-10-29_18h10.08.855,SurveyExpMetaMem,3.2.3,MacIntel,60
,,,,,,,,,,,,,,,,,,,,1,0.786999941,1,0.223999739,1,0,1200,1108,1,1199,spider,47284,2019-10-29_18h10.08.855,SurveyExpMetaMem,3.2.3,MacIntel,60
,,,,,,,,,,,,,,,,,,,,1,1.8349998,5,0.221999884,1,0,1200,872,1,1199,dignified,47284,2019-10-29_18h10.08.855,SurveyExpMetaMem,3.2.3,MacIntel,60
,,,,,,,,,,,,,,,,,,,,1,0.917999983,5,0.259000063,1,0,1200,1045,1,1199,scalding,47284,2019-10-29_18h10.08.855,SurveyExpMetaMem,3.2.3,MacIntel,60
,,,,,,,,,,,,,,,,,,,,1,0.849999905,5,0.154999971,1,0,1200,736,1,1199,hawk,47284,2019-10-29_18h10.08.855,SurveyExpMetaMem,3.2.3,MacIntel,60
,,,,,,,,,,,,,,,,,,,,1,0.744999886,1,1.461999893,1,0,1200,793,1,1199,virtue,47284,2019-10-29_18h10.08.855,SurveyExpMetaMem,3.2.3,MacIntel,60
,,,,,,,,,,,,,,,,,,,,1,2.092999935,5,0.463999748,1,0,1200,855,1,1199,girl,47284,2019-10-29_18h10.08.855,SurveyExpMetaMem,3.2.3,MacIntel,60
,,,,,,,,,,,,,,,,,,,,2,3.174000025,1,0.381999731,1,0,1200,377,1,1199,complain,47284,2019-10-29_18h10.08.855,SurveyExpMetaMem,3.2.3,MacIntel,60
,,,,,,,,,,,,,,,,,,,,1,1.222000122,5,0.329999924,1,0,1200,247,1,1199,graduate,47284,2019-10-29_18h10.08.855,SurveyExpMetaMem,3.2.3,MacIntel,60
,,,,,,,,,,,,,,,,,,,,2,2.878999949,1,1.005000114,1,0,1200,1031,1,1199,fear,47284,2019-10-29_18h10.08.855,SurveyExpMetaMem,3.2.3,MacIntel,60
,,,,,,,,,,,,,,,,,,,,4,2.967999935,9,1.731999874,1,0,1200,143,1,1199,weekend,47284,2019-10-29_18h10.08.855,SurveyExpMetaMem,3.2.3,MacIntel,60
,,,,,,,,,,,,,,,,,,,,5,5.57799983,8,0.626999855,1,0,1200,291,1,1199,fantastic,47284,2019-10-29_18h10.08.855,SurveyExpMetaMem,3.2.3,MacIntel,60
,,,,,,,,,,,,,,,,,,,,5,3.197000027,8,1.592999697,1,0,1200,196,1,1199,smile,47284,2019-10-29_18h10.08.855,SurveyExpMetaMem,3.2.3,MacIntel,60
,,,,,,,,,,,,,,,,,,,,1,1.203999996,5,0.207999945,1,0,1200,769,1,1199,relate,47284,2019-10-29_18h10.08.855,SurveyExpMetaMem,3.2.3,MacIntel,60
,,,,,,,,,,,,,,,,,,,,1,0.445999861,5,0.244999886,1,0,1200,1153,1,1199,mangle,47284,2019-10-29_18h10.08.855,SurveyExpMetaMem,3.2.3,MacIntel,60
,,,,,,,,,,,,,,,,,,,,1,0.444000006,5,0.291000128,1,0,1200,193,1,1199,party,47284,2019-10-29_18h10.08.855,SurveyExpMetaMem,3.2.3,MacIntel,60
,,,,,,,,,,,,,,,,,,,,1,0.487999916,5,0.320999861,1,0,1200,566,1,1199,obscure,47284,2019-10-29_18h10.08.855,SurveyExpMetaMem,3.2.3,MacIntel,60
,,,,,,,,,,,,,,,,,,,,1,1.086999893,5,0.111000061,1,0,1200,183,1,1199,congratulate,47284,2019-10-29_18h10.08.855,SurveyExpMetaMem,3.2.3,MacIntel,60
,,,,,,,,,,,,,,,,,,,,1,0.538000107,5,0.110999823,1,0,1200,928,1,1199,cruel,47284,2019-10-29_18h10.08.855,SurveyExpMetaMem,3.2.3,MacIntel,60
,,,,,,,,,,,,,,,,,,,,1,0.60800004,5,0.306999922,1,0,1200,861,1,1199,nectar,47284,2019-10-29_18h10.08.855,SurveyExpMetaMem,3.2.3,MacIntel,60
,,,,,,,,,,,,,,,,,,,,1,0.536999941,5,0.253999949,1,0,1200,77,1,1199,adore,47284,2019-10-29_18h10.08.855,SurveyExpMetaMem,3.2.3,MacIntel,60
,,,,,,,,,,,,,,,,,,,,1,0.478999853,5,0.240999937,1,0,1200,786,1,1199,afternoon,47284,2019-10-29_18h10.08.855,SurveyExpMetaMem,3.2.3,MacIntel,60
,,,,,,,,,,,,,,,,,,,,1,0.404999971,5,0.309000015,1,0,1200,283,1,1199,elated,47284,2019-10-29_18h10.08.855,SurveyExpMetaMem,3.2.3,MacIntel,60
,,,,,,,,,,,,,,,,,,,,1,1.984999895,5,0.273999929,1,0,1200,115,1,1199,sexual,47284,2019-10-29_18h10.08.855,SurveyExpMetaMem,3.2.3,MacIntel,60
,,,,,,,,,,,,,,,,,,,,1,0.786999941,5,0.34100008,1,0,1200,779,1,1199,shampoo,47284,2019-10-29_18h10.08.855,SurveyExpMetaMem,3.2.3,MacIntel,60
,,,,,,,,,,,,,,,,,,,,1,0.603999853,5,0.375999928,1,0,1200,999,1,1199,burdened,47284,2019-10-29_18h10.08.855,SurveyExpMetaMem,3.2.3,MacIntel,60
,,,,,,,,,,,,,,,,,,,,1,0.657000065,5,0.280999899,1,0,1200,169,1,1199,aid,47284,2019-10-29_18h10.08.855,SurveyExpMetaMem,3.2.3,MacIntel,60
,,,,,,,,,,,,,,,,,,,,1,0.342000008,5,0.280999899,1,0,1200,732,1,1199,humble,47284,2019-10-29_18h10.08.855,SurveyExpMetaMem,3.2.3,MacIntel,60
,,,,,,,,,,,,,,,,,,,,1,0.406999826,5,0.559000015,1,0,1200,1168,1,1199,financial,47284,2019-10-29_18h10.08.855,SurveyExpMetaMem,3.2.3,MacIntel,60
,,,,,,,,,,,,,,,,,,,,1,0.424999714,8,2.79399991,1,0,1200,294,1,1199,confident,47284,2019-10-29_18h10.08.855,SurveyExpMetaMem,3.2.3,MacIntel,60
,,,,,,,,,,,,,,,,,,,,1,1.325999737,5,0.180999756,1,0,1200,440,1,1199,forgot,47284,2019-10-29_18h10.08.855,SurveyExpMetaMem,3.2.3,MacIntel,60
,,,,,,,,,,,,,,,,,,,,1,0.471999884,5,0.240999937,1,0,1200,267,1,1199,bold,47284,2019-10-29_18h10.08.855,SurveyExpMetaMem,3.2.3,MacIntel,60
,,,,,,,,,,,,,,,,,,,,1,1.035999775,5,0.179999828,1,0,1200,611,1,1199,herring,47284,2019-10-29_18h10.08.855,SurveyExpMetaMem,3.2.3,MacIntel,60
,,,,,,,,,,,,,,,,,,,,1,0.475999832,5,0.329999924,1,0,1200,1129,1,1199,spanking,47284,2019-10-29_18h10.08.855,SurveyExpMetaMem,3.2.3,MacIntel,60
,,,,,,,,,,,,,,,,,,,,1,1259.516,5,0.079999924,1,0,1200,880,1,1199,security,47284,2019-10-29_18h10.08.855,SurveyExpMetaMem,3.2.3,MacIntel,60
,,,,,,,,,,,,,,,,,,,,1,0.496999979,5,0.15899992,1,0,1200,759,1,1199,prefer,47284,2019-10-29_18h10.08.855,SurveyExpMetaMem,3.2.3,MacIntel,60
,,,,,,,,,,,,,,,,,,,,1,2.598999739,4,2.086999893,1,0,1200,455,1,1199,chubby,47284,2019-10-29_18h10.08.855,SurveyExpMetaMem,3.2.3,MacIntel,60
,,,,,,,,,,,,,,,,,,,,1,0.592999935,5,0.163999796,1,0,1200,777,1,1199,casual,47284,2019-10-29_18h10.08.855,SurveyExpMetaMem,3.2.3,MacIntel,60
,,,,,,,,,,,,,,,,,,,,1,0.355000019,5,0.143999815,1,0,1200,947,1,1199,shame,47284,2019-10-29_18h10.08.855,SurveyExpMetaMem,3.2.3,MacIntel,60
,,,,,,,,,,,,,,,,,,,,1,0.562000036,5,0.180999994,1,0,1200,657,1,1199,peanut,47284,2019-10-29_18h10.08.855,SurveyExpMetaMem,3.2.3,MacIntel,60
,,,,,,,,,,,,,,,,,,,,1,1.201999903,4,0.110999823,1,0,1200,341,1,1199,stinky,47284,2019-10-29_18h10.08.855,SurveyExpMetaMem,3.2.3,MacIntel,60
,,,,,,,,,,,,,,,,,,,,1,0.733999729,5,0.112999916,1,0,1200,899,1,1199,relax,47284,2019-10-29_18h10.08.855,SurveyExpMetaMem,3.2.3,MacIntel,60
,,,,,,,,,,,,,,,,,,,,1,1.085999966,4,0.187999725,1,0,1200,419,1,1199,immature,47284,2019-10-29_18h10.08.855,SurveyExpMetaMem,3.2.3,MacIntel,60
,,,,,,,,,,,,,,,,,,,,1,1.131999969,6,0.477999926,1,0,1200,192,1,1199,pleased,47284,2019-10-29_18h10.08.855,SurveyExpMetaMem,3.2.3,MacIntel,60
,,,,,,,,,,,,,,,,,,,,1,0.90899992,2,0.763000011,1,0,1200,1042,1,1199,brutal,47284,2019-10-29_18h10.08.855,SurveyExpMetaMem,3.2.3,MacIntel,60
,,,,,,,,,,,,,,,,,,,,1,1.618999958,5,0.096999884,1,0,1200,467,1,1199,FALSE,47284,2019-10-29_18h10.08.855,SurveyExpMetaMem,3.2.3,MacIntel,60
,,,,,,,,,,,,,,,,,,,,1,0.427999973,5,0.371999979,1,0,1200,207,1,1199,erect,47284,2019-10-29_18h10.08.855,SurveyExpMetaMem,3.2.3,MacIntel,60
,,,,,,,,,,,,,,,,,,,,1,0.503999949,2,1.458999872,1,0,1200,1025,1,1199,deadly,47284,2019-10-29_18h10.08.855,SurveyExpMetaMem,3.2.3,MacIntel,60
,,,,,,,,,,,,,,,,,,,,1,3.146999836,2,0.523999929,1,0,1200,392,1,1199,moody,47284,2019-10-29_18h10.08.855,SurveyExpMetaMem,3.2.3,MacIntel,60
,,,,,,,,,,,,,,,,,,,,1,0.654999971,5,0.558999777,1,0,1200,281,1,1199,summer,47284,2019-10-29_18h10.08.855,SurveyExpMetaMem,3.2.3,MacIntel,60
,,,,,,,,,,,,,,,,,,,,1,0.986999989,5,0.289999962,1,0,1200,1060,1,1199,dent,47284,2019-10-29_18h10.08.855,SurveyExpMetaMem,3.2.3,MacIntel,60
,,,,,,,,,,,,,,,,,,,,1,0.710999966,5,0.254999876,1,0,1200,55,1,1199,rare,47284,2019-10-29_18h10.08.855,SurveyExpMetaMem,3.2.3,MacIntel,60
,,,,,,,,,,,,,,,,,,,,1,0.521999836,5,0.222999811,1,0,1200,445,1,1199,bleak,47284,2019-10-29_18h10.08.855,SurveyExpMetaMem,3.2.3,MacIntel,60
,,,,,,,,,,,,,,,,,,,,1,0.405999899,5,0.278999805,1,0,1200,511,1,1199,slouch,47284,2019-10-29_18h10.08.855,SurveyExpMetaMem,3.2.3,MacIntel,60
,,,,,,,,,,,,,,,,,,,,1,0.339999914,5,0.328000069,1,0,1200,152,1,1199,hire,47284,2019-10-29_18h10.08.855,SurveyExpMetaMem,3.2.3,MacIntel,60
,,,,,,,,,,,,,,,,,,,,1,0.652999878,5,0.343999863,1,0,1200,79,1,1199,dazzle,47284,2019-10-29_18h10.08.855,SurveyExpMetaMem,3.2.3,MacIntel,60
,,,,,,,,,,,,,,,,,,,,1,0.506000042,5,0.322000027,1,0,1200,1139,1,1199,scare,47284,2019-10-29_18h10.08.855,SurveyExpMetaMem,3.2.3,MacIntel,60
,,,,,,,,,,,,,,,,,,,,1,1.337999821,5,0.204999924,1,0,1200,760,1,1199,shrimp,47284,2019-10-29_18h10.08.855,SurveyExpMetaMem,3.2.3,MacIntel,60
,,,,,,,,,,,,,,,,,,,,1,2.134000063,5,0.239999771,1,0,1200,1075,1,1199,apprehension,47284,2019-10-29_18h10.08.855,SurveyExpMetaMem,3.2.3,MacIntel,60
,,,,,,,,,,,,,,,,,,,,1,0.428999901,5,0.338999748,1,0,1200,1128,1,1199,fighting,47284,2019-10-29_18h10.08.855,SurveyExpMetaMem,3.2.3,MacIntel,60
,,,,,,,,,,,,,,,,,,,,1,0.45600009,1,1.403000116,1,0,1200,559,1,1199,lazy,47284,2019-10-29_18h10.08.855,SurveyExpMetaMem,3.2.3,MacIntel,60
,,,,,,,,,,,,,,,,,,,,1,0.46999979,5,0.154999971,1,0,1200,86,1,1199,talent,47284,2019-10-29_18h10.08.855,SurveyExpMetaMem,3.2.3,MacIntel,60
,,,,,,,,,,,,,,,,,,,,1,0.636999846,5,0.106999874,1,0,1200,888,1,1199,refreshment,47284,2019-10-29_18h10.08.855,SurveyExpMetaMem,3.2.3,MacIntel,60
,,,,,,,,,,,,,,,,,,,,1,0.371999979,5,0.109999895,1,0,1200,1100,1,1199,evil,47284,2019-10-29_18h10.08.855,SurveyExpMetaMem,3.2.3,MacIntel,60
,,,,,,,,,,,,,,,,,,,,1,0.967999935,5,0.149999857,1,0,1200,133,1,1199,prosperous,47284,2019-10-29_18h10.08.855,SurveyExpMetaMem,3.2.3,MacIntel,60
,,,,,,,,,,,,,,,,,,,,1,1.277999878,5,0.143000126,1,0,1200,1054,1,1199,jealous,47284,2019-10-29_18h10.08.855,SurveyExpMetaMem,3.2.3,MacIntel,60
,,,,,,,,,,,,,,,,,,,,1,0.601999998,5,0.146999836,1,0,1200,1049,1,1199,electrocute,47284,2019-10-29_18h10.08.855,SurveyExpMetaMem,3.2.3,MacIntel,60
,,,,,,,,,,,,,,,,,,,,1,2.415999889,5,0.171999931,1,0,1200,178,1,1199,alive,47284,2019-10-29_18h10.08.855,SurveyExpMetaMem,3.2.3,MacIntel,60
,,,,,,,,,,,,,,,,,,,,1,0.57799983,5,0.196999788,1,0,1200,246,1,1199,complete,47284,2019-10-29_18h10.08.855,SurveyExpMetaMem,3.2.3,MacIntel,60
,,,,,,,,,,,,,,,,,,,,1,0.555999994,5,0.60800004,1,0,1200,43,1,1199,diamond,47284,2019-10-29_18h10.08.855,SurveyExpMetaMem,3.2.3,MacIntel,60
,,,,,,,,,,,,,,,,,,,,1,0.338999748,5,0.274999857,1,0,1200,472,1,1199,bald,47284,2019-10-29_18h10.08.855,SurveyExpMetaMem,3.2.3,MacIntel,60
,,,,,,,,,,,,,,,,,,,,1,0.43599987,5,0.139999866,1,0,1200,815,1,1199,apple,47284,2019-10-29_18h10.08.855,SurveyExpMetaMem,3.2.3,MacIntel,60
,,,,,,,,,,,,,,,,,,,,1,0.404999971,5,0.521999836,1,0,1200,978,1,1199,starving,47284,2019-10-29_18h10.08.855,SurveyExpMetaMem,3.2.3,MacIntel,60
,,,,,,,,,,,,,,,,,,,,1,0.323999882,5,0.273999929,1,0,1200,4,1,1199,night,47284,2019-10-29_18h10.08.855,SurveyExpMetaMem,3.2.3,MacIntel,60
,,,,,,,,,,,,,,,,,,,,1,0.338999987,5,0.208999872,1,0,1200,680,1,1199,candle,47284,2019-10-29_18h10.08.855,SurveyExpMetaMem,3.2.3,MacIntel,60
,,,,,,,,,,,,,,,,,,,,1,0.328999758,5,0.180999756,1,0,1200,1022,1,1199,creepy,47284,2019-10-29_18h10.08.855,SurveyExpMetaMem,3.2.3,MacIntel,60
,,,,,,,,,,,,,,,,,,,,1,0.321999788,5,0.174000025,1,0,1200,949,1,1199,thief,47284,2019-10-29_18h10.08.855,SurveyExpMetaMem,3.2.3,MacIntel,60
,,,,,,,,,,,,,,,,,,,,1,0.225999832,5,0.145999908,1,0,1200,322,1,1199,widow,47284,2019-10-29_18h10.08.855,SurveyExpMetaMem,3.2.3,MacIntel,60
,,,,,,,,,,,,,,,,,,,,1,0.154999971,5,0.221999884,1,0,1200,318,1,1199,disappointment,47284,2019-10-29_18h10.08.855,SurveyExpMetaMem,3.2.3,MacIntel,60
,,,,,,,,,,,,,,,,,,,,1,0.075999975,5,0.296999931,1,0,1200,505,1,1199,exhaust,47284,2019-10-29_18h10.08.855,SurveyExpMetaMem,3.2.3,MacIntel,60
,,,,,,,,,,,,,,,,,,,,1,0.093999863,5,0.225999832,1,0,1200,394,1,1199,dump,47284,2019-10-29_18h10.08.855,SurveyExpMetaMem,3.2.3,MacIntel,60
,,,,,,,,,,,,,,,,,,,,1,0.171999931,5,0.164000034,1,0,1200,245,1,1199,beach,47284,2019-10-29_18h10.08.855,SurveyExpMetaMem,3.2.3,MacIntel,60
,,,,,,,,,,,,,,,,,,,,1,0.140000105,5,0.154999971,1,0,1200,1125,1,1199,outrage,47284,2019-10-29_18h10.08.855,SurveyExpMetaMem,3.2.3,MacIntel,60
,,,,,,,,,,,,,,,,,,,,1,0.111000061,5,0.164999962,1,0,1200,708,1,1199,nursery,47284,2019-10-29_18h10.08.855,SurveyExpMetaMem,3.2.3,MacIntel,60
,,,,,,,,,,,,,,,,,,,,1,0.154000044,5,0.144999981,1,0,1200,390,1,1199,impair,47284,2019-10-29_18h10.08.855,SurveyExpMetaMem,3.2.3,MacIntel,60
,,,,,,,,,,,,,,,,,,,,1,0.194000006,5,0.330999851,1,0,1200,12,1,1199,mountain,47284,2019-10-29_18h10.08.855,SurveyExpMetaMem,3.2.3,MacIntel,60
,,,,,,,,,,,,,,,,,,,,1,0.322999716,5,0.225999832,1,0,1200,520,1,1199,gullible,47284,2019-10-29_18h10.08.855,SurveyExpMetaMem,3.2.3,MacIntel,60
,,,,,,,,,,,,,,,,,,,,1,0.230999947,5,0.256000042,1,0,1200,1109,1,1199,germ,47284,2019-10-29_18h10.08.855,SurveyExpMetaMem,3.2.3,MacIntel,60
,,,,,,,,,,,,,,,,,,,,1,0.181999922,5,0.239999771,1,0,1200,664,1,1199,quiet,47284,2019-10-29_18h10.08.855,SurveyExpMetaMem,3.2.3,MacIntel,60
,,,,,,,,,,,,,,,,,,,,1,0.212999821,5,0.254999876,1,0,1200,93,1,1199,smiling,47284,2019-10-29_18h10.08.855,SurveyExpMetaMem,3.2.3,MacIntel,60
,,,,,,,,,,,,,,,,,,,,1,0.138999939,5,0.181999922,1,0,1200,456,1,1199,piss,47284,2019-10-29_18h10.08.855,SurveyExpMetaMem,3.2.3,MacIntel,60
,,,,,,,,,,,,,,,,,,,,1,0.127000093,5,0.146999836,1,0,1200,268,1,1199,tickle,47284,2019-10-29_18h10.08.855,SurveyExpMetaMem,3.2.3,MacIntel,60
,,,,,,,,,,,,,,,,,,,,1,0.119999886,5,0.139999866,1,0,1200,799,1,1199,precise,47284,2019-10-29_18h10.08.855,SurveyExpMetaMem,3.2.3,MacIntel,60
,,,,,,,,,,,,,,,,,,,,1,0.082000017,5,0.174999952,1,0,1200,775,1,1199,pancakes,47284,2019-10-29_18h10.08.855,SurveyExpMetaMem,3.2.3,MacIntel,60
,,,,,,,,,,,,,,,,,,,,1,0.111999989,5,0.155999899,1,0,1200,998,1,1199,virus,47284,2019-10-29_18h10.08.855,SurveyExpMetaMem,3.2.3,MacIntel,60
,,,,,,,,,,,,,,,,,,,,1,0.092999935,5,0.161999941,1,0,1200,750,1,1199,porpoise,47284,2019-10-29_18h10.08.855,SurveyExpMetaMem,3.2.3,MacIntel,60
,,,,,,,,,,,,,,,,,,,,1,0.113999844,5,0.157999992,1,0,1200,279,1,1199,bargain,47284,2019-10-29_18h10.08.855,SurveyExpMetaMem,3.2.3,MacIntel,60
,,,,,,,,,,,,,,,,,,,,1,0.095000029,5,0.171999931,1,0,1200,686,1,1199,phone,47284,2019-10-29_18h10.08.855,SurveyExpMetaMem,3.2.3,MacIntel,60
,,,,,,,,,,,,,,,,,,,,1,0.119999886,5,0.121000051,1,0,1200,666,1,1199,verify,47284,2019-10-29_18h10.08.855,SurveyExpMetaMem,3.2.3,MacIntel,60
,,,,,,,,,,,,,,,,,,,,1,0.113999844,5,0.139999866,1,0,1200,827,1,1199,saint,47284,2019-10-29_18h10.08.855,SurveyExpMetaMem,3.2.3,MacIntel,60
,,,,,,,,,,,,,,,,,,,,1,0.048999786,5,0.125,1,0,1200,280,1,1199,cookout,47284,2019-10-29_18h10.08.855,SurveyExpMetaMem,3.2.3,MacIntel,60
,,,,,,,,,,,,,,,,,,,,1,0.173999786,5,0.126999855,1,0,1200,24,1,1199,model,47284,2019-10-29_18h10.08.855,SurveyExpMetaMem,3.2.3,MacIntel,60
,,,,,,,,,,,,,,,,,,,,1,0.121999741,5,0.141000032,1,0,1200,110,1,1199,animal,47284,2019-10-29_18h10.08.855,SurveyExpMetaMem,3.2.3,MacIntel,60
,,,,,,,,,,,,,,,,,,,,1,0.170999765,5,0.129999876,1,0,1200,695,1,1199,teacher,47284,2019-10-29_18h10.08.855,SurveyExpMetaMem,3.2.3,MacIntel,60
,,,,,,,,,,,,,,,,,,,,1,0.148999929,5,0.15899992,1,0,1200,662,1,1199,bib,47284,2019-10-29_18h10.08.855,SurveyExpMetaMem,3.2.3,MacIntel,60
,,,,,,,,,,,,,,,,,,,,1,0.128999949,5,0.146999836,1,0,1200,304,1,1199,depression,47284,2019-10-29_18h10.08.855,SurveyExpMetaMem,3.2.3,MacIntel,60
,,,,,,,,,,,,,,,,,,,,1,0.14199996,5,0.154999971,1,0,1200,414,1,1199,pity,47284,2019-10-29_18h10.08.855,SurveyExpMetaMem,3.2.3,MacIntel,60
,,,,,,,,,,,,,,,,,,,,1,0.144999743,5,0.180999994,1,0,1200,76,1,1199,midnight,47284,2019-10-29_18h10.08.855,SurveyExpMetaMem,3.2.3,MacIntel,60
,,,,,,,,,,,,,,,,,,,,1,0.502999783,5,0.273999929,1,0,1200,159,1,1199,teenager,47284,2019-10-29_18h10.08.855,SurveyExpMetaMem,3.2.3,MacIntel,60
,,,,,,,,,,,,,,,,,,,,1,0.355999947,5,0.14199996,1,0,1200,244,1,1199,sexy,47284,2019-10-29_18h10.08.855,SurveyExpMetaMem,3.2.3,MacIntel,60
,,,,,,,,,,,,,,,,,,,,1,0.172999859,5,0.105000019,1,0,1200,808,1,1199,violinist,47284,2019-10-29_18h10.08.855,SurveyExpMetaMem,3.2.3,MacIntel,60
,,,,,,,,,,,,,,,,,,,,1,0.138999701,5,0.163000107,1,0,1200,23,1,1199,earn,47284,2019-10-29_18h10.08.855,SurveyExpMetaMem,3.2.3,MacIntel,60
,,,,,,,,,,,,,,,,,,,,1,0.105000019,1,4.678999901,1,0,1200,536,1,1199,vacant,47284,2019-10-29_18h10.08.855,SurveyExpMetaMem,3.2.3,MacIntel,60
,,,,,,,,,,,,,,,,,,,,5,0.069999933,1,0.971999884,1,0,1200,477,1,1199,separate,47284,2019-10-29_18h10.08.855,SurveyExpMetaMem,3.2.3,MacIntel,60
,,,,,,,,,,,,,,,,,,,,5,0.138000011,1,0.341999769,1,0,1200,570,1,1199,muddy,47284,2019-10-29_18h10.08.855,SurveyExpMetaMem,3.2.3,MacIntel,60
,,,,,,,,,,,,,,,,,,,,5,0.144000053,1,0.227999926,1,0,1200,282,1,1199,luck,47284,2019-10-29_18h10.08.855,SurveyExpMetaMem,3.2.3,MacIntel,60
,,,,,,,,,,,,,,,,,,,,5,0.188999891,1,0.204999924,1,0,1200,1162,1,1199,baffle,47284,2019-10-29_18h10.08.855,SurveyExpMetaMem,3.2.3,MacIntel,60
,,,,,,,,,,,,,,,,,,,,5,0.210000038,1,0.157999992,1,0,1200,119,1,1199,stereo,47284,2019-10-29_18h10.08.855,SurveyExpMetaMem,3.2.3,MacIntel,60
,,,,,,,,,,,,,,,,,,,,5,0.221999884,1,0.122999907,1,0,1200,897,1,1199,peaceful,47284,2019-10-29_18h10.08.855,SurveyExpMetaMem,3.2.3,MacIntel,60
,,,,,,,,,,,,,,,,,,,,5,0.173999786,1,0.128000021,1,0,1200,435,1,1199,grovel,47284,2019-10-29_18h10.08.855,SurveyExpMetaMem,3.2.3,MacIntel,60
,,,,,,,,,,,,,,,,,,,,5,0.128999949,1,0.174000025,1,0,1200,1008,1,1199,gang,47284,2019-10-29_18h10.08.855,SurveyExpMetaMem,3.2.3,MacIntel,60
,,,,,,,,,,,,,,,,,,,,5,0.089999914,1,0.154999971,1,0,1200,699,1,1199,leg,47284,2019-10-29_18h10.08.855,SurveyExpMetaMem,3.2.3,MacIntel,60
,,,,,,,,,,,,,,,,,,,,5,0.118999958,1,0.138999939,1,0,1200,168,1,1199,mate,47284,2019-10-29_18h10.08.855,SurveyExpMetaMem,3.2.3,MacIntel,60
,,,,,,,,,,,,,,,,,,,,5,0.051999807,1,0.205999851,1,0,1200,688,1,1199,jelly,47284,2019-10-29_18h10.08.855,SurveyExpMetaMem,3.2.3,MacIntel,60
,,,,,,,,,,,,,,,,,,,,5,0.14199996,1,0.205999851,1,0,1200,1138,1,1199,wail,47284,2019-10-29_18h10.08.855,SurveyExpMetaMem,3.2.3,MacIntel,60
,,,,,,,,,,,,,,,,,,,,5,0.128000021,1,0.157000065,1,0,1200,797,1,1199,hamburger,47284,2019-10-29_18h10.08.855,SurveyExpMetaMem,3.2.3,MacIntel,60
,,,,,,,,,,,,,,,,,,,,5,0.121999979,1,0.144000053,1,0,1200,95,1,1199,giggle,47284,2019-10-29_18h10.08.855,SurveyExpMetaMem,3.2.3,MacIntel,60
,,,,,,,,,,,,,,,,,,,,5,0.154999971,5,9.532000065,1,0,1200,647,1,1199,accord,47284,2019-10-29_18h10.08.855,SurveyExpMetaMem,3.2.3,MacIntel,60
,,,,,,,,,,,,,,,,,,,,1,1.520999908,5,0.20299983,1,0,1200,1030,1,1199,offend,47284,2019-10-29_18h10.08.855,SurveyExpMetaMem,3.2.3,MacIntel,60
,,,,,,,,,,,,,,,,,,,,1,0.725999832,5,0.256999969,1,0,1200,586,1,1199,cab,47284,2019-10-29_18h10.08.855,SurveyExpMetaMem,3.2.3,MacIntel,60
,,,,,,,,,,,,,,,,,,,,1,2.040999889,4,0.306999922,1,0,1200,991,1,1199,harass,47284,2019-10-29_18h10.08.855,SurveyExpMetaMem,3.2.3,MacIntel,60
,,,,,,,,,,,,,,,,,,,,1,0.903999805,5,0.275999784,1,0,1200,778,1,1199,adorn,47284,2019-10-29_18h10.08.855,SurveyExpMetaMem,3.2.3,MacIntel,60
,,,,,,,,,,,,,,,,,,,,1,0.514999866,4,0.41899991,1,0,1200,451,1,1199,lame,47284,2019-10-29_18h10.08.855,SurveyExpMetaMem,3.2.3,MacIntel,60
,,,,,,,,,,,,,,,,,,,,1,0.429999828,5,0.325999975,1,0,1200,785,1,1199,pond,47284,2019-10-29_18h10.08.855,SurveyExpMetaMem,3.2.3,MacIntel,60
,,,,,,,,,,,,,,,,,,,,1,0.68599987,5,0.230999947,1,0,1200,156,1,1199,gym,47284,2019-10-29_18h10.08.855,SurveyExpMetaMem,3.2.3,MacIntel,60
,,,,,,,,,,,,,,,,,,,,1,0.661999941,5,0.29399991,1,0,1200,1186,1,1199,goddamn,47284,2019-10-29_18h10.08.855,SurveyExpMetaMem,3.2.3,MacIntel,60
,,,,,,,,,,,,,,,,,,,,1,0.65899992,5,0.176999807,1,0,1200,1147,1,1199,demand,47284,2019-10-29_18h10.08.855,SurveyExpMetaMem,3.2.3,MacIntel,60
,,,,,,,,,,,,,,,,,,,,1,0.586999893,5,0.164999723,1,0,1200,636,1,1199,refine,47284,2019-10-29_18h10.08.855,SurveyExpMetaMem,3.2.3,MacIntel,60
,,,,,,,,,,,,,,,,,,,,1,0.587000132,5,0.855999947,1,0,1200,568,1,1199,therapy,47284,2019-10-29_18h10.08.855,SurveyExpMetaMem,3.2.3,MacIntel,60
,,,,,,,,,,,,,,,,,,,,1,0.421999931,5,0.246999979,1,0,1200,807,1,1199,person,47284,2019-10-29_18h10.08.855,SurveyExpMetaMem,3.2.3,MacIntel,60
,,,,,,,,,,,,,,,,,,,,1,0.429000139,5,0.212999821,1,0,1200,735,1,1199,tea,47284,2019-10-29_18h10.08.855,SurveyExpMetaMem,3.2.3,MacIntel,60
,,,,,,,,,,,,,,,,,,,,1,0.613000154,5,0.230000019,1,0,1200,976,1,1199,tumor,47284,2019-10-29_18h10.08.855,SurveyExpMetaMem,3.2.3,MacIntel,60
,,,,,,,,,,,,,,,,,,,,1,1.286000013,5,0.163999796,1,0,1200,139,1,1199,generosity,47284,2019-10-29_18h10.08.855,SurveyExpMetaMem,3.2.3,MacIntel,60
,,,,,,,,,,,,,,,,,,,,1,0.957000017,2,1.052999735,1,0,1200,917,1,1199,slave,47284,2019-10-29_18h10.08.855,SurveyExpMetaMem,3.2.3,MacIntel,60
,,,,,,,,,,,,,,,,,,,,1,0.624000072,5,0.26699996,1,0,1200,432,1,1199,resign,47284,2019-10-29_18h10.08.855,SurveyExpMetaMem,3.2.3,MacIntel,60
,,,,,,,,,,,,,,,,,,,,1,0.953000069,5,0.131999969,1,0,1200,8,1,1199,extreme,47284,2019-10-29_18h10.08.855,SurveyExpMetaMem,3.2.3,MacIntel,60
,,,,,,,,,,,,,,,,,,,,1,0.832000017,5,0.136999846,1,0,1200,516,1,1199,smug,47284,2019-10-29_18h10.08.855,SurveyExpMetaMem,3.2.3,MacIntel,60
,,,,,,,,,,,,,,,,,,,,1,0.559000015,5,0.272000074,1,0,1200,924,1,1199,terrible,47284,2019-10-29_18h10.08.855,SurveyExpMetaMem,3.2.3,MacIntel,60
,,,,,,,,,,,,,,,,,,,,1,0.494999886,3,1.46999979,1,0,1200,1009,1,1199,frightened,47284,2019-10-29_18h10.08.855,SurveyExpMetaMem,3.2.3,MacIntel,60
,,,,,,,,,,,,,,,,,,,,1,0.490999937,5,0.239999771,1,0,1200,469,1,1199,resent,47284,2019-10-29_18h10.08.855,SurveyExpMetaMem,3.2.3,MacIntel,60
,,,,,,,,,,,,,,,,,,,,1,0.687999964,5,0.261999846,1,0,1200,788,1,1199,cook,47284,2019-10-29_18h10.08.855,SurveyExpMetaMem,3.2.3,MacIntel,60
,,,,,,,,,,,,,,,,,,,,1,0.619999886,5,0.348999739,1,0,1200,97,1,1199,enthusiastic,47284,2019-10-29_18h10.08.855,SurveyExpMetaMem,3.2.3,MacIntel,60
,,,,,,,,,,,,,,,,,,,,1,3.394000053,5,0.255000114,1,0,1200,217,1,1199,bravery,47284,2019-10-29_18h10.08.855,SurveyExpMetaMem,3.2.3,MacIntel,60
,,,,,,,,,,,,,,,,,,,,1,1.601999998,1,5.247999907,1,0,1200,867,1,1199,relaxed,47284,2019-10-29_18h10.08.855,SurveyExpMetaMem,3.2.3,MacIntel,60
,,,,,,,,,,,,,,,,,,,,5,0.15899992,1,1.07400012,1,0,1200,31,1,1199,brownie,47284,2019-10-29_18h10.08.855,SurveyExpMetaMem,3.2.3,MacIntel,60
,,,,,,,,,,,,,,,,,,,,9,0.921000004,1,3.962999821,1,0,1200,1116,1,1199,emergency,47284,2019-10-29_18h10.08.855,SurveyExpMetaMem,3.2.3,MacIntel,60
,,,,,,,,,,,,,,,,,,,,2,4.710000038,1,1.353999853,1,0,1200,1020,1,1199,malice,47284,2019-10-29_18h10.08.855,SurveyExpMetaMem,3.2.3,MacIntel,60
,,,,,,,,,,,,,,,,,,,,1,1.218999863,5,0.239999771,1,0,1200,403,1,1199,wither,47284,2019-10-29_18h10.08.855,SurveyExpMetaMem,3.2.3,MacIntel,60
,,,,,,,,,,,,,,,,,,,,1,1.561999798,5,0.191999912,1,0,1200,383,1,1199,messy,47284,2019-10-29_18h10.08.855,SurveyExpMetaMem,3.2.3,MacIntel,60
,,,,,,,,,,,,,,,,,,,,1,0.542999983,5,0.346999884,1,0,1200,1158,1,1199,dentist,47284,2019-10-29_18h10.08.855,SurveyExpMetaMem,3.2.3,MacIntel,60
,,,,,,,,,,,,,,,,,,,,1,0.437999964,5,0.228999853,1,0,1200,52,1,1199,dare,47284,2019-10-29_18h10.08.855,SurveyExpMetaMem,3.2.3,MacIntel,60
,,,,,,,,,,,,,,,,,,,,1,0.404999971,5,0.260999918,1,0,1200,408,1,1199,bore,47284,2019-10-29_18h10.08.855,SurveyExpMetaMem,3.2.3,MacIntel,60
,,,,,,,,,,,,,,,,,,,,1,0.375999928,5,1.194999933,1,0,1200,116,1,1199,carnival,47284,2019-10-29_18h10.08.855,SurveyExpMetaMem,3.2.3,MacIntel,60
,,,,,,,,,,,,,,,,,,,,2,3.052999973,1,0.421999931,1,0,1200,907,1,1199,terrorist,47284,2019-10-29_18h10.08.855,SurveyExpMetaMem,3.2.3,MacIntel,60
,,,,,,,,,,,,,,,,,,,,1,1.003000021,5,0.275999784,1,0,1200,460,1,1199,rag,47284,2019-10-29_18h10.08.855,SurveyExpMetaMem,3.2.3,MacIntel,60
,,,,,,,,,,,,,,,,,,,,1,0.468999863,5,0.104999781,1,0,1200,720,1,1199,stable,47284,2019-10-29_18h10.08.855,SurveyExpMetaMem,3.2.3,MacIntel,60
,,,,,,,,,,,,,,,,,,,,1,0.277999878,5,0.133999825,1,0,1200,757,1,1199,sentiment,47284,2019-10-29_18h10.08.855,SurveyExpMetaMem,3.2.3,MacIntel,60
,,,,,,,,,,,,,,,,,,,,1,0.118000031,5,0.193999767,1,0,1200,635,1,1199,sensitive,47284,2019-10-29_18h10.08.855,SurveyExpMetaMem,3.2.3,MacIntel,60
,,,,,,,,,,,,,,,,,,,,1,0.221999884,5,0.194000006,1,0,1200,233,1,1199,exhilaration,47284,2019-10-29_18h10.08.855,SurveyExpMetaMem,3.2.3,MacIntel,60
,,,,,,,,,,,,,,,,,,,,1,0.154999971,5,0.245000124,1,0,1200,624,1,1199,tower,47284,2019-10-29_18h10.08.855,SurveyExpMetaMem,3.2.3,MacIntel,60
,,,,,,,,,,,,,,,,,,,,1,0.170999765,5,0.213000059,1,0,1200,948,1,1199,pain,47284,2019-10-29_18h10.08.855,SurveyExpMetaMem,3.2.3,MacIntel,60
,,,,,,,,,,,,,,,,,,,,1,0.122999907,5,0.203999996,1,0,1200,94,1,1199,engaged,47284,2019-10-29_18h10.08.855,SurveyExpMetaMem,3.2.3,MacIntel,60
,,,,,,,,,,,,,,,,,,,,1,0.125999928,5,0.2099998,1,0,1200,853,1,1199,breeze,47284,2019-10-29_18h10.08.855,SurveyExpMetaMem,3.2.3,MacIntel,60
,,,,,,,,,,,,,,,,,,,,1,0.138999939,5,0.243000031,1,0,1200,908,1,1199,suffer,47284,2019-10-29_18h10.08.855,SurveyExpMetaMem,3.2.3,MacIntel,60
,,,,,,,,,,,,,,,,,,,,1,0.161000013,5,0.238999844,1,0,1200,453,1,1199,prude,47284,2019-10-29_18h10.08.855,SurveyExpMetaMem,3.2.3,MacIntel,60
,,,,,,,,,,,,,,,,,,,,1,0.236999989,1,1.137000084,1,0,1200,1014,1,1199,destroy,47284,2019-10-29_18h10.08.855,SurveyExpMetaMem,3.2.3,MacIntel,60
,,,,,,,,,,,,,,,,,,,,5,0.062000036,1,0.444000006,1,0,1200,923,1,1199,punish,47284,2019-10-29_18h10.08.855,SurveyExpMetaMem,3.2.3,MacIntel,60
,,,,,,,,,,,,,,,,,,,,5,0.138000011,1,0.723999977,1,0,1200,1043,1,1199,scold,47284,2019-10-29_18h10.08.855,SurveyExpMetaMem,3.2.3,MacIntel,60
,,,,,,,,,,,,,,,,,,,,5,0.139999866,1,0.115999937,1,0,1200,326,1,1199,scam,47284,2019-10-29_18h10.08.855,SurveyExpMetaMem,3.2.3,MacIntel,60
,,,,,,,,,,,,,,,,,,,,5,0.171000004,1,0.096999884,1,0,1200,478,1,1199,numb,47284,2019-10-29_18h10.08.855,SurveyExpMetaMem,3.2.3,MacIntel,60
,,,,,,,,,,,,,,,,,,,,5,0.221999884,1,0.092000008,1,0,1200,447,1,1199,dishes,47284,2019-10-29_18h10.08.855,SurveyExpMetaMem,3.2.3,MacIntel,60
,,,,,,,,,,,,,,,,,,,,5,0.14199996,1,0.131000042,1,0,1200,698,1,1199,oven,47284,2019-10-29_18h10.08.855,SurveyExpMetaMem,3.2.3,MacIntel,60
,,,,,,,,,,,,,,,,,,,,5,0.140999794,1,0.106999874,1,0,1200,1058,1,1199,bloody,47284,2019-10-29_18h10.08.855,SurveyExpMetaMem,3.2.3,MacIntel,60
,,,,,,,,,,,,,,,,,,,,5,0.098999977,1,0.121999979,1,0,1200,361,1,1199,glum,47284,2019-10-29_18h10.08.855,SurveyExpMetaMem,3.2.3,MacIntel,60
,,,,,,,,,,,,,,,,,,,,5,0.105999947,1,0.109999895,1,0,1200,396,1,1199,unpopular,47284,2019-10-29_18h10.08.855,SurveyExpMetaMem,3.2.3,MacIntel,60
,,,,,,,,,,,,,,,,,,,,5,0.121999979,1,0.106999874,1,0,1200,555,1,1199,school,47284,2019-10-29_18h10.08.855,SurveyExpMetaMem,3.2.3,MacIntel,60
,,,,,,,,,,,,,,,,,,,,5,0.096999884,1,0.136999846,1,0,1200,1174,1,1199,beast,47284,2019-10-29_18h10.08.855,SurveyExpMetaMem,3.2.3,MacIntel,60
,,,,,,,,,,,,,,,,,,,,5,0.108999968,1,0.145999908,1,0,1200,73,1,1199,rhythm,47284,2019-10-29_18h10.08.855,SurveyExpMetaMem,3.2.3,MacIntel,60
,,,,,,,,,,,,,,,,,,,,5,0.123999834,1,0.143999815,1,0,1200,1098,1,1199,confused,47284,2019-10-29_18h10.08.855,SurveyExpMetaMem,3.2.3,MacIntel,60
,,,,,,,,,,,,,,,,,,,,5,0.114000082,1,0.141999722,1,0,1200,802,1,1199,familiar,47284,2019-10-29_18h10.08.855,SurveyExpMetaMem,3.2.3,MacIntel,60
,,,,,,,,,,,,,,,,,,,,5,0.144000053,1,0.146999836,1,0,1200,824,1,1199,favor,47284,2019-10-29_18h10.08.855,SurveyExpMetaMem,3.2.3,MacIntel,60
,,,,,,,,,,,,,,,,,,,,5,0.157000065,1,0.124999762,1,0,1200,640,1,1199,cabin,47284,2019-10-29_18h10.08.855,SurveyExpMetaMem,3.2.3,MacIntel,60
,,,,,,,,,,,,,,,,,,,,5,0.177000046,1,0.122999907,1,0,1200,901,1,1199,rape,47284,2019-10-29_18h10.08.855,SurveyExpMetaMem,3.2.3,MacIntel,60
,,,,,,,,,,,,,,,,,,,,5,0.325999975,1,0.281999826,1,0,1200,1069,1,1199,defeat,47284,2019-10-29_18h10.08.855,SurveyExpMetaMem,3.2.3,MacIntel,60
,,,,,,,,,,,,,,,,,,,,5,0.214999914,1,0.214999914,1,0,1200,430,1,1199,cancel,47284,2019-10-29_18h10.08.855,SurveyExpMetaMem,3.2.3,MacIntel,60
,,,,,,,,,,,,,,,,,,,,5,0.24000001,1,0.255000114,1,0,1200,315,1,1199,zit,47284,2019-10-29_18h10.08.855,SurveyExpMetaMem,3.2.3,MacIntel,60
,,,,,,,,,,,,,,,,,,,,5,0.273999929,5,1.819999933,1,0,1200,84,1,1199,eat,47284,2019-10-29_18h10.08.855,SurveyExpMetaMem,3.2.3,MacIntel,60
,,,,,,,,,,,,,,,,,,,,1,1.792999983,5,0.655999899,1,0,1200,126,1,1199,rich,47284,2019-10-29_18h10.08.855,SurveyExpMetaMem,3.2.3,MacIntel,60
,,,,,,,,,,,,,,,,,,,,1,0.526000023,5,0.238999844,1,0,1200,892,1,1199,untroubled,47284,2019-10-29_18h10.08.855,SurveyExpMetaMem,3.2.3,MacIntel,60
,,,,,,,,,,,,,,,,,,,,1,0.807999849,5,0.19299984,1,0,1200,258,1,1199,children,47284,2019-10-29_18h10.08.855,SurveyExpMetaMem,3.2.3,MacIntel,60
,,,,,,,,,,,,,,,,,,,,1,1.036000013,5,0.171999931,1,0,1200,1137,1,1199,knife,47284,2019-10-29_18h10.08.855,SurveyExpMetaMem,3.2.3,MacIntel,60
,,,,,,,,,,,,,,,,,,,,1,2.588000059,5,0.297999859,1,0,1200,753,1,1199,patience,47284,2019-10-29_18h10.08.855,SurveyExpMetaMem,3.2.3,MacIntel,60
,,,,,,,,,,,,,,,,,,,,1,0.614999771,5,0.271999836,1,0,1200,672,1,1199,ketchup,47284,2019-10-29_18h10.08.855,SurveyExpMetaMem,3.2.3,MacIntel,60
,,,,,,,,,,,,,,,,,,,,1,3.188999891,5,0.520999908,1,0,1200,17,1,1199,outgoing,47284,2019-10-29_18h10.08.855,SurveyExpMetaMem,3.2.3,MacIntel,60
,,,,,,,,,,,,,,,,,,,,1,0.711999893,5,0.182999849,1,0,1200,669,1,1199,plaza,47284,2019-10-29_18h10.08.855,SurveyExpMetaMem,3.2.3,MacIntel,60
,,,,,,,,,,,,,,,,,,,,1,2.109999895,6,1.958999872,1,0,1200,896,1,1199,cuddle,47284,2019-10-29_18h10.08.855,SurveyExpMetaMem,3.2.3,MacIntel,60
,,,,,,,,,,,,,,,,,,,,1,1.019999981,5,0.190999746,1,0,1200,818,1,1199,priest,47284,2019-10-29_18h10.08.855,SurveyExpMetaMem,3.2.3,MacIntel,60
,,,,,,,,,,,,,,,,,,,,1,0.902999878,6,0.470999956,1,0,1200,464,1,1199,tick,47284,2019-10-29_18h10.08.855,SurveyExpMetaMem,3.2.3,MacIntel,60
,,,,,,,,,,,,,,,,,,,,1,0.680000067,5,0.311000109,1,0,1200,859,1,1199,serene,47284,2019-10-29_18h10.08.855,SurveyExpMetaMem,3.2.3,MacIntel,60
,,,,,,,,,,,,,,,,,,,,1,1.858999968,4,0.368999958,1,0,1200,381,1,1199,sloppy,47284,2019-10-29_18h10.08.855,SurveyExpMetaMem,3.2.3,MacIntel,60
,,,,,,,,,,,,,,,,,,,,1,0.854999781,4,0.263000011,1,0,1200,1123,1,1199,haunt,47284,2019-10-29_18h10.08.855,SurveyExpMetaMem,3.2.3,MacIntel,60
,,,,,,,,,,,,,,,,,,,,1,0.76699996,4,0.375,1,0,1200,468,1,1199,noose,47284,2019-10-29_18h10.08.855,SurveyExpMetaMem,3.2.3,MacIntel,60
,,,,,,,,,,,,,,,,,,,,1,0.921000004,5,0.205999851,1,0,1200,766,1,1199,flag,47284,2019-10-29_18h10.08.855,SurveyExpMetaMem,3.2.3,MacIntel,60
,,,,,,,,,,,,,,,,,,,,1,1.284999847,5,0.149999857,1,0,1200,154,1,1199,race,47284,2019-10-29_18h10.08.855,SurveyExpMetaMem,3.2.3,MacIntel,60
,,,,,,,,,,,,,,,,,,,,1,0.989999771,5,0.190999746,1,0,1200,719,1,1199,western,47284,2019-10-29_18h10.08.855,SurveyExpMetaMem,3.2.3,MacIntel,60
,,,,,,,,,,,,,,,,,,,,1,0.808999777,4,0.299000025,1,0,1200,968,1,1199,insult,47284,2019-10-29_18h10.08.855,SurveyExpMetaMem,3.2.3,MacIntel,60
,,,,,,,,,,,,,,,,,,,,1,1.249000072,6,0.270999908,1,0,1200,25,1,1199,charisma,47284,2019-10-29_18h10.08.855,SurveyExpMetaMem,3.2.3,MacIntel,60
,,,,,,,,,,,,,,,,,,,,1,0.71999979,4,0.744999886,1,0,1200,310,1,1199,lonely,47284,2019-10-29_18h10.08.855,SurveyExpMetaMem,3.2.3,MacIntel,60
,,,,,,,,,,,,,,,,,,,,1,0.821000099,6,0.339999914,1,0,1200,22,1,1199,doughnut,47284,2019-10-29_18h10.08.855,SurveyExpMetaMem,3.2.3,MacIntel,60
,,,,,,,,,,,,,,,,,,,,1,1.328999996,4,0.292999983,1,0,1200,305,1,1199,frown,47284,2019-10-29_18h10.08.855,SurveyExpMetaMem,3.2.3,MacIntel,60
,,,,,,,,,,,,,,,,,,,,1,0.620999813,4,0.292000055,1,0,1200,593,1,1199,errand,47284,2019-10-29_18h10.08.855,SurveyExpMetaMem,3.2.3,MacIntel,60
,,,,,,,,,,,,,,,,,,,,1,1.775999784,3,1.684999943,1,0,1200,905,1,1199,suffocate,47284,2019-10-29_18h10.08.855,SurveyExpMetaMem,3.2.3,MacIntel,60
,,,,,,,,,,,,,,,,,,,,1,2.477999926,4,0.75999999,1,0,1200,1084,1,1199,uneasy,47284,2019-10-29_18h10.08.855,SurveyExpMetaMem,3.2.3,MacIntel,60
,,,,,,,,,,,,,,,,,,,,1,1.569000006,5,0.190999746,1,0,1200,1097,1,1199,bees,47284,2019-10-29_18h10.08.855,SurveyExpMetaMem,3.2.3,MacIntel,60
,,,,,,,,,,,,,,,,,,,,1,0.791000128,5,0.224999905,1,0,1200,162,1,1199,royalty,47284,2019-10-29_18h10.08.855,SurveyExpMetaMem,3.2.3,MacIntel,60
,,,,,,,,,,,,,,,,,,,,1,0.592000008,5,0.220999956,1,0,1200,836,1,1199,lounge,47284,2019-10-29_18h10.08.855,SurveyExpMetaMem,3.2.3,MacIntel,60
,,,,,,,,,,,,,,,,,,,,1,0.451999903,4,0.927999973,1,0,1200,380,1,1199,expire,47284,2019-10-29_18h10.08.855,SurveyExpMetaMem,3.2.3,MacIntel,60
,,,,,,,,,,,,,,,,,,,,1,0.586999893,5,0.351999998,1,0,1200,465,1,1199,void,47284,2019-10-29_18h10.08.855,SurveyExpMetaMem,3.2.3,MacIntel,60
,,,,,,,,,,,,,,,,,,,,1,0.417999744,3,0.970999718,1,0,1200,367,1,1199,pathetic,47284,2019-10-29_18h10.08.855,SurveyExpMetaMem,3.2.3,MacIntel,60
,,,,,,,,,,,,,,,,,,,,1,0.704999924,5,0.246999979,1,0,1200,798,1,1199,crystal,47284,2019-10-29_18h10.08.855,SurveyExpMetaMem,3.2.3,MacIntel,60
,,,,,,,,,,,,,,,,,,,,1,0.921000004,4,0.299000025,1,0,1200,365,1,1199,discouraged,47284,2019-10-29_18h10.08.855,SurveyExpMetaMem,3.2.3,MacIntel,60
,,,,,,,,,,,,,,,,,,,,1,0.354000092,5,0.282999992,1,0,1200,275,1,1199,brilliant,47284,2019-10-29_18h10.08.855,SurveyExpMetaMem,3.2.3,MacIntel,60
,,,,,,,,,,,,,,,,,,,,1,0.710000038,5,0.305999994,1,0,1200,841,1,1199,bathtub,47284,2019-10-29_18h10.08.855,SurveyExpMetaMem,3.2.3,MacIntel,60
,,,,,,,,,,,,,,,,,,,,1,0.388999701,5,0.322999954,1,0,1200,696,1,1199,rink,47284,2019-10-29_18h10.08.855,SurveyExpMetaMem,3.2.3,MacIntel,60
,,,,,,,,,,,,,,,,,,,,1,0.404999971,5,0.325000048,1,0,1200,955,1,1199,drown,47284,2019-10-29_18h10.08.855,SurveyExpMetaMem,3.2.3,MacIntel,60
,,,,,,,,,,,,,,,,,,,,1,0.45600009,5,0.34100008,1,0,1200,1047,1,1199,psycho,47284,2019-10-29_18h10.08.855,SurveyExpMetaMem,3.2.3,MacIntel,60
,,,,,,,,,,,,,,,,,,,,1,0.49000001,5,0.455999851,1,0,1200,927,1,1199,jail,47284,2019-10-29_18h10.08.855,SurveyExpMetaMem,3.2.3,MacIntel,60
,,,,,,,,,,,,,,,,,,,,1,0.385999918,5,0.461999893,1,0,1200,638,1,1199,quench,47284,2019-10-29_18h10.08.855,SurveyExpMetaMem,3.2.3,MacIntel,60
,,,,,,,,,,,,,,,,,,,,1,0.474999905,5,0.386999846,1,0,1200,385,1,1199,tiresome,47284,2019-10-29_18h10.08.855,SurveyExpMetaMem,3.2.3,MacIntel,60
,,,,,,,,,,,,,,,,,,,,1,0.522000074,5,0.503999949,1,0,1200,400,1,1199,urine,47284,2019-10-29_18h10.08.855,SurveyExpMetaMem,3.2.3,MacIntel,60
,,,,,,,,,,,,,,,,,,,,1,0.441999912,5,0.306999922,1,0,1200,92,1,1199,justice,47284,2019-10-29_18h10.08.855,SurveyExpMetaMem,3.2.3,MacIntel,60
,,,,,,,,,,,,,,,,,,,,1,0.461999893,5,0.305999994,1,0,1200,54,1,1199,alcohol,47284,2019-10-29_18h10.08.855,SurveyExpMetaMem,3.2.3,MacIntel,60
,,,,,,,,,,,,,,,,,,,,1,0.440999746,5,0.256999969,1,0,1200,741,1,1199,wheat,47284,2019-10-29_18h10.08.855,SurveyExpMetaMem,3.2.3,MacIntel,60
,,,,,,,,,,,,,,,,,,,,1,0.38499999,5,0.423000097,1,0,1200,940,1,1199,war,47284,2019-10-29_18h10.08.855,SurveyExpMetaMem,3.2.3,MacIntel,60
,,,,,,,,,,,,,,,,,,,,1,0.645999908,5,0.262999773,1,0,1200,397,1,1199,complaint,47284,2019-10-29_18h10.08.855,SurveyExpMetaMem,3.2.3,MacIntel,60
,,,,,,,,,,,,,,,,,,,,1,0.82799983,5,0.414000034,1,0,1200,774,1,1199,leaves,47284,2019-10-29_18h10.08.855,SurveyExpMetaMem,3.2.3,MacIntel,60
,,,,,,,,,,,,,,,,,,,,1,1.303999901,4,1.10800004,1,0,1200,308,1,1199,worthless,47284,2019-10-29_18h10.08.855,SurveyExpMetaMem,3.2.3,MacIntel,60
,,,,,,,,,,,,,,,,,,,,1,1.368000031,5,0.585000038,1,0,1200,608,1,1199,carrot,47284,2019-10-29_18h10.08.855,SurveyExpMetaMem,3.2.3,MacIntel,60
,,,,,,,,,,,,,,,,,,,,1,0.572999954,5,0.252000093,1,0,1200,166,1,1199,unite,47284,2019-10-29_18h10.08.855,SurveyExpMetaMem,3.2.3,MacIntel,60
,,,,,,,,,,,,,,,,,,,,1,0.494999886,5,0.271999836,1,0,1200,542,1,1199,loose,47284,2019-10-29_18h10.08.855,SurveyExpMetaMem,3.2.3,MacIntel,60
,,,,,,,,,,,,,,,,,,,,1,0.730000019,5,0.256000042,1,0,1200,103,1,1199,conquest,47284,2019-10-29_18h10.08.855,SurveyExpMetaMem,3.2.3,MacIntel,60
,,,,,,,,,,,,,,,,,,,,1,0.578999996,5,0.372999907,1,0,1200,459,1,1199,heavy,47284,2019-10-29_18h10.08.855,SurveyExpMetaMem,3.2.3,MacIntel,60
,,,,,,,,,,,,,,,,,,,,1,0.487999916,5,0.405999899,1,0,1200,1102,1,1199,nuclear,47284,2019-10-29_18h10.08.855,SurveyExpMetaMem,3.2.3,MacIntel,60
,,,,,,,,,,,,,,,,,,,,1,0.454999924,5,0.34800005,1,0,1200,704,1,1199,flute,47284,2019-10-29_18h10.08.855,SurveyExpMetaMem,3.2.3,MacIntel,60
,,,,,,,,,,,,,,,,,,,,1,0.737999916,5,0.306999922,1,0,1200,434,1,1199,frail,47284,2019-10-29_18h10.08.855,SurveyExpMetaMem,3.2.3,MacIntel,60
,,,,,,,,,,,,,,,,,,,,1,613.8759999,4,1.395999908,1,0,1200,959,1,1199,divorce,47284,2019-10-29_18h10.08.855,SurveyExpMetaMem,3.2.3,MacIntel,60
,,,,,,,,,,,,,,,,,,,,1,1.116999865,5,0.204999924,1,0,1200,642,1,1199,newspaper,47284,2019-10-29_18h10.08.855,SurveyExpMetaMem,3.2.3,MacIntel,60
,,,,,,,,,,,,,,,,,,,,5,2.895999908,2,1.639999866,1,0,1200,623,1,1199,suburban,47284,2019-10-29_18h10.08.855,SurveyExpMetaMem,3.2.3,MacIntel,60
,,,,,,,,,,,,,,,,,,,,5,3.41899991,2,0.835999966,1,0,1200,979,1,1199,harassment,47284,2019-10-29_18h10.08.855,SurveyExpMetaMem,3.2.3,MacIntel,60
,,,,,,,,,,,,,,,,,,,,1,1.433999777,5,0.180999994,1,0,1200,210,1,1199,elephant,47284,2019-10-29_18h10.08.855,SurveyExpMetaMem,3.2.3,MacIntel,60
,,,,,,,,,,,,,,,,,,,,1,0.629999876,5,0.138999939,1,0,1200,740,1,1199,groceries,47284,2019-10-29_18h10.08.855,SurveyExpMetaMem,3.2.3,MacIntel,60
,,,,,,,,,,,,,,,,,,,,1,0.559000015,5,0.106999874,1,0,1200,564,1,1199,wane,47284,2019-10-29_18h10.08.855,SurveyExpMetaMem,3.2.3,MacIntel,60
,,,,,,,,,,,,,,,,,,,,1,0.508999825,5,0.102999926,1,0,1200,312,1,1199,stench,47284,2019-10-29_18h10.08.855,SurveyExpMetaMem,3.2.3,MacIntel,60
,,,,,,,,,,,,,,,,,,,,1,0.429999828,5,0.110999823,1,0,1200,1155,1,1199,tangle,47284,2019-10-29_18h10.08.855,SurveyExpMetaMem,3.2.3,MacIntel,60
,,,,,,,,,,,,,,,,,,,,1,0.437999725,5,0.112999916,1,0,1200,506,1,1199,lower,47284,2019-10-29_18h10.08.855,SurveyExpMetaMem,3.2.3,MacIntel,60
,,,,,,,,,,,,,,,,,,,,1,0.355999947,5,0.111000061,1,0,1200,1036,1,1199,anxiety,47284,2019-10-29_18h10.08.855,SurveyExpMetaMem,3.2.3,MacIntel,60
,,,,,,,,,,,,,,,,,,,,1,0.377999783,5,0.108999729,1,0,1200,224,1,1199,strengthen,47284,2019-10-29_18h10.08.855,SurveyExpMetaMem,3.2.3,MacIntel,60
,,,,,,,,,,,,,,,,,,,,1,0.606999874,4,2.101999998,1,0,1200,333,1,1199,weak,47284,2019-10-29_18h10.08.855,SurveyExpMetaMem,3.2.3,MacIntel,60
,,,,,,,,,,,,,,,,,,,,1,1.483999968,5,0.224999905,1,0,1200,776,1,1199,doll,47284,2019-10-29_18h10.08.855,SurveyExpMetaMem,3.2.3,MacIntel,60
,,,,,,,,,,,,,,,,,,,,4,2.967000008,4,1.391999722,1,0,1200,1101,1,1199,scary,47284,2019-10-29_18h10.08.855,SurveyExpMetaMem,3.2.3,MacIntel,60
,,,,,,,,,,,,,,,,,,,,1,1.072999954,5,0.206999779,1,0,1200,594,1,1199,moss,47284,2019-10-29_18h10.08.855,SurveyExpMetaMem,3.2.3,MacIntel,60
,,,,,,,,,,,,,,,,,,,,1,0.56099987,5,0.137000084,1,0,1200,164,1,1199,marry,47284,2019-10-29_18h10.08.855,SurveyExpMetaMem,3.2.3,MacIntel,60
,,,,,,,,,,,,,,,,,,,,1,0.470999956,5,0.191999912,1,0,1200,746,1,1199,proper,47284,2019-10-29_18h10.08.855,SurveyExpMetaMem,3.2.3,MacIntel,60
,,,,,,,,,,,,,,,,,,,,1,0.443999767,5,0.139999866,1,0,1200,990,1,1199,enraged,47284,2019-10-29_18h10.08.855,SurveyExpMetaMem,3.2.3,MacIntel,60
,,,,,,,,,,,,,,,,,,,,1,0.520999908,5,0.171999931,1,0,1200,357,1,1199,whine,47284,2019-10-29_18h10.08.855,SurveyExpMetaMem,3.2.3,MacIntel,60
,,,,,,,,,,,,,,,,,,,,1,0.437999964,5,0.161999941,1,0,1200,226,1,1199,prize,47284,2019-10-29_18h10.08.855,SurveyExpMetaMem,3.2.3,MacIntel,60
,,,,,,,,,,,,,,,,,,,,1,1.051999807,5,0.211999893,1,0,1200,784,1,1199,logical,47284,2019-10-29_18h10.08.855,SurveyExpMetaMem,3.2.3,MacIntel,60
,,,,,,,,,,,,,,,,,,,,1,0.507999897,5,0.173000097,1,0,1200,780,1,1199,grass,47284,2019-10-29_18h10.08.855,SurveyExpMetaMem,3.2.3,MacIntel,60
,,,,,,,,,,,,,,,,,,,,1,0.594000101,5,0.224999905,1,0,1200,605,1,1199,year,47284,2019-10-29_18h10.08.855,SurveyExpMetaMem,3.2.3,MacIntel,60
,,,,,,,,,,,,,,,,,,,,1,0.470999956,5,0.273000002,1,0,1200,426,1,1199,con,47284,2019-10-29_18h10.08.855,SurveyExpMetaMem,3.2.3,MacIntel,60
,,,,,,,,,,,,,,,,,,,,1,0.593999863,5,0.163999796,1,0,1200,284,1,1199,delight,47284,2019-10-29_18h10.08.855,SurveyExpMetaMem,3.2.3,MacIntel,60
,,,,,,,,,,,,,,,,,,,,1,0.36500001,5,0.270999908,1,0,1200,285,1,1199,gold,47284,2019-10-29_18h10.08.855,SurveyExpMetaMem,3.2.3,MacIntel,60
,,,,,,,,,,,,,,,,,,,,1,0.342000008,5,0.305000067,1,0,1200,495,1,1199,dust,47284,2019-10-29_18h10.08.855,SurveyExpMetaMem,3.2.3,MacIntel,60
,,,,,,,,,,,,,,,,,,,,1,0.3349998,5,0.24000001,1,0,1200,761,1,1199,corn,47284,2019-10-29_18h10.08.855,SurveyExpMetaMem,3.2.3,MacIntel,60
,,,,,,,,,,,,,,,,,,,,1,0.371000051,5,0.279999971,1,0,1200,1169,1,1199,enforcement,47284,2019-10-29_18h10.08.855,SurveyExpMetaMem,3.2.3,MacIntel,60
,,,,,,,,,,,,,,,,,,,,1,0.421999931,5,0.269999981,1,0,1200,1171,1,1199,chaos,47284,2019-10-29_18h10.08.855,SurveyExpMetaMem,3.2.3,MacIntel,60
,,,,,,,,,,,,,,,,,,,,1,0.371999979,5,0.299999952,1,0,1200,41,1,1199,progress,47284,2019-10-29_18h10.08.855,SurveyExpMetaMem,3.2.3,MacIntel,60
,,,,,,,,,,,,,,,,,,,,1,0.358999968,5,0.298000097,1,0,1200,556,1,1199,allege,47284,2019-10-29_18h10.08.855,SurveyExpMetaMem,3.2.3,MacIntel,60
,,,,,,,,,,,,,,,,,,,,1,0.463000059,5,0.244999886,1,0,1200,457,1,1199,confuse,47284,2019-10-29_18h10.08.855,SurveyExpMetaMem,3.2.3,MacIntel,60
,,,,,,,,,,,,,,,,,,,,1,0.421000004,5,0.371999979,1,0,1200,335,1,1199,decay,47284,2019-10-29_18h10.08.855,SurveyExpMetaMem,3.2.3,MacIntel,60
,,,,,,,,,,,,,,,,,,,,1,0.597000122,5,0.335000038,1,0,1200,821,1,1199,cottage,47284,2019-10-29_18h10.08.855,SurveyExpMetaMem,3.2.3,MacIntel,60
,,,,,,,,,,,,,,,,,,,,1,0.511999846,5,0.365999937,1,0,1200,562,1,1199,average,47284,2019-10-29_18h10.08.855,SurveyExpMetaMem,3.2.3,MacIntel,60
,,,,,,,,,,,,,,,,,,,,1,0.503999949,5,0.188999891,1,0,1200,1145,1,1199,officer,47284,2019-10-29_18h10.08.855,SurveyExpMetaMem,3.2.3,MacIntel,60
,,,,,,,,,,,,,,,,,,,,1,0.906999826,5,0.224999905,1,0,1200,287,1,1199,optimistic,47284,2019-10-29_18h10.08.855,SurveyExpMetaMem,3.2.3,MacIntel,60
,,,,,,,,,,,,,,,,,,,,1,0.511999846,5,0.322000027,1,0,1200,236,1,1199,amaze,47284,2019-10-29_18h10.08.855,SurveyExpMetaMem,3.2.3,MacIntel,60
,,,,,,,,,,,,,,,,,,,,1,0.790999889,5,0.314999819,1,0,1200,619,1,1199,pulpit,47284,2019-10-29_18h10.08.855,SurveyExpMetaMem,3.2.3,MacIntel,60
,,,,,,,,,,,,,,,,,,,,1,2.134999752,5,0.141000032,1,0,1200,443,1,1199,incorrect,47284,2019-10-29_18h10.08.855,SurveyExpMetaMem,3.2.3,MacIntel,60
,,,,,,,,,,,,,,,,,,,,1,0.454999924,5,0.309999943,1,0,1200,915,1,1199,abuse,47284,2019-10-29_18h10.08.855,SurveyExpMetaMem,3.2.3,MacIntel,60
,,,,,,,,,,,,,,,,,,,,1,0.453999996,5,0.203999758,1,0,1200,225,1,1199,strong,47284,2019-10-29_18h10.08.855,SurveyExpMetaMem,3.2.3,MacIntel,60
,,,,,,,,,,,,,,,,,,,,1,1.41899991,5,0.082999945,1,0,1200,323,1,1199,ungrateful,47284,2019-10-29_18h10.08.855,SurveyExpMetaMem,3.2.3,MacIntel,60
,,,,,,,,,,,,,,,,,,,,1,0.446999788,5,0.231999874,1,0,1200,687,1,1199,skinny,47284,2019-10-29_18h10.08.855,SurveyExpMetaMem,3.2.3,MacIntel,60
,,,,,,,,,,,,,,,,,,,,1,0.487999916,4,1.086999893,1,0,1200,937,1,1199,prison,47284,2019-10-29_18h10.08.855,SurveyExpMetaMem,3.2.3,MacIntel,60
,,,,,,,,,,,,,,,,,,,,1,1.119999886,4,0.215999842,1,0,1200,1034,1,1199,pester,47284,2019-10-29_18h10.08.855,SurveyExpMetaMem,3.2.3,MacIntel,60
,,,,,,,,,,,,,,,,,,,,1,0.878000021,5,0.165999889,1,0,1200,877,1,1199,bless,47284,2019-10-29_18h10.08.855,SurveyExpMetaMem,3.2.3,MacIntel,60
,,,,,,,,,,,,,,,,,,,,1,1.234999895,5,0.187999964,1,0,1200,458,1,1199,refuse,47284,2019-10-29_18h10.08.855,SurveyExpMetaMem,3.2.3,MacIntel,60
,,,,,,,,,,,,,,,,,,,,1,0.695999861,5,0.154999971,1,0,1200,174,1,1199,snow,47284,2019-10-29_18h10.08.855,SurveyExpMetaMem,3.2.3,MacIntel,60
,,,,,,,,,,,,,,,,,,,,1,0.792000055,6,0.505999804,1,0,1200,170,1,1199,entertainment,47284,2019-10-29_18h10.08.855,SurveyExpMetaMem,3.2.3,MacIntel,60
,,,,,,,,,,,,,,,,,,,,1,1.508999825,5,0.152999878,1,0,1200,934,1,1199,sob,47284,2019-10-29_18h10.08.855,SurveyExpMetaMem,3.2.3,MacIntel,60
,,,,,,,,,,,,,,,,,,,,1,1.654000044,5,0.140000105,1,0,1200,194,1,1199,celebration,47284,2019-10-29_18h10.08.855,SurveyExpMetaMem,3.2.3,MacIntel,60
,,,,,,,,,,,,,,,,,,,,1,0.592999697,5,0.238999844,1,0,1200,583,1,1199,obey,47284,2019-10-29_18h10.08.855,SurveyExpMetaMem,3.2.3,MacIntel,60
,,,,,,,,,,,,,,,,,,,,1,0.529000044,5,0.289999962,1,0,1200,952,1,1199,troubled,47284,2019-10-29_18h10.08.855,SurveyExpMetaMem,3.2.3,MacIntel,60
,,,,,,,,,,,,,,,,,,,,1,0.625999928,5,0.25999999,1,0,1200,963,1,1199,dreadful,47284,2019-10-29_18h10.08.855,SurveyExpMetaMem,3.2.3,MacIntel,60
,,,,,,,,,,,,,,,,,,,,1,1.483999729,5,0.281000137,1,0,1200,449,1,1199,egotistical,47284,2019-10-29_18h10.08.855,SurveyExpMetaMem,3.2.3,MacIntel,60
,,,,,,,,,,,,,,,,,,,,1,0.646000147,5,0.212999821,1,0,1200,421,1,1199,stale,47284,2019-10-29_18h10.08.855,SurveyExpMetaMem,3.2.3,MacIntel,60
,,,,,,,,,,,,,,,,,,,,1,0.436999798,5,0.255999804,1,0,1200,573,1,1199,cease,47284,2019-10-29_18h10.08.855,SurveyExpMetaMem,3.2.3,MacIntel,60
,,,,,,,,,,,,,,,,,,,,1,0.641000032,5,0.170999765,1,0,1200,712,1,1199,harvest,47284,2019-10-29_18h10.08.855,SurveyExpMetaMem,3.2.3,MacIntel,60
,,,,,,,,,,,,,,,,,,,,1,0.371000051,5,0.246000051,1,0,1200,813,1,1199,walking,47284,2019-10-29_18h10.08.855,SurveyExpMetaMem,3.2.3,MacIntel,60
,,,,,,,,,,,,,,,,,,,,1,0.329999924,5,0.19900012,1,0,1200,149,1,1199,loved,47284,2019-10-29_18h10.08.855,SurveyExpMetaMem,3.2.3,MacIntel,60
,,,,,,,,,,,,,,,,,,,,1,0.405999899,5,0.232000113,1,0,1200,109,1,1199,new,47284,2019-10-29_18h10.08.855,SurveyExpMetaMem,3.2.3,MacIntel,60
,,,,,,,,,,,,,,,,,,,,1,2.549999952,5,0.15899992,1,0,1200,846,1,1199,able,47284,2019-10-29_18h10.08.855,SurveyExpMetaMem,3.2.3,MacIntel,60
,,,,,,,,,,,,,,,,,,,,1,0.407999992,5,0.14199996,1,0,1200,65,1,1199,restaurant,47284,2019-10-29_18h10.08.855,SurveyExpMetaMem,3.2.3,MacIntel,60
,,,,,,,,,,,,,,,,,,,,1,1.517999887,5,0.193999767,1,0,1200,417,1,1199,dummy,47284,2019-10-29_18h10.08.855,SurveyExpMetaMem,3.2.3,MacIntel,60
,,,,,,,,,,,,,,,,,,,,1,0.387999773,5,0.254999876,1,0,1200,618,1,1199,ceiling,47284,2019-10-29_18h10.08.855,SurveyExpMetaMem,3.2.3,MacIntel,60
,,,,,,,,,,,,,,,,,,,,1,0.388999939,5,0.256999969,1,0,1200,220,1,1199,reef,47284,2019-10-29_18h10.08.855,SurveyExpMetaMem,3.2.3,MacIntel,60
,,,,,,,,,,,,,,,,,,,,1,0.372999907,5,0.223999977,1,0,1200,1068,1,1199,riot,47284,2019-10-29_18h10.08.855,SurveyExpMetaMem,3.2.3,MacIntel,60
,,,,,,,,,,,,,,,,,,,,1,0.386000156,5,0.265000105,1,0,1200,805,1,1199,autumn,47284,2019-10-29_18h10.08.855,SurveyExpMetaMem,3.2.3,MacIntel,60
,,,,,,,,,,,,,,,,,,,,1,0.936000109,5,0.287999868,1,0,1200,223,1,1199,fashion,47284,2019-10-29_18h10.08.855,SurveyExpMetaMem,3.2.3,MacIntel,60
,,,,,,,,,,,,,,,,,,,,1,5.263999939,5,0.554999828,1,0,1200,1142,1,1199,disturb,47284,2019-10-29_18h10.08.855,SurveyExpMetaMem,3.2.3,MacIntel,60
,,,,,,,,,,,,,,,,,,,,1,0.65899992,5,0.227999926,1,0,1200,742,1,1199,window,47284,2019-10-29_18h10.08.855,SurveyExpMetaMem,3.2.3,MacIntel,60
,,,,,,,,,,,,,,,,,,,,1,0.745999813,5,0.353999853,1,0,1200,1070,1,1199,bleed,47284,2019-10-29_18h10.08.855,SurveyExpMetaMem,3.2.3,MacIntel,60
,,,,,,,,,,,,,,,,,,,,1,0.369999886,5,0.31400013,1,0,1200,215,1,1199,salary,47284,2019-10-29_18h10.08.855,SurveyExpMetaMem,3.2.3,MacIntel,60
,,,,,,,,,,,,,,,,,,,,1,0.986000061,7,1.240999699,1,0,1200,125,1,1199,dancing,47284,2019-10-29_18h10.08.855,SurveyExpMetaMem,3.2.3,MacIntel,60
,,,,,,,,,,,,,,,,,,,,1,0.904999971,5,0.187999964,1,0,1200,762,1,1199,orchestra,47284,2019-10-29_18h10.08.855,SurveyExpMetaMem,3.2.3,MacIntel,60
,,,,,,,,,,,,,,,,,,,,1,0.638999939,5,0.190999746,1,0,1200,528,1,1199,dirt,47284,2019-10-29_18h10.08.855,SurveyExpMetaMem,3.2.3,MacIntel,60
,,,,,,,,,,,,,,,,,,,,1,0.375,5,0.338999987,1,0,1200,69,1,1199,special,47284,2019-10-29_18h10.08.855,SurveyExpMetaMem,3.2.3,MacIntel,60
,,,,,,,,,,,,,,,,,,,,2,2.70600009,3,2.866999865,1,0,1200,1028,1,1199,terror,47284,2019-10-29_18h10.08.855,SurveyExpMetaMem,3.2.3,MacIntel,60
,,,,,,,,,,,,,,,,,,,,1,1.312000036,5,0.275000095,1,0,1200,67,1,1199,penthouse,47284,2019-10-29_18h10.08.855,SurveyExpMetaMem,3.2.3,MacIntel,60
,,,,,,,,,,,,,,,,,,,,1,2.447999716,5,0.219000101,1,0,1200,1024,1,1199,burn,47284,2019-10-29_18h10.08.855,SurveyExpMetaMem,3.2.3,MacIntel,60
,,,,,,,,,,,,,,,,,,,,1,0.588999987,5,0.255999804,1,0,1200,604,1,1199,lamp,47284,2019-10-29_18h10.08.855,SurveyExpMetaMem,3.2.3,MacIntel,60
,,,,,,,,,,,,,,,,,,,,5,5.72300005,1,2.686999798,1,0,1200,903,1,1199,cancer,47284,2019-10-29_18h10.08.855,SurveyExpMetaMem,3.2.3,MacIntel,60
,,,,,,,,,,,,,,,,,,,,1,1.456999779,5,0.213999987,1,0,1200,1150,1,1199,forceful,47284,2019-10-29_18h10.08.855,SurveyExpMetaMem,3.2.3,MacIntel,60
,,,,,,,,,,,,,,,,,,,,1,0.703999996,5,0.355999947,1,0,1200,577,1,1199,retreat,47284,2019-10-29_18h10.08.855,SurveyExpMetaMem,3.2.3,MacIntel,60
,,,,,,,,,,,,,,,,,,,,1,1.205999851,5,0.388999939,1,0,1200,463,1,1199,limp,47284,2019-10-29_18h10.08.855,SurveyExpMetaMem,3.2.3,MacIntel,60
,,,,,,,,,,,,,,,,,,,,1,0.641000032,5,0.241999865,1,0,1200,848,1,1199,graceful,47284,2019-10-29_18h10.08.855,SurveyExpMetaMem,3.2.3,MacIntel,60
,,,,,,,,,,,,,,,,,,,,1,0.622999907,5,0.388999939,1,0,1200,648,1,1199,beads,47284,2019-10-29_18h10.08.855,SurveyExpMetaMem,3.2.3,MacIntel,60
,,,,,,,,,,,,,,,,,,,,1,1.40199995,4,1.171999931,1,0,1200,911,1,1199,rejection,47284,2019-10-29_18h10.08.855,SurveyExpMetaMem,3.2.3,MacIntel,60
,,,,,,,,,,,,,,,,,,,,1,1.150999784,7,1.154999971,1,0,1200,242,1,1199,triumph,47284,2019-10-29_18h10.08.855,SurveyExpMetaMem,3.2.3,MacIntel,60
,,,,,,,,,,,,,,,,,,,,1,0.894999981,5,0.196999788,1,0,1200,257,1,1199,cockpit,47284,2019-10-29_18h10.08.855,SurveyExpMetaMem,3.2.3,MacIntel,60
,,,,,,,,,,,,,,,,,,,,1,0.661999941,5,0.27699995,1,0,1200,792,1,1199,moral,47284,2019-10-29_18h10.08.855,SurveyExpMetaMem,3.2.3,MacIntel,60
,,,,,,,,,,,,,,,,,,,,1,0.610000134,5,0.307999849,1,0,1200,993,1,1199,remorse,47284,2019-10-29_18h10.08.855,SurveyExpMetaMem,3.2.3,MacIntel,60
,,,,,,,,,,,,,,,,,,,,1,0.557999849,5,0.312999725,1,0,1200,2,1,1199,zealous,47284,2019-10-29_18h10.08.855,SurveyExpMetaMem,3.2.3,MacIntel,60
,,,,,,,,,,,,,,,,,,,,1,0.427999973,5,0.324999809,1,0,1200,216,1,1199,vigorous,47284,2019-10-29_18h10.08.855,SurveyExpMetaMem,3.2.3,MacIntel,60
,,,,,,,,,,,,,,,,,,,,1,0.375,5,0.289999962,1,0,1200,263,1,1199,answer,47284,2019-10-29_18h10.08.855,SurveyExpMetaMem,3.2.3,MacIntel,60
,,,,,,,,,,,,,,,,,,,,1,0.387000084,5,0.272000074,1,0,1200,541,1,1199,apathy,47284,2019-10-29_18h10.08.855,SurveyExpMetaMem,3.2.3,MacIntel,60
,,,,,,,,,,,,,,,,,,,,1,0.476999998,5,0.322999954,1,0,1200,1189,1,1199,lava,47284,2019-10-29_18h10.08.855,SurveyExpMetaMem,3.2.3,MacIntel,60
,,,,,,,,,,,,,,,,,,,,1,0.446000099,5,0.287999868,1,0,1200,182,1,1199,genius,47284,2019-10-29_18h10.08.855,SurveyExpMetaMem,3.2.3,MacIntel,60
,,,,,,,,,,,,,,,,,,,,1,0.453999758,5,0.636999846,1,0,1200,921,1,1199,humiliation,47284,2019-10-29_18h10.08.855,SurveyExpMetaMem,3.2.3,MacIntel,60
,,,,,,,,,,,,,,,,,,,,1,0.558999777,5,0.355999947,1,0,1200,1175,1,1199,prostitute,47284,2019-10-29_18h10.08.855,SurveyExpMetaMem,3.2.3,MacIntel,60
,,,,,,,,,,,,,,,,,,,,1,0.472000122,5,0.239999771,1,0,1200,96,1,1199,joke,47284,2019-10-29_18h10.08.855,SurveyExpMetaMem,3.2.3,MacIntel,60
,,,,,,,,,,,,,,,,,,,,1,0.350999832,5,0.260999918,1,0,1200,300,1,1199,unhappy,47284,2019-10-29_18h10.08.855,SurveyExpMetaMem,3.2.3,MacIntel,60
,,,,,,,,,,,,,,,,,,,,1,0.403999805,5,0.269999981,1,0,1200,1199,1,1199,expensive,47284,2019-10-29_18h10.08.855,SurveyExpMetaMem,3.2.3,MacIntel,60
,,,,,,,,,,,,,,,,,,,,1,0.368999958,5,0.221999884,1,0,1200,724,1,1199,owl,47284,2019-10-29_18h10.08.855,SurveyExpMetaMem,3.2.3,MacIntel,60
,,,,,,,,,,,,,,,,,,,,1,0.31099987,5,0.276000023,1,0,1200,494,1,1199,butcher,47284,2019-10-29_18h10.08.855,SurveyExpMetaMem,3.2.3,MacIntel,60
,,,,,,,,,,,,,,,,,,,,1,0.320999861,5,0.256999969,1,0,1200,894,1,1199,sunset,47284,2019-10-29_18h10.08.855,SurveyExpMetaMem,3.2.3,MacIntel,60
,,,,,,,,,,,,,,,,,,,,1,0.256000042,5,0.256999969,1,0,1200,198,1,1199,comedy,47284,2019-10-29_18h10.08.855,SurveyExpMetaMem,3.2.3,MacIntel,60
,,,,,,,,,,,,,,,,,,,,1,0.338999987,5,0.188999891,1,0,1200,388,1,1199,mildew,47284,2019-10-29_18h10.08.855,SurveyExpMetaMem,3.2.3,MacIntel,60
,,,,,,,,,,,,,,,,,,,,1,0.253999949,5,0.23300004,1,0,1200,654,1,1199,brief,47284,2019-10-29_18h10.08.855,SurveyExpMetaMem,3.2.3,MacIntel,60
,,,,,,,,,,,,,,,,,,,,1,0.295000076,5,0.2099998,1,0,1200,582,1,1199,cling,47284,2019-10-29_18h10.08.855,SurveyExpMetaMem,3.2.3,MacIntel,60
,,,,,,,,,,,,,,,,,,,,1,0.289999962,5,0.232999802,1,0,1200,496,1,1199,slow,47284,2019-10-29_18h10.08.855,SurveyExpMetaMem,3.2.3,MacIntel,60
,,,,,,,,,,,,,,,,,,,,1,0.217000008,5,0.24000001,1,0,1200,253,1,1199,soldier,47284,2019-10-29_18h10.08.855,SurveyExpMetaMem,3.2.3,MacIntel,60
,,,,,,,,,,,,,,,,,,,,1,0.27699995,5,0.241999865,1,0,1200,1073,1,1199,bitch,47284,2019-10-29_18h10.08.855,SurveyExpMetaMem,3.2.3,MacIntel,60
,,,,,,,,,,,,,,,,,,,,1,0.280999899,5,0.272999763,1,0,1200,290,1,1199,enthusiasm,47284,2019-10-29_18h10.08.855,SurveyExpMetaMem,3.2.3,MacIntel,60
,,,,,,,,,,,,,,,,,,,,1,0.187000036,5,0.255000114,1,0,1200,1103,1,1199,mob,47284,2019-10-29_18h10.08.855,SurveyExpMetaMem,3.2.3,MacIntel,60
,,,,,,,,,,,,,,,,,,,,1,0.153999805,5,0.227999926,1,0,1200,186,1,1199,holiday,47284,2019-10-29_18h10.08.855,SurveyExpMetaMem,3.2.3,MacIntel,60
,,,,,,,,,,,,,,,,,,,,1,0.187999964,5,0.212000132,1,0,1200,11,1,1199,astonished,47284,2019-10-29_18h10.08.855,SurveyExpMetaMem,3.2.3,MacIntel,60
,,,,,,,,,,,,,,,,,,,,1,0.162999868,5,0.230999947,1,0,1200,160,1,1199,reunion,47284,2019-10-29_18h10.08.855,SurveyExpMetaMem,3.2.3,MacIntel,60
,,,,,,,,,,,,,,,,,,,,1,0.180999994,5,0.213999987,1,0,1200,1044,1,1199,lost,47284,2019-10-29_18h10.08.855,SurveyExpMetaMem,3.2.3,MacIntel,60
,,,,,,,,,,,,,,,,,,,,1,0.155999899,5,0.207000017,1,0,1200,177,1,1199,frosting,47284,2019-10-29_18h10.08.855,SurveyExpMetaMem,3.2.3,MacIntel,60
,,,,,,,,,,,,,,,,,,,,1,0.171000004,5,0.171999931,1,0,1200,707,1,1199,adapt,47284,2019-10-29_18h10.08.855,SurveyExpMetaMem,3.2.3,MacIntel,60
,,,,,,,,,,,,,,,,,,,,1,0.177000046,5,0.190000057,1,0,1200,439,1,1199,spit,47284,2019-10-29_18h10.08.855,SurveyExpMetaMem,3.2.3,MacIntel,60
,,,,,,,,,,,,,,,,,,,,1,0.156000137,5,0.188999891,1,0,1200,424,1,1199,fault,47284,2019-10-29_18h10.08.855,SurveyExpMetaMem,3.2.3,MacIntel,60
,,,,,,,,,,,,,,,,,,,,1,0.18900013,5,0.16899991,1,0,1200,195,1,1199,laughing,47284,2019-10-29_18h10.08.855,SurveyExpMetaMem,3.2.3,MacIntel,60
,,,,,,,,,,,,,,,,,,,,1,0.152999878,5,0.177000046,1,0,1200,371,1,1199,weakness,47284,2019-10-29_18h10.08.855,SurveyExpMetaMem,3.2.3,MacIntel,60
,,,,,,,,,,,,,,,,,,,,1,0.144000053,5,0.190999985,1,0,1200,324,1,1199,inferiority,47284,2019-10-29_18h10.08.855,SurveyExpMetaMem,3.2.3,MacIntel,60
,,,,,,,,,,,,,,,,,,,,1,0.13499999,5,0.174999952,1,0,1200,1115,1,1199,invade,47284,2019-10-29_18h10.08.855,SurveyExpMetaMem,3.2.3,MacIntel,60
,,,,,,,,,,,,,,,,,,,,1,0.142999887,5,0.156999826,1,0,1200,14,1,1199,attain,47284,2019-10-29_18h10.08.855,SurveyExpMetaMem,3.2.3,MacIntel,60
,,,,,,,,,,,,,,,,,,,,1,0.148000002,5,0.174999952,1,0,1200,1105,1,1199,flee,47284,2019-10-29_18h10.08.855,SurveyExpMetaMem,3.2.3,MacIntel,60
,,,,,,,,,,,,,,,,,,,,1,0.172999859,5,0.111999989,1,0,1200,718,1,1199,flow,47284,2019-10-29_18h10.08.855,SurveyExpMetaMem,3.2.3,MacIntel,60
,,,,,,,,,,,,,,,,,,,,1,0.163000107,5,0.156999826,1,0,1200,895,1,1199,peace,47284,2019-10-29_18h10.08.855,SurveyExpMetaMem,3.2.3,MacIntel,60
,,,,,,,,,,,,,,,,,,,,1,0.169999838,5,0.127000093,1,0,1200,61,1,1199,zoom,47284,2019-10-29_18h10.08.855,SurveyExpMetaMem,3.2.3,MacIntel,60
,,,,,,,,,,,,,,,,,,,,1,0.177999973,5,0.155999899,1,0,1200,427,1,1199,doubt,47284,2019-10-29_18h10.08.855,SurveyExpMetaMem,3.2.3,MacIntel,60
,,,,,,,,,,,,,,,,,,,,1,0.157999754,5,0.122999907,1,0,1200,399,1,1199,withdrawn,47284,2019-10-29_18h10.08.855,SurveyExpMetaMem,3.2.3,MacIntel,60
,,,,,,,,,,,,,,,,,,,,1,0.153999805,5,0.116999865,1,0,1200,871,1,1199,comfort,47284,2019-10-29_18h10.08.855,SurveyExpMetaMem,3.2.3,MacIntel,60
,,,,,,,,,,,,,,,,,,,,1,0.142999887,5,0.129999876,1,0,1200,347,1,1199,unpleasant,47284,2019-10-29_18h10.08.855,SurveyExpMetaMem,3.2.3,MacIntel,60
,,,,,,,,,,,,,,,,,,,,1,0.188999891,5,0.109999895,1,0,1200,292,1,1199,birthday,47284,2019-10-29_18h10.08.855,SurveyExpMetaMem,3.2.3,MacIntel,60
,,,,,,,,,,,,,,,,,,,,1,0.221999884,5,0.112999916,1,0,1200,398,1,1199,handicapped,47284,2019-10-29_18h10.08.855,SurveyExpMetaMem,3.2.3,MacIntel,60
,,,,,,,,,,,,,,,,,,,,1,0.211999893,5,0.164999962,1,0,1200,74,1,1199,explore,47284,2019-10-29_18h10.08.855,SurveyExpMetaMem,3.2.3,MacIntel,60
,,,,,,,,,,,,,,,,,,,,1,0.174999952,5,0.128000021,1,0,1200,1159,1,1199,rifle,47284,2019-10-29_18h10.08.855,SurveyExpMetaMem,3.2.3,MacIntel,60
,,,,,,,,,,,,,,,,,,,,1,0.2099998,5,0.073999882,1,0,1200,334,1,1199,trash,47284,2019-10-29_18h10.08.855,SurveyExpMetaMem,3.2.3,MacIntel,60
,,,,,,,,,,,,,,,,,,,,1,0.157999992,5,0.128999949,1,0,1200,929,1,1199,mutilation,47284,2019-10-29_18h10.08.855,SurveyExpMetaMem,3.2.3,MacIntel,60
,,,,,,,,,,,,,,,,,,,,1,15211.425,1,0.61500001,1,0,1200,755,1,1199,soap,47284,2019-10-29_18h10.08.855,SurveyExpMetaMem,3.2.3,MacIntel,60
,,,,,,,,,,,,,,,,,,,,1,0.014999866,1,1.047999859,1,0,1200,138,1,1199,blessings,47284,2019-10-29_18h10.08.855,SurveyExpMetaMem,3.2.3,MacIntel,60
,,,,,,,,,,,,,,,,,,,,5,0.119999886,1,0.598999977,1,0,1200,1,1,1199,fuck,47284,2019-10-29_18h10.08.855,SurveyExpMetaMem,3.2.3,MacIntel,60
,,,,,,,,,,,,,,,,,,,,5,0.135999918,1,0.330999851,1,0,1200,6,1,1199,chest,47284,2019-10-29_18h10.08.855,SurveyExpMetaMem,3.2.3,MacIntel,60
,,,,,,,,,,,,,,,,,,,,5,0.14199996,1,0.319999933,1,0,1200,935,1,1199,despise,47284,2019-10-29_18h10.08.855,SurveyExpMetaMem,3.2.3,MacIntel,60
,,,,,,,,,,,,,,,,,,,,5,0.138000011,1,0.237999916,1,0,1200,705,1,1199,tolerant,47284,2019-10-29_18h10.08.855,SurveyExpMetaMem,3.2.3,MacIntel,60
,,,,,,,,,,,,,,,,,,,,5,0.162999868,1,0.198999882,1,0,1200,854,1,1199,river,47284,2019-10-29_18h10.08.855,SurveyExpMetaMem,3.2.3,MacIntel,60
,,,,,,,,,,,,,,,,,,,,5,0.157999992,1,0.122999907,1,0,1200,729,1,1199,velvet,47284,2019-10-29_18h10.08.855,SurveyExpMetaMem,3.2.3,MacIntel,60
,,,,,,,,,,,,,,,,,,,,5,0.129999876,1,0.094000101,1,0,1200,359,1,1199,bored,47284,2019-10-29_18h10.08.855,SurveyExpMetaMem,3.2.3,MacIntel,60
,,,,,,,,,,,,,,,,,,,,5,0.145999908,1,0.106999874,1,0,1200,540,1,1199,derelict,47284,2019-10-29_18h10.08.855,SurveyExpMetaMem,3.2.3,MacIntel,60
,,,,,,,,,,,,,,,,,,,,5,0.120999813,1,0.106999874,1,0,1200,801,1,1199,noon,47284,2019-10-29_18h10.08.855,SurveyExpMetaMem,3.2.3,MacIntel,60
,,,,,,,,,,,,,,,,,,,,5,0.119999886,1,0.113999844,1,0,1200,572,1,1199,cast,47284,2019-10-29_18h10.08.855,SurveyExpMetaMem,3.2.3,MacIntel,60
,,,,,,,,,,,,,,,,,,,,5,0.105000019,1,0.138999939,1,0,1200,1185,1,1199,shotgun,47284,2019-10-29_18h10.08.855,SurveyExpMetaMem,3.2.3,MacIntel,60
,,,,,,,,,,,,,,,,,,,,5,0.082999945,1,0.405999899,1,0,1200,804,1,1199,peach,47284,2019-10-29_18h10.08.855,SurveyExpMetaMem,3.2.3,MacIntel,60
,,,,,,,,,,,,,,,,,,,,5,0.09499979,1,0.167999983,1,0,1200,524,1,1199,sigh,47284,2019-10-29_18h10.08.855,SurveyExpMetaMem,3.2.3,MacIntel,60
,,,,,,,,,,,,,,,,,,,,5,0.088999987,1,0.145999908,1,0,1200,517,1,1199,habit,47284,2019-10-29_18h10.08.855,SurveyExpMetaMem,3.2.3,MacIntel,60
,,,,,,,,,,,,,,,,,,,,5,0.106999874,1,0.110999823,1,0,1200,1088,1,1199,forbid,47284,2019-10-29_18h10.08.855,SurveyExpMetaMem,3.2.3,MacIntel,60
,,,,,,,,,,,,,,,,,,,,5,0.114000082,1,0.152999878,1,0,1200,983,1,1199,demonic,47284,2019-10-29_18h10.08.855,SurveyExpMetaMem,3.2.3,MacIntel,60
,,,,,,,,,,,,,,,,,,,,5,0.09499979,1,0.132999897,1,0,1200,966,1,1199,regretful,47284,2019-10-29_18h10.08.855,SurveyExpMetaMem,3.2.3,MacIntel,60
,,,,,,,,,,,,,,,,,,,,5,0.110999823,1,0.122999907,1,0,1200,218,1,1199,charming,47284,2019-10-29_18h10.08.855,SurveyExpMetaMem,3.2.3,MacIntel,60
,,,,,,,,,,,,,,,,,,,,5,0.125999928,1,0.128999949,1,0,1200,1004,1,1199,burglar,47284,2019-10-29_18h10.08.855,SurveyExpMetaMem,3.2.3,MacIntel,60
,,,,,,,,,,,,,,,,,,,,5,0.122999907,1,0.15899992,1,0,1200,946,1,1199,amputate,47284,2019-10-29_18h10.08.855,SurveyExpMetaMem,3.2.3,MacIntel,60
,,,,,,,,,,,,,,,,,,,,5,0.087999821,1,0.156999826,1,0,1200,820,1,1199,oxygen,47284,2019-10-29_18h10.08.855,SurveyExpMetaMem,3.2.3,MacIntel,60
,,,,,,,,,,,,,,,,,,,,5,0.07799983,1,0.171999931,1,0,1200,356,1,1199,mucous,47284,2019-10-29_18h10.08.855,SurveyExpMetaMem,3.2.3,MacIntel,60
,,,,,,,,,,,,,,,,,,,,5,0.103999853,1,0.144999981,1,0,1200,1010,1,1199,arson,47284,2019-10-29_18h10.08.855,SurveyExpMetaMem,3.2.3,MacIntel,60
,,,,,,,,,,,,,,,,,,,,5,0.114000082,1,0.143000126,1,0,1200,588,1,1199,bandage,47284,2019-10-29_18h10.08.855,SurveyExpMetaMem,3.2.3,MacIntel,60
,,,,,,,,,,,,,,,,,,,,5,0.088000059,1,0.148999929,1,0,1200,644,1,1199,farm,47284,2019-10-29_18h10.08.855,SurveyExpMetaMem,3.2.3,MacIntel,60
,,,,,,,,,,,,,,,,,,,,5,0.105000019,1,0.144999981,1,0,1200,240,1,1199,giggles,47284,2019-10-29_18h10.08.855,SurveyExpMetaMem,3.2.3,MacIntel,60
,,,,,,,,,,,,,,,,,,,,5,0.125999928,1,0.110999823,1,0,1200,951,1,1199,castrate,47284,2019-10-29_18h10.08.855,SurveyExpMetaMem,3.2.3,MacIntel,60
,,,,,,,,,,,,,,,,,,,,5,0.090999842,1,0.154000044,1,0,1200,893,1,1199,nature,47284,2019-10-29_18h10.08.855,SurveyExpMetaMem,3.2.3,MacIntel,60
,,,,,,,,,,,,,,,,,,,,5,0.095999956,1,0.174000025,1,0,1200,269,1,1199,extravagant,47284,2019-10-29_18h10.08.855,SurveyExpMetaMem,3.2.3,MacIntel,60
,,,,,,,,,,,,,,,,,,,,5,0.086999893,1,0.103999853,1,0,1200,835,1,1199,helpful,47284,2019-10-29_18h10.08.855,SurveyExpMetaMem,3.2.3,MacIntel,60
,,,,,,,,,,,,,,,,,,,,5,0.075000048,1,0.171999931,1,0,1200,49,1,1199,ecstatic,47284,2019-10-29_18h10.08.855,SurveyExpMetaMem,3.2.3,MacIntel,60
,,,,,,,,,,,,,,,,,,,,5,0.0849998,1,0.128000021,1,0,1200,276,1,1199,pastry,47284,2019-10-29_18h10.08.855,SurveyExpMetaMem,3.2.3,MacIntel,60
,,,,,,,,,,,,,,,,,,,,5,0.121999979,1,0.138999701,1,0,1200,328,1,1199,disgrace,47284,2019-10-29_18h10.08.855,SurveyExpMetaMem,3.2.3,MacIntel,60
,,,,,,,,,,,,,,,,,,,,5,0.070999861,1,0.132999897,1,0,1200,1144,1,1199,yelp,47284,2019-10-29_18h10.08.855,SurveyExpMetaMem,3.2.3,MacIntel,60
,,,,,,,,,,,,,,,,,,,,5,0.109999895,1,0.163999796,1,0,1200,823,1,1199,nourish,47284,2019-10-29_18h10.08.855,SurveyExpMetaMem,3.2.3,MacIntel,60
,,,,,,,,,,,,,,,,,,,,5,0.091999769,1,0.171000004,1,0,1200,317,1,1199,cry,47284,2019-10-29_18h10.08.855,SurveyExpMetaMem,3.2.3,MacIntel,60
,,,,,,,,,,,,,,,,,,,,5,0.072999954,1,0.187999964,1,0,1200,1181,1,1199,blade,47284,2019-10-29_18h10.08.855,SurveyExpMetaMem,3.2.3,MacIntel,60
,,,,,,,,,,,,,,,,,,,,5,0.054999828,1,0.213999987,1,0,1200,1180,1,1199,heat,47284,2019-10-29_18h10.08.855,SurveyExpMetaMem,3.2.3,MacIntel,60
,,,,,,,,,,,,,,,,,,,,5,0.069999933,1,0.171999931,1,0,1200,352,1,1199,negligent,47284,2019-10-29_18h10.08.855,SurveyExpMetaMem,3.2.3,MacIntel,60
,,,,,,,,,,,,,,,,,,,,5,0.088999987,1,0.16899991,1,0,1200,634,1,1199,glacier,47284,2019-10-29_18h10.08.855,SurveyExpMetaMem,3.2.3,MacIntel,60
,,,,,,,,,,,,,,,,,,,,5,0.072000027,1,0.157000065,1,0,1200,306,1,1199,gloom,47284,2019-10-29_18h10.08.855,SurveyExpMetaMem,3.2.3,MacIntel,60
,,,,,,,,,,,,,,,,,,,,5,0.046000004,1,0.165999889,1,0,1200,783,1,1199,sprinkle,47284,2019-10-29_18h10.08.855,SurveyExpMetaMem,3.2.3,MacIntel,60
,,,,,,,,,,,,,,,,,,,,5,0.062999725,1,0.179999828,1,0,1200,1057,1,1199,deceit,47284,2019-10-29_18h10.08.855,SurveyExpMetaMem,3.2.3,MacIntel,60
