mouse_4.x,mouse_4.y,mouse_4.leftButton,mouse_4.midButton,mouse_4.rightButton,mouse.x,mouse.y,mouse.leftButton,mouse.midButton,mouse.rightButton,mouse_2.x,mouse_2.y,mouse_2.leftButton,mouse_2.midButton,mouse_2.rightButton,mouse_3.x,mouse_3.y,mouse_3.leftButton,mouse_3.midButton,mouse_3.rightButton,A_key_resp.keys,A_key_resp.rt,key_resp.keys,key_resp.rt,trials.thisRepN,trials.thisTrialN,trials.thisN,trials.thisIndex,trials.ran,trials.order,word,ParticipantID,date,expName,psychopyVersion,OS,frameRate
0.06,-0.068888889,1,0,0,0.06,-0.068888889,1,0,0,0.06,-0.068888889,1,0,0,0.06,-0.068888889,1,0,0,5,7.355000019,1,8.085000038,1,0,1200,1022,1,1199,creepy,43336,2019-10-22_09h50.52.984,SurveyExpMetaMem,3.2.3,MacIntel,60
,,,,,,,,,,,,,,,,,,,,3,3.723999977,3,1.67200017,1,0,1200,439,1,1199,spit,43336,2019-10-22_09h50.52.984,SurveyExpMetaMem,3.2.3,MacIntel,60
,,,,,,,,,,,,,,,,,,,,9,5.46600008,9,2.073999882,1,0,1200,824,1,1199,favor,43336,2019-10-22_09h50.52.984,SurveyExpMetaMem,3.2.3,MacIntel,60
,,,,,,,,,,,,,,,,,,,,1,3.431000233,1,2.029000282,1,0,1200,406,1,1199,tired,43336,2019-10-22_09h50.52.984,SurveyExpMetaMem,3.2.3,MacIntel,60
,,,,,,,,,,,,,,,,,,,,9,6.120000124,7,2.565000296,1,0,1200,118,1,1199,conquer,43336,2019-10-22_09h50.52.984,SurveyExpMetaMem,3.2.3,MacIntel,60
,,,,,,,,,,,,,,,,,,,,7,2.360000134,4,1.436000109,1,0,1200,357,1,1199,whine,43336,2019-10-22_09h50.52.984,SurveyExpMetaMem,3.2.3,MacIntel,60
,,,,,,,,,,,,,,,,,,,,6,5.987000227,2,1.595000029,1,0,1200,475,1,1199,nameless,43336,2019-10-22_09h50.52.984,SurveyExpMetaMem,3.2.3,MacIntel,60
,,,,,,,,,,,,,,,,,,,,9,4.220999956,9,1.430000067,1,0,1200,52,1,1199,dare,43336,2019-10-22_09h50.52.984,SurveyExpMetaMem,3.2.3,MacIntel,60
,,,,,,,,,,,,,,,,,,,,7,9.31400013,3,1.388999939,1,0,1200,1062,1,1199,shoplifter,43336,2019-10-22_09h50.52.984,SurveyExpMetaMem,3.2.3,MacIntel,60
,,,,,,,,,,,,,,,,,,,,9,14.6730001,9,2.107000113,1,0,1200,511,1,1199,slouch,43336,2019-10-22_09h50.52.984,SurveyExpMetaMem,3.2.3,MacIntel,60
,,,,,,,,,,,,,,,,,,,,9,11.10800028,9,0.705000162,1,0,1200,69,1,1199,special,43336,2019-10-22_09h50.52.984,SurveyExpMetaMem,3.2.3,MacIntel,60
,,,,,,,,,,,,,,,,,,,,9,1.453999996,9,0.453000069,1,0,1200,864,1,1199,blanket,43336,2019-10-22_09h50.52.984,SurveyExpMetaMem,3.2.3,MacIntel,60
,,,,,,,,,,,,,,,,,,,,9,1.967000008,9,0.252000093,1,0,1200,90,1,1199,satisfaction,43336,2019-10-22_09h50.52.984,SurveyExpMetaMem,3.2.3,MacIntel,60
,,,,,,,,,,,,,,,,,,,,9,1.461000204,9,1.378999949,1,0,1200,0,1,1199,dragon,43336,2019-10-22_09h50.52.984,SurveyExpMetaMem,3.2.3,MacIntel,60
,,,,,,,,,,,,,,,,,,,,9,1.730000257,9,0.301000118,1,0,1200,86,1,1199,talent,43336,2019-10-22_09h50.52.984,SurveyExpMetaMem,3.2.3,MacIntel,60
,,,,,,,,,,,,,,,,,,,,5,3.103000164,5,0.272000074,1,0,1200,1020,1,1199,malice,43336,2019-10-22_09h50.52.984,SurveyExpMetaMem,3.2.3,MacIntel,60
,,,,,,,,,,,,,,,,,,,,3,8.900000095,1,1.294000149,1,0,1200,420,1,1199,smoke,43336,2019-10-22_09h50.52.984,SurveyExpMetaMem,3.2.3,MacIntel,60
,,,,,,,,,,,,,,,,,,,,9,1.740000248,9,0.255000114,1,0,1200,694,1,1199,pecan,43336,2019-10-22_09h50.52.984,SurveyExpMetaMem,3.2.3,MacIntel,60
,,,,,,,,,,,,,,,,,,,,5,2.898999929,1,1.558000088,1,0,1200,433,1,1199,uninteresting,43336,2019-10-22_09h50.52.984,SurveyExpMetaMem,3.2.3,MacIntel,60
,,,,,,,,,,,,,,,,,,,,9,2.085999966,9,0.269000053,1,0,1200,729,1,1199,velvet,43336,2019-10-22_09h50.52.984,SurveyExpMetaMem,3.2.3,MacIntel,60
,,,,,,,,,,,,,,,,,,,,9,4.51300025,1,2.164000034,1,0,1200,757,1,1199,sentiment,43336,2019-10-22_09h50.52.984,SurveyExpMetaMem,3.2.3,MacIntel,60
,,,,,,,,,,,,,,,,,,,,7,4.174000025,1,0.747999907,1,0,1200,1047,1,1199,psycho,43336,2019-10-22_09h50.52.984,SurveyExpMetaMem,3.2.3,MacIntel,60
,,,,,,,,,,,,,,,,,,,,8,3.548000097,2,1.244000196,1,0,1200,499,1,1199,stop,43336,2019-10-22_09h50.52.984,SurveyExpMetaMem,3.2.3,MacIntel,60
,,,,,,,,,,,,,,,,,,,,2,2.505000114,2,0.241000175,1,0,1200,402,1,1199,dismissive,43336,2019-10-22_09h50.52.984,SurveyExpMetaMem,3.2.3,MacIntel,60
,,,,,,,,,,,,,,,,,,,,9,1.805999994,9,1.503000021,1,0,1200,796,1,1199,rose,43336,2019-10-22_09h50.52.984,SurveyExpMetaMem,3.2.3,MacIntel,60
,,,,,,,,,,,,,,,,,,,,9,27.26100016,1,2.413000107,1,0,1200,29,1,1199,life,43336,2019-10-22_09h50.52.984,SurveyExpMetaMem,3.2.3,MacIntel,60
,,,,,,,,,,,,,,,,,,,,5,3.053000212,5,0.253000021,1,0,1200,339,1,1199,chore,43336,2019-10-22_09h50.52.984,SurveyExpMetaMem,3.2.3,MacIntel,60
,,,,,,,,,,,,,,,,,,,,5,1.312000036,5,0.177999973,1,0,1200,547,1,1199,cellar,43336,2019-10-22_09h50.52.984,SurveyExpMetaMem,3.2.3,MacIntel,60
,,,,,,,,,,,,,,,,,,,,7,2.157999992,2,0.953999996,1,0,1200,930,1,1199,poison,43336,2019-10-22_09h50.52.984,SurveyExpMetaMem,3.2.3,MacIntel,60
,,,,,,,,,,,,,,,,,,,,9,2.729000092,1,0.674000263,1,0,1200,905,1,1199,suffocate,43336,2019-10-22_09h50.52.984,SurveyExpMetaMem,3.2.3,MacIntel,60
,,,,,,,,,,,,,,,,,,,,9,1.504000187,9,1.144999981,1,0,1200,101,1,1199,alien,43336,2019-10-22_09h50.52.984,SurveyExpMetaMem,3.2.3,MacIntel,60
,,,,,,,,,,,,,,,,,,,,9,1.138000011,9,0.212000132,1,0,1200,36,1,1199,puppy,43336,2019-10-22_09h50.52.984,SurveyExpMetaMem,3.2.3,MacIntel,60
,,,,,,,,,,,,,,,,,,,,9,4.677999973,2,0.880000114,1,0,1200,76,1,1199,midnight,43336,2019-10-22_09h50.52.984,SurveyExpMetaMem,3.2.3,MacIntel,60
,,,,,,,,,,,,,,,,,,,,9,3.506999969,2,1.207000256,1,0,1200,49,1,1199,ecstatic,43336,2019-10-22_09h50.52.984,SurveyExpMetaMem,3.2.3,MacIntel,60
,,,,,,,,,,,,,,,,,,,,5,4.107000113,5,0.180999994,1,0,1200,336,1,1199,wasteful,43336,2019-10-22_09h50.52.984,SurveyExpMetaMem,3.2.3,MacIntel,60
,,,,,,,,,,,,,,,,,,,,8,2.071000099,9,0.561000109,1,0,1200,680,1,1199,candle,43336,2019-10-22_09h50.52.984,SurveyExpMetaMem,3.2.3,MacIntel,60
,,,,,,,,,,,,,,,,,,,,5,1.81400013,5,0.17200017,1,0,1200,368,1,1199,dreary,43336,2019-10-22_09h50.52.984,SurveyExpMetaMem,3.2.3,MacIntel,60
,,,,,,,,,,,,,,,,,,,,7,3.396000147,1,0.789000034,1,0,1200,1004,1,1199,burglar,43336,2019-10-22_09h50.52.984,SurveyExpMetaMem,3.2.3,MacIntel,60
,,,,,,,,,,,,,,,,,,,,9,1.495000124,9,0.207000017,1,0,1200,883,1,1199,sky,43336,2019-10-22_09h50.52.984,SurveyExpMetaMem,3.2.3,MacIntel,60
,,,,,,,,,,,,,,,,,,,,5,2.339000225,5,0.193000078,1,0,1200,638,1,1199,quench,43336,2019-10-22_09h50.52.984,SurveyExpMetaMem,3.2.3,MacIntel,60
,,,,,,,,,,,,,,,,,,,,9,1.80700016,9,0.787000179,1,0,1200,839,1,1199,flower,43336,2019-10-22_09h50.52.984,SurveyExpMetaMem,3.2.3,MacIntel,60
,,,,,,,,,,,,,,,,,,,,9,3.855999947,9,1.013000011,1,0,1200,92,1,1199,justice,43336,2019-10-22_09h50.52.984,SurveyExpMetaMem,3.2.3,MacIntel,60
,,,,,,,,,,,,,,,,,,,,9,3.308000088,9,0.416000128,1,0,1200,1088,1,1199,forbid,43336,2019-10-22_09h50.52.984,SurveyExpMetaMem,3.2.3,MacIntel,60
,,,,,,,,,,,,,,,,,,,,9,2.515000105,1,1.08100009,1,0,1200,1152,1,1199,scream,43336,2019-10-22_09h50.52.984,SurveyExpMetaMem,3.2.3,MacIntel,60
,,,,,,,,,,,,,,,,,,,,9,1.447000027,1,0.25,1,0,1200,104,1,1199,freeway,43336,2019-10-22_09h50.52.984,SurveyExpMetaMem,3.2.3,MacIntel,60
,,,,,,,,,,,,,,,,,,,,9,1.315000057,9,0.211000204,1,0,1200,876,1,1199,politeness,43336,2019-10-22_09h50.52.984,SurveyExpMetaMem,3.2.3,MacIntel,60
,,,,,,,,,,,,,,,,,,,,5,3.497000217,5,0.162000179,1,0,1200,667,1,1199,dew,43336,2019-10-22_09h50.52.984,SurveyExpMetaMem,3.2.3,MacIntel,60
,,,,,,,,,,,,,,,,,,,,5,3.589000225,5,1.490000248,1,0,1200,1116,1,1199,emergency,43336,2019-10-22_09h50.52.984,SurveyExpMetaMem,3.2.3,MacIntel,60
,,,,,,,,,,,,,,,,,,,,5,1.446000099,5,0.31400013,1,0,1200,621,1,1199,chew,43336,2019-10-22_09h50.52.984,SurveyExpMetaMem,3.2.3,MacIntel,60
,,,,,,,,,,,,,,,,,,,,9,1.265000105,1,0.798000097,1,0,1200,1058,1,1199,bloody,43336,2019-10-22_09h50.52.984,SurveyExpMetaMem,3.2.3,MacIntel,60
,,,,,,,,,,,,,,,,,,,,9,1.894000053,1,0.887000084,1,0,1200,878,1,1199,sleep,43336,2019-10-22_09h50.52.984,SurveyExpMetaMem,3.2.3,MacIntel,60
,,,,,,,,,,,,,,,,,,,,5,2.658000231,5,0.188000202,1,0,1200,401,1,1199,feeble,43336,2019-10-22_09h50.52.984,SurveyExpMetaMem,3.2.3,MacIntel,60
,,,,,,,,,,,,,,,,,,,,1,4.963999987,5,1.555999994,1,0,1200,598,1,1199,feet,43336,2019-10-22_09h50.52.984,SurveyExpMetaMem,3.2.3,MacIntel,60
,,,,,,,,,,,,,,,,,,,,1,8.474000216,1,0.836000204,1,0,1200,949,1,1199,thief,43336,2019-10-22_09h50.52.984,SurveyExpMetaMem,3.2.3,MacIntel,60
,,,,,,,,,,,,,,,,,,,,9,4.621000051,9,0.613000154,1,0,1200,703,1,1199,book,43336,2019-10-22_09h50.52.984,SurveyExpMetaMem,3.2.3,MacIntel,60
,,,,,,,,,,,,,,,,,,,,5,7.44900012,2,1.186000109,1,0,1200,1089,1,1199,ridicule,43336,2019-10-22_09h50.52.984,SurveyExpMetaMem,3.2.3,MacIntel,60
,,,,,,,,,,,,,,,,,,,,5,1.914999962,2,0.813000202,1,0,1200,390,1,1199,impair,43336,2019-10-22_09h50.52.984,SurveyExpMetaMem,3.2.3,MacIntel,60
,,,,,,,,,,,,,,,,,,,,5,1.387000084,3,0.6650002,1,0,1200,411,1,1199,bitter,43336,2019-10-22_09h50.52.984,SurveyExpMetaMem,3.2.3,MacIntel,60
,,,,,,,,,,,,,,,,,,,,4,3.054000139,5,1.590000153,1,0,1200,551,1,1199,coal,43336,2019-10-22_09h50.52.984,SurveyExpMetaMem,3.2.3,MacIntel,60
,,,,,,,,,,,,,,,,,,,,5,1.720000029,5,0.364000082,1,0,1200,520,1,1199,gullible,43336,2019-10-22_09h50.52.984,SurveyExpMetaMem,3.2.3,MacIntel,60
,,,,,,,,,,,,,,,,,,,,9,1.500000238,9,0.862999916,1,0,1200,153,1,1199,teach,43336,2019-10-22_09h50.52.984,SurveyExpMetaMem,3.2.3,MacIntel,60
,,,,,,,,,,,,,,,,,,,,9,1.124000072,9,0.237000227,1,0,1200,129,1,1199,fly,43336,2019-10-22_09h50.52.984,SurveyExpMetaMem,3.2.3,MacIntel,60
,,,,,,,,,,,,,,,,,,,,9,1.795000076,2,11.22300029,1,0,1200,1099,1,1199,fire,43336,2019-10-22_09h50.52.984,SurveyExpMetaMem,3.2.3,MacIntel,60
,,,,,,,,,,,,,,,,,,,,9,1.947999954,9,0.782000065,1,0,1200,274,1,1199,song,43336,2019-10-22_09h50.52.984,SurveyExpMetaMem,3.2.3,MacIntel,60
,,,,,,,,,,,,,,,,,,,,5,1.394999981,5,0.186000109,1,0,1200,356,1,1199,mucous,43336,2019-10-22_09h50.52.984,SurveyExpMetaMem,3.2.3,MacIntel,60
,,,,,,,,,,,,,,,,,,,,9,1.855000257,9,0.589000225,1,0,1200,1183,1,1199,emotional,43336,2019-10-22_09h50.52.984,SurveyExpMetaMem,3.2.3,MacIntel,60
,,,,,,,,,,,,,,,,,,,,9,1.447000265,9,0.228000164,1,0,1200,634,1,1199,glacier,43336,2019-10-22_09h50.52.984,SurveyExpMetaMem,3.2.3,MacIntel,60
,,,,,,,,,,,,,,,,,,,,1,1.240000248,1,1.579999924,1,0,1200,980,1,1199,liar,43336,2019-10-22_09h50.52.984,SurveyExpMetaMem,3.2.3,MacIntel,60
,,,,,,,,,,,,,,,,,,,,5,2.424999952,1,0.370000124,1,0,1200,967,1,1199,horrible,43336,2019-10-22_09h50.52.984,SurveyExpMetaMem,3.2.3,MacIntel,60
,,,,,,,,,,,,,,,,,,,,9,2.154000044,9,1.302000046,1,0,1200,9,1,1199,try,43336,2019-10-22_09h50.52.984,SurveyExpMetaMem,3.2.3,MacIntel,60
,,,,,,,,,,,,,,,,,,,,5,1.042999983,5,0.187000036,1,0,1200,155,1,1199,ignite,43336,2019-10-22_09h50.52.984,SurveyExpMetaMem,3.2.3,MacIntel,60
,,,,,,,,,,,,,,,,,,,,9,1.45600009,9,0.281000137,1,0,1200,215,1,1199,salary,43336,2019-10-22_09h50.52.984,SurveyExpMetaMem,3.2.3,MacIntel,60
,,,,,,,,,,,,,,,,,,,,5,52.57300019,5,0.142000198,1,0,1200,230,1,1199,eager,43336,2019-10-22_09h50.52.984,SurveyExpMetaMem,3.2.3,MacIntel,60
,,,,,,,,,,,,,,,,,,,,9,1.398000002,9,0.328000069,1,0,1200,816,1,1199,hippotamus,43336,2019-10-22_09h50.52.984,SurveyExpMetaMem,3.2.3,MacIntel,60
,,,,,,,,,,,,,,,,,,,,8,3.292000055,2,0.588000059,1,0,1200,650,1,1199,native,43336,2019-10-22_09h50.52.984,SurveyExpMetaMem,3.2.3,MacIntel,60
,,,,,,,,,,,,,,,,,,,,7,4.346000195,2,0.830000162,1,0,1200,1053,1,1199,surgery,43336,2019-10-22_09h50.52.984,SurveyExpMetaMem,3.2.3,MacIntel,60
,,,,,,,,,,,,,,,,,,,,9,1.620000124,9,0.336000204,1,0,1200,595,1,1199,vacuum,43336,2019-10-22_09h50.52.984,SurveyExpMetaMem,3.2.3,MacIntel,60
,,,,,,,,,,,,,,,,,,,,9,1.145000219,9,0.230000019,1,0,1200,73,1,1199,rhythm,43336,2019-10-22_09h50.52.984,SurveyExpMetaMem,3.2.3,MacIntel,60
,,,,,,,,,,,,,,,,,,,,9,2.044000149,9,0.258000135,1,0,1200,586,1,1199,cab,43336,2019-10-22_09h50.52.984,SurveyExpMetaMem,3.2.3,MacIntel,60
,,,,,,,,,,,,,,,,,,,,5,1.845999956,5,0.205000162,1,0,1200,589,1,1199,coarse,43336,2019-10-22_09h50.52.984,SurveyExpMetaMem,3.2.3,MacIntel,60
,,,,,,,,,,,,,,,,,,,,2,2.355000019,3,1.520000219,1,0,1200,774,1,1199,leaves,43336,2019-10-22_09h50.52.984,SurveyExpMetaMem,3.2.3,MacIntel,60
,,,,,,,,,,,,,,,,,,,,5,4.162999868,5,0.154999971,1,0,1200,714,1,1199,courtyard,43336,2019-10-22_09h50.52.984,SurveyExpMetaMem,3.2.3,MacIntel,60
,,,,,,,,,,,,,,,,,,,,5,1.69900012,5,0.312000036,1,0,1200,615,1,1199,lad,43336,2019-10-22_09h50.52.984,SurveyExpMetaMem,3.2.3,MacIntel,60
,,,,,,,,,,,,,,,,,,,,5,0.855000019,5,0.197000027,1,0,1200,1092,1,1199,rattlesnake,43336,2019-10-22_09h50.52.984,SurveyExpMetaMem,3.2.3,MacIntel,60
,,,,,,,,,,,,,,,,,,,,5,1.13100028,5,0.319999933,1,0,1200,522,1,1199,cleft,43336,2019-10-22_09h50.52.984,SurveyExpMetaMem,3.2.3,MacIntel,60
,,,,,,,,,,,,,,,,,,,,9,2.186000109,9,0.521000147,1,0,1200,239,1,1199,compassionate,43336,2019-10-22_09h50.52.984,SurveyExpMetaMem,3.2.3,MacIntel,60
,,,,,,,,,,,,,,,,,,,,9,1.621000051,9,0.186000109,1,0,1200,607,1,1199,greyhound,43336,2019-10-22_09h50.52.984,SurveyExpMetaMem,3.2.3,MacIntel,60
,,,,,,,,,,,,,,,,,,,,1,2.857000113,4,1.796000242,1,0,1200,690,1,1199,similar,43336,2019-10-22_09h50.52.984,SurveyExpMetaMem,3.2.3,MacIntel,60
,,,,,,,,,,,,,,,,,,,,5,2.548000097,8,1.467000246,1,0,1200,82,1,1199,stunning,43336,2019-10-22_09h50.52.984,SurveyExpMetaMem,3.2.3,MacIntel,60
,,,,,,,,,,,,,,,,,,,,5,2.227999926,2,1.04700017,1,0,1200,966,1,1199,regretful,43336,2019-10-22_09h50.52.984,SurveyExpMetaMem,3.2.3,MacIntel,60
,,,,,,,,,,,,,,,,,,,,7,11.10200024,5,2.329999924,1,0,1200,996,1,1199,sting,43336,2019-10-22_09h50.52.984,SurveyExpMetaMem,3.2.3,MacIntel,60
,,,,,,,,,,,,,,,,,,,,8,2.092999935,7,1.548000097,1,0,1200,98,1,1199,affection,43336,2019-10-22_09h50.52.984,SurveyExpMetaMem,3.2.3,MacIntel,60
,,,,,,,,,,,,,,,,,,,,9,1.487000227,9,0.246999979,1,0,1200,68,1,1199,perfect,43336,2019-10-22_09h50.52.984,SurveyExpMetaMem,3.2.3,MacIntel,60
,,,,,,,,,,,,,,,,,,,,9,3.372000217,9,0.237000227,1,0,1200,751,1,1199,listen,43336,2019-10-22_09h50.52.984,SurveyExpMetaMem,3.2.3,MacIntel,60
,,,,,,,,,,,,,,,,,,,,9,0.308000088,9,0.46600008,1,0,1200,628,1,1199,chess,43336,2019-10-22_09h50.52.984,SurveyExpMetaMem,3.2.3,MacIntel,60
,,,,,,,,,,,,,,,,,,,,9,0.20600009,9,0.453000069,1,0,1200,668,1,1199,unit,43336,2019-10-22_09h50.52.984,SurveyExpMetaMem,3.2.3,MacIntel,60
,,,,,,,,,,,,,,,,,,,,5,0.869000196,1,0.687000036,1,0,1200,317,1,1199,cry,43336,2019-10-22_09h50.52.984,SurveyExpMetaMem,3.2.3,MacIntel,60
,,,,,,,,,,,,,,,,,,,,1,3.424000025,1,0.609000206,1,0,1200,1138,1,1199,wail,43336,2019-10-22_09h50.52.984,SurveyExpMetaMem,3.2.3,MacIntel,60
,,,,,,,,,,,,,,,,,,,,9,2.58100009,9,0.360000134,1,0,1200,87,1,1199,cookie,43336,2019-10-22_09h50.52.984,SurveyExpMetaMem,3.2.3,MacIntel,60
,,,,,,,,,,,,,,,,,,,,5,1.594000101,1,0.603000164,1,0,1200,352,1,1199,negligent,43336,2019-10-22_09h50.52.984,SurveyExpMetaMem,3.2.3,MacIntel,60
,,,,,,,,,,,,,,,,,,,,9,2.624000072,9,1.126000166,1,0,1200,704,1,1199,flute,43336,2019-10-22_09h50.52.984,SurveyExpMetaMem,3.2.3,MacIntel,60
,,,,,,,,,,,,,,,,,,,,5,2.871999979,5,0.201999903,1,0,1200,575,1,1199,paragraph,43336,2019-10-22_09h50.52.984,SurveyExpMetaMem,3.2.3,MacIntel,60
,,,,,,,,,,,,,,,,,,,,9,1.420000076,9,0.308000088,1,0,1200,229,1,1199,heaven,43336,2019-10-22_09h50.52.984,SurveyExpMetaMem,3.2.3,MacIntel,60
,,,,,,,,,,,,,,,,,,,,5,2.072999954,1,0.486999989,1,0,1200,509,1,1199,ash,43336,2019-10-22_09h50.52.984,SurveyExpMetaMem,3.2.3,MacIntel,60
,,,,,,,,,,,,,,,,,,,,5,7.595000029,5,0.838000298,1,0,1200,231,1,1199,cherish,43336,2019-10-22_09h50.52.984,SurveyExpMetaMem,3.2.3,MacIntel,60
,,,,,,,,,,,,,,,,,,,,5,0.086000204,5,0.687000036,1,0,1200,207,1,1199,erect,43336,2019-10-22_09h50.52.984,SurveyExpMetaMem,3.2.3,MacIntel,60
,,,,,,,,,,,,,,,,,,,,5,0.202000141,9,1.203999996,1,0,1200,848,1,1199,graceful,43336,2019-10-22_09h50.52.984,SurveyExpMetaMem,3.2.3,MacIntel,60
,,,,,,,,,,,,,,,,,,,,9,2.552999973,9,0.337000132,1,0,1200,34,1,1199,personality,43336,2019-10-22_09h50.52.984,SurveyExpMetaMem,3.2.3,MacIntel,60
,,,,,,,,,,,,,,,,,,,,9,0.963999987,9,0.213000298,1,0,1200,221,1,1199,sparkle,43336,2019-10-22_09h50.52.984,SurveyExpMetaMem,3.2.3,MacIntel,60
,,,,,,,,,,,,,,,,,,,,5,1.506999969,1,0.240999937,1,0,1200,365,1,1199,discouraged,43336,2019-10-22_09h50.52.984,SurveyExpMetaMem,3.2.3,MacIntel,60
,,,,,,,,,,,,,,,,,,,,9,3.039000034,1,0.305999994,1,0,1200,922,1,1199,nightmare,43336,2019-10-22_09h50.52.984,SurveyExpMetaMem,3.2.3,MacIntel,60
,,,,,,,,,,,,,,,,,,,,5,4.936000109,7,1.411000252,1,0,1200,644,1,1199,farm,43336,2019-10-22_09h50.52.984,SurveyExpMetaMem,3.2.3,MacIntel,60
,,,,,,,,,,,,,,,,,,,,5,1.472000122,5,0.187999964,1,0,1200,375,1,1199,manure,43336,2019-10-22_09h50.52.984,SurveyExpMetaMem,3.2.3,MacIntel,60
,,,,,,,,,,,,,,,,,,,,5,1.180000067,5,0.188000202,1,0,1200,767,1,1199,civil,43336,2019-10-22_09h50.52.984,SurveyExpMetaMem,3.2.3,MacIntel,60
,,,,,,,,,,,,,,,,,,,,7,1.804000139,2,1.266000032,1,0,1200,1140,1,1199,blood,43336,2019-10-22_09h50.52.984,SurveyExpMetaMem,3.2.3,MacIntel,60
,,,,,,,,,,,,,,,,,,,,5,4.169000149,9,0.631000042,1,0,1200,565,1,1199,frozen,43336,2019-10-22_09h50.52.984,SurveyExpMetaMem,3.2.3,MacIntel,60
,,,,,,,,,,,,,,,,,,,,5,1.143000126,2,0.890000105,1,0,1200,574,1,1199,distracted,43336,2019-10-22_09h50.52.984,SurveyExpMetaMem,3.2.3,MacIntel,60
,,,,,,,,,,,,,,,,,,,,9,1.490000248,9,0.269000292,1,0,1200,841,1,1199,bathtub,43336,2019-10-22_09h50.52.984,SurveyExpMetaMem,3.2.3,MacIntel,60
,,,,,,,,,,,,,,,,,,,,5,4.257000208,1,0.536000013,1,0,1200,921,1,1199,humiliation,43336,2019-10-22_09h50.52.984,SurveyExpMetaMem,3.2.3,MacIntel,60
,,,,,,,,,,,,,,,,,,,,9,2.395000219,9,0.221000195,1,0,1200,879,1,1199,bird,43336,2019-10-22_09h50.52.984,SurveyExpMetaMem,3.2.3,MacIntel,60
,,,,,,,,,,,,,,,,,,,,1,1.744999886,1,0.244999886,1,0,1200,378,1,1199,dislike,43336,2019-10-22_09h50.52.984,SurveyExpMetaMem,3.2.3,MacIntel,60
,,,,,,,,,,,,,,,,,,,,1,3.203000069,8,2.141000032,1,0,1200,241,1,1199,car,43336,2019-10-22_09h50.52.984,SurveyExpMetaMem,3.2.3,MacIntel,60
,,,,,,,,,,,,,,,,,,,,5,92.32800031,9,1.757000208,1,0,1200,713,1,1199,mobile,43336,2019-10-22_09h50.52.984,SurveyExpMetaMem,3.2.3,MacIntel,60
,,,,,,,,,,,,,,,,,,,,9,2.155999899,9,0.188000202,1,0,1200,873,1,1199,useful,43336,2019-10-22_09h50.52.984,SurveyExpMetaMem,3.2.3,MacIntel,60
,,,,,,,,,,,,,,,,,,,,1,2.097000122,9,1.279000044,1,0,1200,39,1,1199,birth,43336,2019-10-22_09h50.52.984,SurveyExpMetaMem,3.2.3,MacIntel,60
,,,,,,,,,,,,,,,,,,,,1,1.531000137,4,1.111999989,1,0,1200,436,1,1199,mediocre,43336,2019-10-22_09h50.52.984,SurveyExpMetaMem,3.2.3,MacIntel,60
,,,,,,,,,,,,,,,,,,,,1,3.073000193,7,1.488000154,1,0,1200,1018,1,1199,distress,43336,2019-10-22_09h50.52.984,SurveyExpMetaMem,3.2.3,MacIntel,60
,,,,,,,,,,,,,,,,,,,,1,2.04700017,1,0.551000118,1,0,1200,1019,1,1199,fraud,43336,2019-10-22_09h50.52.984,SurveyExpMetaMem,3.2.3,MacIntel,60
,,,,,,,,,,,,,,,,,,,,1,1.009000063,1,0.25600028,1,0,1200,984,1,1199,despairing,43336,2019-10-22_09h50.52.984,SurveyExpMetaMem,3.2.3,MacIntel,60
,,,,,,,,,,,,,,,,,,,,9,1.614000082,9,0.256000042,1,0,1200,852,1,1199,caring,43336,2019-10-22_09h50.52.984,SurveyExpMetaMem,3.2.3,MacIntel,60
,,,,,,,,,,,,,,,,,,,,9,1.106000185,9,0.197999954,1,0,1200,42,1,1199,accomplish,43336,2019-10-22_09h50.52.984,SurveyExpMetaMem,3.2.3,MacIntel,60
,,,,,,,,,,,,,,,,,,,,5,2.238000154,5,0.153000116,1,0,1200,647,1,1199,accord,43336,2019-10-22_09h50.52.984,SurveyExpMetaMem,3.2.3,MacIntel,60
,,,,,,,,,,,,,,,,,,,,1,4.428000212,2,1.092000008,1,0,1200,890,1,1199,carefree,43336,2019-10-22_09h50.52.984,SurveyExpMetaMem,3.2.3,MacIntel,60
,,,,,,,,,,,,,,,,,,,,9,2.624000072,9,0.489000082,1,0,1200,616,1,1199,coat,43336,2019-10-22_09h50.52.984,SurveyExpMetaMem,3.2.3,MacIntel,60
,,,,,,,,,,,,,,,,,,,,7,2.454000235,1,0.991000175,1,0,1200,1042,1,1199,brutal,43336,2019-10-22_09h50.52.984,SurveyExpMetaMem,3.2.3,MacIntel,60
,,,,,,,,,,,,,,,,,,,,1,10.84200025,9,0.921000004,1,0,1200,653,1,1199,detail,43336,2019-10-22_09h50.52.984,SurveyExpMetaMem,3.2.3,MacIntel,60
,,,,,,,,,,,,,,,,,,,,1,1.61500001,9,1.147000074,1,0,1200,698,1,1199,oven,43336,2019-10-22_09h50.52.984,SurveyExpMetaMem,3.2.3,MacIntel,60
,,,,,,,,,,,,,,,,,,,,9,3.170000315,6,2.055000067,1,0,1200,187,1,1199,excite,43336,2019-10-22_09h50.52.984,SurveyExpMetaMem,3.2.3,MacIntel,60
,,,,,,,,,,,,,,,,,,,,1,1.913000107,6,1.750000238,1,0,1200,830,1,1199,pear,43336,2019-10-22_09h50.52.984,SurveyExpMetaMem,3.2.3,MacIntel,60
,,,,,,,,,,,,,,,,,,,,1,5.497999907,7,1.644000053,1,0,1200,166,1,1199,unite,43336,2019-10-22_09h50.52.984,SurveyExpMetaMem,3.2.3,MacIntel,60
,,,,,,,,,,,,,,,,,,,,1,1.600000143,3,1.794000149,1,0,1200,1066,1,1199,annoy,43336,2019-10-22_09h50.52.984,SurveyExpMetaMem,3.2.3,MacIntel,60
,,,,,,,,,,,,,,,,,,,,7,3.031000137,1,1.697000265,1,0,1200,972,1,1199,homicide,43336,2019-10-22_09h50.52.984,SurveyExpMetaMem,3.2.3,MacIntel,60
,,,,,,,,,,,,,,,,,,,,1,3.082000017,1,0.306999922,1,0,1200,812,1,1199,harp,43336,2019-10-22_09h50.52.984,SurveyExpMetaMem,3.2.3,MacIntel,60
,,,,,,,,,,,,,,,,,,,,9,1.549000025,9,0.725000143,1,0,1200,137,1,1199,money,43336,2019-10-22_09h50.52.984,SurveyExpMetaMem,3.2.3,MacIntel,60
,,,,,,,,,,,,,,,,,,,,7,6.221000195,2,2.269000053,1,0,1200,327,1,1199,misfortune,43336,2019-10-22_09h50.52.984,SurveyExpMetaMem,3.2.3,MacIntel,60
,,,,,,,,,,,,,,,,,,,,5,3.030999899,1,1.572000027,1,0,1200,358,1,1199,waste,43336,2019-10-22_09h50.52.984,SurveyExpMetaMem,3.2.3,MacIntel,60
,,,,,,,,,,,,,,,,,,,,7,2.048000097,8,1.78000021,1,0,1200,21,1,1199,game,43336,2019-10-22_09h50.52.984,SurveyExpMetaMem,3.2.3,MacIntel,60
,,,,,,,,,,,,,,,,,,,,5,4.600000143,5,0.319000244,1,0,1200,2,1,1199,zealous,43336,2019-10-22_09h50.52.984,SurveyExpMetaMem,3.2.3,MacIntel,60
,,,,,,,,,,,,,,,,,,,,9,1.211000204,9,0.379000187,1,0,1200,142,1,1199,christmas,43336,2019-10-22_09h50.52.984,SurveyExpMetaMem,3.2.3,MacIntel,60
,,,,,,,,,,,,,,,,,,,,1,3.463999987,9,0.618999958,1,0,1200,683,1,1199,scarf,43336,2019-10-22_09h50.52.984,SurveyExpMetaMem,3.2.3,MacIntel,60
,,,,,,,,,,,,,,,,,,,,1,1.803999901,9,2.190999985,1,0,1200,265,1,1199,invent,43336,2019-10-22_09h50.52.984,SurveyExpMetaMem,3.2.3,MacIntel,60
,,,,,,,,,,,,,,,,,,,,1,1.296000242,5,1.707000017,1,0,1200,618,1,1199,ceiling,43336,2019-10-22_09h50.52.984,SurveyExpMetaMem,3.2.3,MacIntel,60
,,,,,,,,,,,,,,,,,,,,1,1.677999973,5,0.287000179,1,0,1200,553,1,1199,corner,43336,2019-10-22_09h50.52.984,SurveyExpMetaMem,3.2.3,MacIntel,60
,,,,,,,,,,,,,,,,,,,,9,1.654999971,1,0.993999958,1,0,1200,944,1,1199,kill,43336,2019-10-22_09h50.52.984,SurveyExpMetaMem,3.2.3,MacIntel,60
,,,,,,,,,,,,,,,,,,,,1,3.58100009,7,1.486999989,1,0,1200,88,1,1199,ambitious,43336,2019-10-22_09h50.52.984,SurveyExpMetaMem,3.2.3,MacIntel,60
,,,,,,,,,,,,,,,,,,,,1,1.24000001,5,1.180999994,1,0,1200,1111,1,1199,bruise,43336,2019-10-22_09h50.52.984,SurveyExpMetaMem,3.2.3,MacIntel,60
,,,,,,,,,,,,,,,,,,,,1,15.36000013,5,1.322999954,1,0,1200,24,1,1199,model,43336,2019-10-22_09h50.52.984,SurveyExpMetaMem,3.2.3,MacIntel,60
,,,,,,,,,,,,,,,,,,,,9,1.786000013,9,0.453000069,1,0,1200,298,1,1199,success,43336,2019-10-22_09h50.52.984,SurveyExpMetaMem,3.2.3,MacIntel,60
,,,,,,,,,,,,,,,,,,,,6,3.315000057,1,1.012000084,1,0,1200,928,1,1199,cruel,43336,2019-10-22_09h50.52.984,SurveyExpMetaMem,3.2.3,MacIntel,60
,,,,,,,,,,,,,,,,,,,,7,1.794000149,1,0.322000027,1,0,1200,881,1,1199,protected,43336,2019-10-22_09h50.52.984,SurveyExpMetaMem,3.2.3,MacIntel,60
,,,,,,,,,,,,,,,,,,,,1,1.93900013,1,0.272000074,1,0,1200,235,1,1199,cheery,43336,2019-10-22_09h50.52.984,SurveyExpMetaMem,3.2.3,MacIntel,60
,,,,,,,,,,,,,,,,,,,,1,0.558000088,1,0.437000036,1,0,1200,669,1,1199,plaza,43336,2019-10-22_09h50.52.984,SurveyExpMetaMem,3.2.3,MacIntel,60
,,,,,,,,,,,,,,,,,,,,1,0.986999989,1,0.223999977,1,0,1200,379,1,1199,slob,43336,2019-10-22_09h50.52.984,SurveyExpMetaMem,3.2.3,MacIntel,60
,,,,,,,,,,,,,,,,,,,,1,1.273999929,9,1.46600008,1,0,1200,67,1,1199,penthouse,43336,2019-10-22_09h50.52.984,SurveyExpMetaMem,3.2.3,MacIntel,60
,,,,,,,,,,,,,,,,,,,,1,1.489000082,5,2.51300025,1,0,1200,1073,1,1199,bitch,43336,2019-10-22_09h50.52.984,SurveyExpMetaMem,3.2.3,MacIntel,60
,,,,,,,,,,,,,,,,,,,,1,4.648999929,1,0.656000137,1,0,1200,312,1,1199,stench,43336,2019-10-22_09h50.52.984,SurveyExpMetaMem,3.2.3,MacIntel,60
,,,,,,,,,,,,,,,,,,,,5,1.368000031,5,0.157000065,1,0,1200,454,1,1199,damp,43336,2019-10-22_09h50.52.984,SurveyExpMetaMem,3.2.3,MacIntel,60
,,,,,,,,,,,,,,,,,,,,5,0.626000166,9,1.279999971,1,0,1200,523,1,1199,witch,43336,2019-10-22_09h50.52.984,SurveyExpMetaMem,3.2.3,MacIntel,60
,,,,,,,,,,,,,,,,,,,,9,2.880000114,1,0.806000233,1,0,1200,975,1,1199,insecure,43336,2019-10-22_09h50.52.984,SurveyExpMetaMem,3.2.3,MacIntel,60
,,,,,,,,,,,,,,,,,,,,7,2.82400012,1,1.082000256,1,0,1200,759,1,1199,prefer,43336,2019-10-22_09h50.52.984,SurveyExpMetaMem,3.2.3,MacIntel,60
,,,,,,,,,,,,,,,,,,,,9,1.779000044,9,0.355999947,1,0,1200,810,1,1199,polite,43336,2019-10-22_09h50.52.984,SurveyExpMetaMem,3.2.3,MacIntel,60
,,,,,,,,,,,,,,,,,,,,5,1.474000216,5,0.162000179,1,0,1200,1177,1,1199,pang,43336,2019-10-22_09h50.52.984,SurveyExpMetaMem,3.2.3,MacIntel,60
,,,,,,,,,,,,,,,,,,,,9,2.316000223,9,0.497000217,1,0,1200,233,1,1199,exhilaration,43336,2019-10-22_09h50.52.984,SurveyExpMetaMem,3.2.3,MacIntel,60
,,,,,,,,,,,,,,,,,,,,9,0.600000143,9,0.45600009,1,0,1200,35,1,1199,bright,43336,2019-10-22_09h50.52.984,SurveyExpMetaMem,3.2.3,MacIntel,60
,,,,,,,,,,,,,,,,,,,,9,0.774000168,9,0.43200016,1,0,1200,258,1,1199,children,43336,2019-10-22_09h50.52.984,SurveyExpMetaMem,3.2.3,MacIntel,60
,,,,,,,,,,,,,,,,,,,,9,1.388999939,9,0.295000076,1,0,1200,722,1,1199,consoled,43336,2019-10-22_09h50.52.984,SurveyExpMetaMem,3.2.3,MacIntel,60
,,,,,,,,,,,,,,,,,,,,9,0.72300005,9,0.19900012,1,0,1200,286,1,1199,superstar,43336,2019-10-22_09h50.52.984,SurveyExpMetaMem,3.2.3,MacIntel,60
,,,,,,,,,,,,,,,,,,,,3,4.097000122,1,0.822999954,1,0,1200,1098,1,1199,confused,43336,2019-10-22_09h50.52.984,SurveyExpMetaMem,3.2.3,MacIntel,60
,,,,,,,,,,,,,,,,,,,,9,5.31400013,5,2.18599987,1,0,1200,709,1,1199,ancestor,43336,2019-10-22_09h50.52.984,SurveyExpMetaMem,3.2.3,MacIntel,60
,,,,,,,,,,,,,,,,,,,,9,1.184999943,9,0.34100008,1,0,1200,288,1,1199,tasty,43336,2019-10-22_09h50.52.984,SurveyExpMetaMem,3.2.3,MacIntel,60
,,,,,,,,,,,,,,,,,,,,9,1.106999874,9,0.31400013,1,0,1200,899,1,1199,relax,43336,2019-10-22_09h50.52.984,SurveyExpMetaMem,3.2.3,MacIntel,60
,,,,,,,,,,,,,,,,,,,,9,1.016000032,9,0.305000067,1,0,1200,134,1,1199,dollar,43336,2019-10-22_09h50.52.984,SurveyExpMetaMem,3.2.3,MacIntel,60
,,,,,,,,,,,,,,,,,,,,1,3.07400012,5,1.237000227,1,0,1200,75,1,1199,actor,43336,2019-10-22_09h50.52.984,SurveyExpMetaMem,3.2.3,MacIntel,60
,,,,,,,,,,,,,,,,,,,,1,1.569000006,5,0.511000156,1,0,1200,753,1,1199,patience,43336,2019-10-22_09h50.52.984,SurveyExpMetaMem,3.2.3,MacIntel,60
,,,,,,,,,,,,,,,,,,,,1,1.357000113,2,0.994000196,1,0,1200,481,1,1199,melancholy,43336,2019-10-22_09h50.52.984,SurveyExpMetaMem,3.2.3,MacIntel,60
,,,,,,,,,,,,,,,,,,,,1,1.335999966,1,0.803999901,1,0,1200,311,1,1199,discomfort,43336,2019-10-22_09h50.52.984,SurveyExpMetaMem,3.2.3,MacIntel,60
,,,,,,,,,,,,,,,,,,,,9,2.022000074,1,0.615000248,1,0,1200,1033,1,1199,horror,43336,2019-10-22_09h50.52.984,SurveyExpMetaMem,3.2.3,MacIntel,60
,,,,,,,,,,,,,,,,,,,,5,3.81400013,5,0.197000265,1,0,1200,500,1,1199,nosey,43336,2019-10-22_09h50.52.984,SurveyExpMetaMem,3.2.3,MacIntel,60
,,,,,,,,,,,,,,,,,,,,9,3.381000042,9,0.85400033,1,0,1200,294,1,1199,confident,43336,2019-10-22_09h50.52.984,SurveyExpMetaMem,3.2.3,MacIntel,60
,,,,,,,,,,,,,,,,,,,,9,1.595999956,9,0.41899991,1,0,1200,649,1,1199,donkey,43336,2019-10-22_09h50.52.984,SurveyExpMetaMem,3.2.3,MacIntel,60
,,,,,,,,,,,,,,,,,,,,1,1.829000235,5,1.569000006,1,0,1200,670,1,1199,urinate,43336,2019-10-22_09h50.52.984,SurveyExpMetaMem,3.2.3,MacIntel,60
,,,,,,,,,,,,,,,,,,,,1,5.488000154,5,1.228000164,1,0,1200,642,1,1199,newspaper,43336,2019-10-22_09h50.52.984,SurveyExpMetaMem,3.2.3,MacIntel,60
,,,,,,,,,,,,,,,,,,,,1,5.437000036,5,1.93200016,1,0,1200,1166,1,1199,compulsive,43336,2019-10-22_09h50.52.984,SurveyExpMetaMem,3.2.3,MacIntel,60
,,,,,,,,,,,,,,,,,,,,1,0.894000053,5,0.487999916,1,0,1200,370,1,1199,rodent,43336,2019-10-22_09h50.52.984,SurveyExpMetaMem,3.2.3,MacIntel,60
,,,,,,,,,,,,,,,,,,,,1,1.344000101,5,1.605000019,1,0,1200,808,1,1199,violinist,43336,2019-10-22_09h50.52.984,SurveyExpMetaMem,3.2.3,MacIntel,60
,,,,,,,,,,,,,,,,,,,,9,1.420000076,9,0.24600029,1,0,1200,65,1,1199,restaurant,43336,2019-10-22_09h50.52.984,SurveyExpMetaMem,3.2.3,MacIntel,60
,,,,,,,,,,,,,,,,,,,,1,1.08100009,1,0.879000187,1,0,1200,929,1,1199,mutilation,43336,2019-10-22_09h50.52.984,SurveyExpMetaMem,3.2.3,MacIntel,60
,,,,,,,,,,,,,,,,,,,,9,1.497000217,9,0.304000139,1,0,1200,93,1,1199,smiling,43336,2019-10-22_09h50.52.984,SurveyExpMetaMem,3.2.3,MacIntel,60
,,,,,,,,,,,,,,,,,,,,9,0.80700016,9,0.221000195,1,0,1200,40,1,1199,kissing,43336,2019-10-22_09h50.52.984,SurveyExpMetaMem,3.2.3,MacIntel,60
,,,,,,,,,,,,,,,,,,,,9,0.880000114,9,0.231000185,1,0,1200,275,1,1199,brilliant,43336,2019-10-22_09h50.52.984,SurveyExpMetaMem,3.2.3,MacIntel,60
,,,,,,,,,,,,,,,,,,,,1,1.231000185,5,0.883000135,1,0,1200,651,1,1199,bathroom,43336,2019-10-22_09h50.52.984,SurveyExpMetaMem,3.2.3,MacIntel,60
,,,,,,,,,,,,,,,,,,,,1,6.978000164,1,2.149000168,1,0,1200,571,1,1199,marrow,43336,2019-10-22_09h50.52.984,SurveyExpMetaMem,3.2.3,MacIntel,60
,,,,,,,,,,,,,,,,,,,,1,1.093000174,1,0.597000122,1,0,1200,784,1,1199,logical,43336,2019-10-22_09h50.52.984,SurveyExpMetaMem,3.2.3,MacIntel,60
,,,,,,,,,,,,,,,,,,,,1,1.906000137,1,1.046000242,1,0,1200,374,1,1199,sluggish,43336,2019-10-22_09h50.52.984,SurveyExpMetaMem,3.2.3,MacIntel,60
,,,,,,,,,,,,,,,,,,,,5,2.621999979,5,0.245000124,1,0,1200,1186,1,1199,goddamn,43336,2019-10-22_09h50.52.984,SurveyExpMetaMem,3.2.3,MacIntel,60
,,,,,,,,,,,,,,,,,,,,9,1.887000084,5,0.769999981,1,0,1200,785,1,1199,pond,43336,2019-10-22_09h50.52.984,SurveyExpMetaMem,3.2.3,MacIntel,60
,,,,,,,,,,,,,,,,,,,,9,3.67200017,1,1.055999994,1,0,1200,1171,1,1199,chaos,43336,2019-10-22_09h50.52.984,SurveyExpMetaMem,3.2.3,MacIntel,60
,,,,,,,,,,,,,,,,,,,,5,3.515000105,9,1.22300005,1,0,1200,731,1,1199,decency,43336,2019-10-22_09h50.52.984,SurveyExpMetaMem,3.2.3,MacIntel,60
,,,,,,,,,,,,,,,,,,,,9,1.230000257,9,0.287000179,1,0,1200,44,1,1199,diploma,43336,2019-10-22_09h50.52.984,SurveyExpMetaMem,3.2.3,MacIntel,60
,,,,,,,,,,,,,,,,,,,,1,1.945000172,5,1.055000305,1,0,1200,10,1,1199,cheerleader,43336,2019-10-22_09h50.52.984,SurveyExpMetaMem,3.2.3,MacIntel,60
,,,,,,,,,,,,,,,,,,,,1,2.465000153,5,0.735000134,1,0,1200,827,1,1199,saint,43336,2019-10-22_09h50.52.984,SurveyExpMetaMem,3.2.3,MacIntel,60
,,,,,,,,,,,,,,,,,,,,9,1.156000137,9,0.330000162,1,0,1200,814,1,1199,dress,43336,2019-10-22_09h50.52.984,SurveyExpMetaMem,3.2.3,MacIntel,60
,,,,,,,,,,,,,,,,,,,,5,2.006000042,1,2.097000122,1,0,1200,923,1,1199,punish,43336,2019-10-22_09h50.52.984,SurveyExpMetaMem,3.2.3,MacIntel,60
,,,,,,,,,,,,,,,,,,,,5,13.898,5,0.245000124,1,0,1200,1010,1,1199,arson,43336,2019-10-22_09h50.52.984,SurveyExpMetaMem,3.2.3,MacIntel,60
,,,,,,,,,,,,,,,,,,,,5,2.969000101,5,1.095000267,1,0,1200,882,1,1199,gentle,43336,2019-10-22_09h50.52.984,SurveyExpMetaMem,3.2.3,MacIntel,60
,,,,,,,,,,,,,,,,,,,,5,0.671999931,5,0.441000223,1,0,1200,974,1,1199,roach,43336,2019-10-22_09h50.52.984,SurveyExpMetaMem,3.2.3,MacIntel,60
,,,,,,,,,,,,,,,,,,,,1,1.774999857,9,2.313999891,1,0,1200,610,1,1199,miniature,43336,2019-10-22_09h50.52.984,SurveyExpMetaMem,3.2.3,MacIntel,60
,,,,,,,,,,,,,,,,,,,,1,7.238000154,5,0.861000061,1,0,1200,792,1,1199,moral,43336,2019-10-22_09h50.52.984,SurveyExpMetaMem,3.2.3,MacIntel,60
,,,,,,,,,,,,,,,,,,,,1,1.204000235,1,0.927000284,1,0,1200,1159,1,1199,rifle,43336,2019-10-22_09h50.52.984,SurveyExpMetaMem,3.2.3,MacIntel,60
,,,,,,,,,,,,,,,,,,,,1,2.887000084,5,0.953000069,1,0,1200,543,1,1199,gloat,43336,2019-10-22_09h50.52.984,SurveyExpMetaMem,3.2.3,MacIntel,60
,,,,,,,,,,,,,,,,,,,,1,2.812999964,5,1.088999987,1,0,1200,719,1,1199,western,43336,2019-10-22_09h50.52.984,SurveyExpMetaMem,3.2.3,MacIntel,60
,,,,,,,,,,,,,,,,,,,,9,2.160000086,3,1.995000124,1,0,1200,1061,1,1199,difficult,43336,2019-10-22_09h50.52.984,SurveyExpMetaMem,3.2.3,MacIntel,60
,,,,,,,,,,,,,,,,,,,,8,4.062999964,3,1.296999931,1,0,1200,1079,1,1199,critic,43336,2019-10-22_09h50.52.984,SurveyExpMetaMem,3.2.3,MacIntel,60
,,,,,,,,,,,,,,,,,,,,1,3.220000029,1,0.795000076,1,0,1200,159,1,1199,teenager,43336,2019-10-22_09h50.52.984,SurveyExpMetaMem,3.2.3,MacIntel,60
,,,,,,,,,,,,,,,,,,,,1,1.657000065,1,0.404000044,1,0,1200,623,1,1199,suburban,43336,2019-10-22_09h50.52.984,SurveyExpMetaMem,3.2.3,MacIntel,60
,,,,,,,,,,,,,,,,,,,,5,3.782000065,5,0.173000097,1,0,1200,750,1,1199,porpoise,43336,2019-10-22_09h50.52.984,SurveyExpMetaMem,3.2.3,MacIntel,60
,,,,,,,,,,,,,,,,,,,,9,1.861000061,1,0.510000229,1,0,1200,1156,1,1199,weapon,43336,2019-10-22_09h50.52.984,SurveyExpMetaMem,3.2.3,MacIntel,60
,,,,,,,,,,,,,,,,,,,,9,2.178000212,1,0.285000086,1,0,1200,1167,1,1199,bribe,43336,2019-10-22_09h50.52.984,SurveyExpMetaMem,3.2.3,MacIntel,60
,,,,,,,,,,,,,,,,,,,,9,1.987999916,9,0.295000076,1,0,1200,242,1,1199,triumph,43336,2019-10-22_09h50.52.984,SurveyExpMetaMem,3.2.3,MacIntel,60
,,,,,,,,,,,,,,,,,,,,9,1.637000084,9,0.257000208,1,0,1200,461,1,1199,ail,43336,2019-10-22_09h50.52.984,SurveyExpMetaMem,3.2.3,MacIntel,60
,,,,,,,,,,,,,,,,,,,,5,1.463999987,5,0.253000259,1,0,1200,471,1,1199,chump,43336,2019-10-22_09h50.52.984,SurveyExpMetaMem,3.2.3,MacIntel,60
,,,,,,,,,,,,,,,,,,,,5,1.986000299,1,0.226999998,1,0,1200,323,1,1199,ungrateful,43336,2019-10-22_09h50.52.984,SurveyExpMetaMem,3.2.3,MacIntel,60
,,,,,,,,,,,,,,,,,,,,1,1.769000053,2,1.578000069,1,0,1200,1109,1,1199,germ,43336,2019-10-22_09h50.52.984,SurveyExpMetaMem,3.2.3,MacIntel,60
,,,,,,,,,,,,,,,,,,,,1,1.753000021,2,0.877000093,1,0,1200,592,1,1199,sweep,43336,2019-10-22_09h50.52.984,SurveyExpMetaMem,3.2.3,MacIntel,60
,,,,,,,,,,,,,,,,,,,,1,1.631999969,5,1.332000017,1,0,1200,637,1,1199,flock,43336,2019-10-22_09h50.52.984,SurveyExpMetaMem,3.2.3,MacIntel,60
,,,,,,,,,,,,,,,,,,,,9,1.285000086,9,0.222000122,1,0,1200,695,1,1199,teacher,43336,2019-10-22_09h50.52.984,SurveyExpMetaMem,3.2.3,MacIntel,60
,,,,,,,,,,,,,,,,,,,,9,21.66400003,9,3.350000143,1,0,1200,581,1,1199,dork,43336,2019-10-22_09h50.52.984,SurveyExpMetaMem,3.2.3,MacIntel,60
,,,,,,,,,,,,,,,,,,,,9,3.377000093,5,0.55700016,1,0,1200,19,1,1199,firefighter,43336,2019-10-22_09h50.52.984,SurveyExpMetaMem,3.2.3,MacIntel,60
,,,,,,,,,,,,,,,,,,,,5,1.092000246,5,0.226000309,1,0,1200,503,1,1199,sludge,43336,2019-10-22_09h50.52.984,SurveyExpMetaMem,3.2.3,MacIntel,60
,,,,,,,,,,,,,,,,,,,,5,1.180999994,5,0.194000006,1,0,1200,1181,1,1199,blade,43336,2019-10-22_09h50.52.984,SurveyExpMetaMem,3.2.3,MacIntel,60
,,,,,,,,,,,,,,,,,,,,5,0.815000296,5,0.354000092,1,0,1200,487,1,1199,junk,43336,2019-10-22_09h50.52.984,SurveyExpMetaMem,3.2.3,MacIntel,60
,,,,,,,,,,,,,,,,,,,,1,1.380000114,5,0.928999901,1,0,1200,675,1,1199,golfer,43336,2019-10-22_09h50.52.984,SurveyExpMetaMem,3.2.3,MacIntel,60
,,,,,,,,,,,,,,,,,,,,9,1.871000051,5,1.014000177,1,0,1200,28,1,1199,energy,43336,2019-10-22_09h50.52.984,SurveyExpMetaMem,3.2.3,MacIntel,60
,,,,,,,,,,,,,,,,,,,,9,1.554000139,9,0.546000004,1,0,1200,641,1,1199,writer,43336,2019-10-22_09h50.52.984,SurveyExpMetaMem,3.2.3,MacIntel,60
,,,,,,,,,,,,,,,,,,,,5,4.229000092,5,0.252000093,1,0,1200,754,1,1199,reflection,43336,2019-10-22_09h50.52.984,SurveyExpMetaMem,3.2.3,MacIntel,60
,,,,,,,,,,,,,,,,,,,,9,2.873000145,1,0.539999962,1,0,1200,566,1,1199,obscure,43336,2019-10-22_09h50.52.984,SurveyExpMetaMem,3.2.3,MacIntel,60
,,,,,,,,,,,,,,,,,,,,5,1.187000036,5,0.203999996,1,0,1200,476,1,1199,warden,43336,2019-10-22_09h50.52.984,SurveyExpMetaMem,3.2.3,MacIntel,60
,,,,,,,,,,,,,,,,,,,,9,1.065000057,9,0.177000046,1,0,1200,843,1,1199,garden,43336,2019-10-22_09h50.52.984,SurveyExpMetaMem,3.2.3,MacIntel,60
,,,,,,,,,,,,,,,,,,,,5,1.802999973,5,0.190000057,1,0,1200,525,1,1199,stagnant,43336,2019-10-22_09h50.52.984,SurveyExpMetaMem,3.2.3,MacIntel,60
,,,,,,,,,,,,,,,,,,,,5,1.40500021,5,0.173000097,1,0,1200,681,1,1199,fig,43336,2019-10-22_09h50.52.984,SurveyExpMetaMem,3.2.3,MacIntel,60
,,,,,,,,,,,,,,,,,,,,5,1.494000196,5,0.207000256,1,0,1200,802,1,1199,familiar,43336,2019-10-22_09h50.52.984,SurveyExpMetaMem,3.2.3,MacIntel,60
,,,,,,,,,,,,,,,,,,,,5,1.769000292,9,1.287000179,1,0,1200,558,1,1199,punk,43336,2019-10-22_09h50.52.984,SurveyExpMetaMem,3.2.3,MacIntel,60
,,,,,,,,,,,,,,,,,,,,9,1.535000086,9,0.595000029,1,0,1200,1132,1,1199,anarchy,43336,2019-10-22_09h50.52.984,SurveyExpMetaMem,3.2.3,MacIntel,60
,,,,,,,,,,,,,,,,,,,,5,1.464000225,5,0.320000172,1,0,1200,629,1,1199,barn,43336,2019-10-22_09h50.52.984,SurveyExpMetaMem,3.2.3,MacIntel,60
,,,,,,,,,,,,,,,,,,,,5,0.691000223,5,0.198000193,1,0,1200,606,1,1199,easel,43336,2019-10-22_09h50.52.984,SurveyExpMetaMem,3.2.3,MacIntel,60
,,,,,,,,,,,,,,,,,,,,5,0.567000151,5,0.211000204,1,0,1200,468,1,1199,noose,43336,2019-10-22_09h50.52.984,SurveyExpMetaMem,3.2.3,MacIntel,60
,,,,,,,,,,,,,,,,,,,,9,0.830000162,9,0.197000265,1,0,1200,772,1,1199,ornament,43336,2019-10-22_09h50.52.984,SurveyExpMetaMem,3.2.3,MacIntel,60
,,,,,,,,,,,,,,,,,,,,5,0.732000113,5,0.420000076,1,0,1200,1117,1,1199,court,43336,2019-10-22_09h50.52.984,SurveyExpMetaMem,3.2.3,MacIntel,60
,,,,,,,,,,,,,,,,,,,,1,1.220999956,1,0.880000114,1,0,1200,346,1,1199,alcoholism,43336,2019-10-22_09h50.52.984,SurveyExpMetaMem,3.2.3,MacIntel,60
,,,,,,,,,,,,,,,,,,,,9,2.524000168,9,0.255000114,1,0,1200,130,1,1199,great,43336,2019-10-22_09h50.52.984,SurveyExpMetaMem,3.2.3,MacIntel,60
,,,,,,,,,,,,,,,,,,,,5,2.561000109,5,1.062000036,1,0,1200,766,1,1199,flag,43336,2019-10-22_09h50.52.984,SurveyExpMetaMem,3.2.3,MacIntel,60
,,,,,,,,,,,,,,,,,,,,6,23.51400018,6,0.830000162,1,0,1200,371,1,1199,weakness,43336,2019-10-22_09h50.52.984,SurveyExpMetaMem,3.2.3,MacIntel,60
,,,,,,,,,,,,,,,,,,,,9,3.370000124,1,0.412000179,1,0,1200,1031,1,1199,fear,43336,2019-10-22_09h50.52.984,SurveyExpMetaMem,3.2.3,MacIntel,60
,,,,,,,,,,,,,,,,,,,,1,8.838000059,1,0.512000084,1,0,1200,486,1,1199,fool,43336,2019-10-22_09h50.52.984,SurveyExpMetaMem,3.2.3,MacIntel,60
,,,,,,,,,,,,,,,,,,,,5,1.40199995,5,0.194000244,1,0,1200,590,1,1199,stool,43336,2019-10-22_09h50.52.984,SurveyExpMetaMem,3.2.3,MacIntel,60
,,,,,,,,,,,,,,,,,,,,9,1.008000135,9,0.321000099,1,0,1200,868,1,1199,grace,43336,2019-10-22_09h50.52.984,SurveyExpMetaMem,3.2.3,MacIntel,60
,,,,,,,,,,,,,,,,,,,,9,1.252000093,9,0.230000019,1,0,1200,173,1,1199,hope,43336,2019-10-22_09h50.52.984,SurveyExpMetaMem,3.2.3,MacIntel,60
,,,,,,,,,,,,,,,,,,,,5,2.44900012,9,0.446000099,1,0,1200,603,1,1199,mane,43336,2019-10-22_09h50.52.984,SurveyExpMetaMem,3.2.3,MacIntel,60
,,,,,,,,,,,,,,,,,,,,9,2.255000114,1,0.715000153,1,0,1200,978,1,1199,starving,43336,2019-10-22_09h50.52.984,SurveyExpMetaMem,3.2.3,MacIntel,60
,,,,,,,,,,,,,,,,,,,,5,4.872000217,5,0.210000038,1,0,1200,1182,1,1199,pierce,43336,2019-10-22_09h50.52.984,SurveyExpMetaMem,3.2.3,MacIntel,60
,,,,,,,,,,,,,,,,,,,,2,3.907000065,9,2.245000124,1,0,1200,795,1,1199,soup,43336,2019-10-22_09h50.52.984,SurveyExpMetaMem,3.2.3,MacIntel,60
,,,,,,,,,,,,,,,,,,,,9,3.523999929,1,1.340000153,1,0,1200,1056,1,1199,crime,43336,2019-10-22_09h50.52.984,SurveyExpMetaMem,3.2.3,MacIntel,60
,,,,,,,,,,,,,,,,,,,,5,10.7900002,5,0.285000086,1,0,1200,220,1,1199,reef,43336,2019-10-22_09h50.52.984,SurveyExpMetaMem,3.2.3,MacIntel,60
,,,,,,,,,,,,,,,,,,,,5,1.044000149,5,0.195000172,1,0,1200,438,1,1199,dull,43336,2019-10-22_09h50.52.984,SurveyExpMetaMem,3.2.3,MacIntel,60
,,,,,,,,,,,,,,,,,,,,5,3.407000303,5,0.31400013,1,0,1200,1060,1,1199,dent,43336,2019-10-22_09h50.52.984,SurveyExpMetaMem,3.2.3,MacIntel,60
,,,,,,,,,,,,,,,,,,,,5,2.187000036,5,0.356000185,1,0,1200,14,1,1199,attain,43336,2019-10-22_09h50.52.984,SurveyExpMetaMem,3.2.3,MacIntel,60
,,,,,,,,,,,,,,,,,,,,9,1.361000061,9,0.42200017,1,0,1200,639,1,1199,outlet,43336,2019-10-22_09h50.52.984,SurveyExpMetaMem,3.2.3,MacIntel,60
,,,,,,,,,,,,,,,,,,,,5,1.061000109,5,0.639000177,1,0,1200,1095,1,1199,fright,43336,2019-10-22_09h50.52.984,SurveyExpMetaMem,3.2.3,MacIntel,60
,,,,,,,,,,,,,,,,,,,,9,1.773999929,1,1.088000059,1,0,1200,126,1,1199,rich,43336,2019-10-22_09h50.52.984,SurveyExpMetaMem,3.2.3,MacIntel,60
,,,,,,,,,,,,,,,,,,,,9,1.278000116,1,0.204999924,1,0,1200,903,1,1199,cancer,43336,2019-10-22_09h50.52.984,SurveyExpMetaMem,3.2.3,MacIntel,60
,,,,,,,,,,,,,,,,,,,,9,1.615999937,9,0.336000204,1,0,1200,861,1,1199,nectar,43336,2019-10-22_09h50.52.984,SurveyExpMetaMem,3.2.3,MacIntel,60
,,,,,,,,,,,,,,,,,,,,5,2.848000288,5,0.245000124,1,0,1200,182,1,1199,genius,43336,2019-10-22_09h50.52.984,SurveyExpMetaMem,3.2.3,MacIntel,60
,,,,,,,,,,,,,,,,,,,,9,2.588999987,9,1.106000185,1,0,1200,579,1,1199,bus,43336,2019-10-22_09h50.52.984,SurveyExpMetaMem,3.2.3,MacIntel,60
,,,,,,,,,,,,,,,,,,,,1,3.61500001,5,1.253999949,1,0,1200,527,1,1199,passive,43336,2019-10-22_09h50.52.984,SurveyExpMetaMem,3.2.3,MacIntel,60
,,,,,,,,,,,,,,,,,,,,1,1.397000074,5,1.157999992,1,0,1200,855,1,1199,girl,43336,2019-10-22_09h50.52.984,SurveyExpMetaMem,3.2.3,MacIntel,60
,,,,,,,,,,,,,,,,,,,,1,2.157000065,9,0.664000273,1,0,1200,706,1,1199,cat,43336,2019-10-22_09h50.52.984,SurveyExpMetaMem,3.2.3,MacIntel,60
,,,,,,,,,,,,,,,,,,,,9,10.83300018,9,0.446000099,1,0,1200,194,1,1199,celebration,43336,2019-10-22_09h50.52.984,SurveyExpMetaMem,3.2.3,MacIntel,60
,,,,,,,,,,,,,,,,,,,,9,1.213999987,9,0.315999985,1,0,1200,835,1,1199,helpful,43336,2019-10-22_09h50.52.984,SurveyExpMetaMem,3.2.3,MacIntel,60
,,,,,,,,,,,,,,,,,,,,1,1.286000252,5,1.303000212,1,0,1200,1175,1,1199,prostitute,43336,2019-10-22_09h50.52.984,SurveyExpMetaMem,3.2.3,MacIntel,60
,,,,,,,,,,,,,,,,,,,,1,1.347000122,1,0.340000153,1,0,1200,1068,1,1199,riot,43336,2019-10-22_09h50.52.984,SurveyExpMetaMem,3.2.3,MacIntel,60
,,,,,,,,,,,,,,,,,,,,9,1.752000093,9,0.173000097,1,0,1200,120,1,1199,imaginative,43336,2019-10-22_09h50.52.984,SurveyExpMetaMem,3.2.3,MacIntel,60
,,,,,,,,,,,,,,,,,,,,1,1.229000092,1,0.697000027,1,0,1200,1142,1,1199,disturb,43336,2019-10-22_09h50.52.984,SurveyExpMetaMem,3.2.3,MacIntel,60
,,,,,,,,,,,,,,,,,,,,1,3.124000072,1,1.084000111,1,0,1200,246,1,1199,complete,43336,2019-10-22_09h50.52.984,SurveyExpMetaMem,3.2.3,MacIntel,60
,,,,,,,,,,,,,,,,,,,,1,0.693000078,1,0.512000084,1,0,1200,397,1,1199,complaint,43336,2019-10-22_09h50.52.984,SurveyExpMetaMem,3.2.3,MacIntel,60
,,,,,,,,,,,,,,,,,,,,1,2.378000259,1,0.654000044,1,0,1200,794,1,1199,pray,43336,2019-10-22_09h50.52.984,SurveyExpMetaMem,3.2.3,MacIntel,60
,,,,,,,,,,,,,,,,,,,,9,1.943000078,1,0.614000082,1,0,1200,1172,1,1199,overwhelmed,43336,2019-10-22_09h50.52.984,SurveyExpMetaMem,3.2.3,MacIntel,60
,,,,,,,,,,,,,,,,,,,,1,2.278000116,1,0.704999924,1,0,1200,529,1,1199,small,43336,2019-10-22_09h50.52.984,SurveyExpMetaMem,3.2.3,MacIntel,60
,,,,,,,,,,,,,,,,,,,,9,2.187000036,9,0.328000069,1,0,1200,726,1,1199,crackers,43336,2019-10-22_09h50.52.984,SurveyExpMetaMem,3.2.3,MacIntel,60
,,,,,,,,,,,,,,,,,,,,1,1.350000143,1,0.486000299,1,0,1200,54,1,1199,alcohol,43336,2019-10-22_09h50.52.984,SurveyExpMetaMem,3.2.3,MacIntel,60
,,,,,,,,,,,,,,,,,,,,9,1.158000231,9,0.220000029,1,0,1200,672,1,1199,ketchup,43336,2019-10-22_09h50.52.984,SurveyExpMetaMem,3.2.3,MacIntel,60
,,,,,,,,,,,,,,,,,,,,9,4.270000219,9,0.567000151,1,0,1200,109,1,1199,new,43336,2019-10-22_09h50.52.984,SurveyExpMetaMem,3.2.3,MacIntel,60
,,,,,,,,,,,,,,,,,,,,9,1.553999901,1,1.238000154,1,0,1200,448,1,1199,depart,43336,2019-10-22_09h50.52.984,SurveyExpMetaMem,3.2.3,MacIntel,60
,,,,,,,,,,,,,,,,,,,,9,1.979000092,9,0.213999987,1,0,1200,838,1,1199,nestle,43336,2019-10-22_09h50.52.984,SurveyExpMetaMem,3.2.3,MacIntel,60
,,,,,,,,,,,,,,,,,,,,1,1.269999981,5,1.029000044,1,0,1200,620,1,1199,spray,43336,2019-10-22_09h50.52.984,SurveyExpMetaMem,3.2.3,MacIntel,60
,,,,,,,,,,,,,,,,,,,,9,11.273,5,0.781000137,1,0,1200,1057,1,1199,deceit,43336,2019-10-22_09h50.52.984,SurveyExpMetaMem,3.2.3,MacIntel,60
,,,,,,,,,,,,,,,,,,,,5,1.398000002,5,0.545000076,1,0,1200,597,1,1199,drool,43336,2019-10-22_09h50.52.984,SurveyExpMetaMem,3.2.3,MacIntel,60
,,,,,,,,,,,,,,,,,,,,5,1.029999971,5,0.274000168,1,0,1200,818,1,1199,priest,43336,2019-10-22_09h50.52.984,SurveyExpMetaMem,3.2.3,MacIntel,60
,,,,,,,,,,,,,,,,,,,,5,0.277000189,5,0.436000109,1,0,1200,1055,1,1199,alarm,43336,2019-10-22_09h50.52.984,SurveyExpMetaMem,3.2.3,MacIntel,60
,,,,,,,,,,,,,,,,,,,,5,0.690000057,5,0.204999924,1,0,1200,1187,1,1199,drill,43336,2019-10-22_09h50.52.984,SurveyExpMetaMem,3.2.3,MacIntel,60
,,,,,,,,,,,,,,,,,,,,5,0.212000132,5,0.362000227,1,0,1200,829,1,1199,innocent,43336,2019-10-22_09h50.52.984,SurveyExpMetaMem,3.2.3,MacIntel,60
,,,,,,,,,,,,,,,,,,,,5,0.612000227,9,0.59100008,1,0,1200,23,1,1199,earn,43336,2019-10-22_09h50.52.984,SurveyExpMetaMem,3.2.3,MacIntel,60
,,,,,,,,,,,,,,,,,,,,9,0.414999962,5,0.460000038,1,0,1200,914,1,1199,fail,43336,2019-10-22_09h50.52.984,SurveyExpMetaMem,3.2.3,MacIntel,60
,,,,,,,,,,,,,,,,,,,,1,0.343000174,1,0.538000107,1,0,1200,400,1,1199,urine,43336,2019-10-22_09h50.52.984,SurveyExpMetaMem,3.2.3,MacIntel,60
,,,,,,,,,,,,,,,,,,,,9,1.320000172,9,0.349000216,1,0,1200,188,1,1199,profit,43336,2019-10-22_09h50.52.984,SurveyExpMetaMem,3.2.3,MacIntel,60
,,,,,,,,,,,,,,,,,,,,1,0.930000067,5,0.538000107,1,0,1200,1131,1,1199,envious,43336,2019-10-22_09h50.52.984,SurveyExpMetaMem,3.2.3,MacIntel,60
,,,,,,,,,,,,,,,,,,,,1,2.424999952,1,1.021000147,1,0,1200,377,1,1199,complain,43336,2019-10-22_09h50.52.984,SurveyExpMetaMem,3.2.3,MacIntel,60
,,,,,,,,,,,,,,,,,,,,1,1.508000135,1,0.403000116,1,0,1200,387,1,1199,tax,43336,2019-10-22_09h50.52.984,SurveyExpMetaMem,3.2.3,MacIntel,60
,,,,,,,,,,,,,,,,,,,,5,1.190000296,5,0.203000069,1,0,1200,345,1,1199,unfortunate,43336,2019-10-22_09h50.52.984,SurveyExpMetaMem,3.2.3,MacIntel,60
,,,,,,,,,,,,,,,,,,,,1,1.662000179,1,0.844000101,1,0,1200,1124,1,1199,seize,43336,2019-10-22_09h50.52.984,SurveyExpMetaMem,3.2.3,MacIntel,60
,,,,,,,,,,,,,,,,,,,,9,1.373000145,9,0.546000004,1,0,1200,679,1,1199,yellow,43336,2019-10-22_09h50.52.984,SurveyExpMetaMem,3.2.3,MacIntel,60
,,,,,,,,,,,,,,,,,,,,5,1.082000017,5,0.367000103,1,0,1200,388,1,1199,mildew,43336,2019-10-22_09h50.52.984,SurveyExpMetaMem,3.2.3,MacIntel,60
,,,,,,,,,,,,,,,,,,,,5,0.588000059,9,0.59100008,1,0,1200,313,1,1199,rotten,43336,2019-10-22_09h50.52.984,SurveyExpMetaMem,3.2.3,MacIntel,60
,,,,,,,,,,,,,,,,,,,,1,2.164999962,1,0.643000126,1,0,1200,912,1,1199,rabies,43336,2019-10-22_09h50.52.984,SurveyExpMetaMem,3.2.3,MacIntel,60
,,,,,,,,,,,,,,,,,,,,9,1.188000202,9,0.504000187,1,0,1200,295,1,1199,passion,43336,2019-10-22_09h50.52.984,SurveyExpMetaMem,3.2.3,MacIntel,60
,,,,,,,,,,,,,,,,,,,,9,2.694000244,9,0.529000044,1,0,1200,705,1,1199,tolerant,43336,2019-10-22_09h50.52.984,SurveyExpMetaMem,3.2.3,MacIntel,60
,,,,,,,,,,,,,,,,,,,,9,0.869000196,9,0.322000027,1,0,1200,721,1,1199,contemporary,43336,2019-10-22_09h50.52.984,SurveyExpMetaMem,3.2.3,MacIntel,60
,,,,,,,,,,,,,,,,,,,,9,1.055000067,9,0.196000099,1,0,1200,626,1,1199,pan,43336,2019-10-22_09h50.52.984,SurveyExpMetaMem,3.2.3,MacIntel,60
,,,,,,,,,,,,,,,,,,,,9,0.624000072,9,0.207000017,1,0,1200,251,1,1199,meteor,43336,2019-10-22_09h50.52.984,SurveyExpMetaMem,3.2.3,MacIntel,60
,,,,,,,,,,,,,,,,,,,,1,3.407999992,5,1.054000139,1,0,1200,386,1,1199,pale,43336,2019-10-22_09h50.52.984,SurveyExpMetaMem,3.2.3,MacIntel,60
,,,,,,,,,,,,,,,,,,,,1,3.237999916,1,0.539999962,1,0,1200,1077,1,1199,unsure,43336,2019-10-22_09h50.52.984,SurveyExpMetaMem,3.2.3,MacIntel,60
,,,,,,,,,,,,,,,,,,,,5,1.129000187,5,0.190000296,1,0,1200,1184,1,1199,reckless,43336,2019-10-22_09h50.52.984,SurveyExpMetaMem,3.2.3,MacIntel,60
,,,,,,,,,,,,,,,,,,,,1,1.595000267,1,0.845999956,1,0,1200,1006,1,1199,rash,43336,2019-10-22_09h50.52.984,SurveyExpMetaMem,3.2.3,MacIntel,60
,,,,,,,,,,,,,,,,,,,,1,2.47300005,1,0.710000038,1,0,1200,1170,1,1199,police,43336,2019-10-22_09h50.52.984,SurveyExpMetaMem,3.2.3,MacIntel,60
,,,,,,,,,,,,,,,,,,,,5,1.453000069,5,0.215000153,1,0,1200,654,1,1199,brief,43336,2019-10-22_09h50.52.984,SurveyExpMetaMem,3.2.3,MacIntel,60
,,,,,,,,,,,,,,,,,,,,9,1.323000193,9,0.236000061,1,0,1200,238,1,1199,sunshine,43336,2019-10-22_09h50.52.984,SurveyExpMetaMem,3.2.3,MacIntel,60
,,,,,,,,,,,,,,,,,,,,5,1.044000149,5,0.186000109,1,0,1200,1162,1,1199,baffle,43336,2019-10-22_09h50.52.984,SurveyExpMetaMem,3.2.3,MacIntel,60
,,,,,,,,,,,,,,,,,,,,9,2.833000183,1,0.337000132,1,0,1200,347,1,1199,unpleasant,43336,2019-10-22_09h50.52.984,SurveyExpMetaMem,3.2.3,MacIntel,60
,,,,,,,,,,,,,,,,,,,,1,1.906000137,1,1.226000071,1,0,1200,576,1,1199,policy,43336,2019-10-22_09h50.52.984,SurveyExpMetaMem,3.2.3,MacIntel,60
,,,,,,,,,,,,,,,,,,,,9,1.756000042,9,0.56400013,1,0,1200,304,1,1199,depression,43336,2019-10-22_09h50.52.984,SurveyExpMetaMem,3.2.3,MacIntel,60
,,,,,,,,,,,,,,,,,,,,5,4.741000175,5,0.228000164,1,0,1200,646,1,1199,wear,43336,2019-10-22_09h50.52.984,SurveyExpMetaMem,3.2.3,MacIntel,60
,,,,,,,,,,,,,,,,,,,,9,2.914000273,9,0.305000067,1,0,1200,633,1,1199,cattle,43336,2019-10-22_09h50.52.984,SurveyExpMetaMem,3.2.3,MacIntel,60
,,,,,,,,,,,,,,,,,,,,5,1.076999903,1,0.373000145,1,0,1200,267,1,1199,bold,43336,2019-10-22_09h50.52.984,SurveyExpMetaMem,3.2.3,MacIntel,60
,,,,,,,,,,,,,,,,,,,,5,3.1650002,5,0.212000132,1,0,1200,95,1,1199,giggle,43336,2019-10-22_09h50.52.984,SurveyExpMetaMem,3.2.3,MacIntel,60
,,,,,,,,,,,,,,,,,,,,9,1.082000017,9,0.178000212,1,0,1200,149,1,1199,loved,43336,2019-10-22_09h50.52.984,SurveyExpMetaMem,3.2.3,MacIntel,60
,,,,,,,,,,,,,,,,,,,,9,2.264000177,9,0.157999992,1,0,1200,739,1,1199,seagull,43336,2019-10-22_09h50.52.984,SurveyExpMetaMem,3.2.3,MacIntel,60
,,,,,,,,,,,,,,,,,,,,9,1.019000053,9,0.156000137,1,0,1200,203,1,1199,seal,43336,2019-10-22_09h50.52.984,SurveyExpMetaMem,3.2.3,MacIntel,60
,,,,,,,,,,,,,,,,,,,,1,1.135999918,1,0.38800025,1,0,1200,443,1,1199,incorrect,43336,2019-10-22_09h50.52.984,SurveyExpMetaMem,3.2.3,MacIntel,60
,,,,,,,,,,,,,,,,,,,,1,7.897000074,1,0.630000114,1,0,1200,712,1,1199,harvest,43336,2019-10-22_09h50.52.984,SurveyExpMetaMem,3.2.3,MacIntel,60
,,,,,,,,,,,,,,,,,,,,1,1.460000277,1,0.472000122,1,0,1200,957,1,1199,debt,43336,2019-10-22_09h50.52.984,SurveyExpMetaMem,3.2.3,MacIntel,60
,,,,,,,,,,,,,,,,,,,,5,1.71600008,1,0.944000244,1,0,1200,777,1,1199,casual,43336,2019-10-22_09h50.52.984,SurveyExpMetaMem,3.2.3,MacIntel,60
,,,,,,,,,,,,,,,,,,,,5,1.221000195,1,0.344000101,1,0,1200,1093,1,1199,hive,43336,2019-10-22_09h50.52.984,SurveyExpMetaMem,3.2.3,MacIntel,60
,,,,,,,,,,,,,,,,,,,,9,2.43599987,1,0.219000101,1,0,1200,326,1,1199,scam,43336,2019-10-22_09h50.52.984,SurveyExpMetaMem,3.2.3,MacIntel,60
,,,,,,,,,,,,,,,,,,,,9,1.198000193,1,0.723999977,1,0,1200,456,1,1199,piss,43336,2019-10-22_09h50.52.984,SurveyExpMetaMem,3.2.3,MacIntel,60
,,,,,,,,,,,,,,,,,,,,9,1.619000196,1,0.362999916,1,0,1200,1169,1,1199,enforcement,43336,2019-10-22_09h50.52.984,SurveyExpMetaMem,3.2.3,MacIntel,60
,,,,,,,,,,,,,,,,,,,,9,1.086000204,9,0.201999903,1,0,1200,624,1,1199,tower,43336,2019-10-22_09h50.52.984,SurveyExpMetaMem,3.2.3,MacIntel,60
,,,,,,,,,,,,,,,,,,,,5,1.197000265,5,0.223999977,1,0,1200,415,1,1199,grime,43336,2019-10-22_09h50.52.984,SurveyExpMetaMem,3.2.3,MacIntel,60
,,,,,,,,,,,,,,,,,,,,1,1.179000139,1,0.514000177,1,0,1200,993,1,1199,remorse,43336,2019-10-22_09h50.52.984,SurveyExpMetaMem,3.2.3,MacIntel,60
,,,,,,,,,,,,,,,,,,,,5,2.437000036,5,0.197000027,1,0,1200,360,1,1199,dandruff,43336,2019-10-22_09h50.52.984,SurveyExpMetaMem,3.2.3,MacIntel,60
,,,,,,,,,,,,,,,,,,,,1,1.170000076,1,0.237000227,1,0,1200,469,1,1199,resent,43336,2019-10-22_09h50.52.984,SurveyExpMetaMem,3.2.3,MacIntel,60
,,,,,,,,,,,,,,,,,,,,1,1.044000149,1,0.272000074,1,0,1200,1133,1,1199,slip,43336,2019-10-22_09h50.52.984,SurveyExpMetaMem,3.2.3,MacIntel,60
,,,,,,,,,,,,,,,,,,,,1,3.519999981,5,1.027000189,1,0,1200,254,1,1199,crush,43336,2019-10-22_09h50.52.984,SurveyExpMetaMem,3.2.3,MacIntel,60
,,,,,,,,,,,,,,,,,,,,1,2.178000212,1,0.311000109,1,0,1200,444,1,1199,mold,43336,2019-10-22_09h50.52.984,SurveyExpMetaMem,3.2.3,MacIntel,60
,,,,,,,,,,,,,,,,,,,,9,0.931000233,9,0.178000212,1,0,1200,631,1,1199,delicate,43336,2019-10-22_09h50.52.984,SurveyExpMetaMem,3.2.3,MacIntel,60
,,,,,,,,,,,,,,,,,,,,5,1.095000029,5,0.148000002,1,0,1200,257,1,1199,cockpit,43336,2019-10-22_09h50.52.984,SurveyExpMetaMem,3.2.3,MacIntel,60
,,,,,,,,,,,,,,,,,,,,1,1.553999901,1,0.161000252,1,0,1200,407,1,1199,handicap,43336,2019-10-22_09h50.52.984,SurveyExpMetaMem,3.2.3,MacIntel,60
,,,,,,,,,,,,,,,,,,,,5,7.414999962,5,0.24000001,1,0,1200,51,1,1199,body,43336,2019-10-22_09h50.52.984,SurveyExpMetaMem,3.2.3,MacIntel,60
,,,,,,,,,,,,,,,,,,,,9,1.06099987,9,0.170000076,1,0,1200,904,1,1199,murderer,43336,2019-10-22_09h50.52.984,SurveyExpMetaMem,3.2.3,MacIntel,60
,,,,,,,,,,,,,,,,,,,,9,0.773999929,9,0.131999969,1,0,1200,661,1,1199,cow,43336,2019-10-22_09h50.52.984,SurveyExpMetaMem,3.2.3,MacIntel,60
,,,,,,,,,,,,,,,,,,,,5,4.53000021,5,0.223999977,1,0,1200,510,1,1199,excuse,43336,2019-10-22_09h50.52.984,SurveyExpMetaMem,3.2.3,MacIntel,60
,,,,,,,,,,,,,,,,,,,,9,0.633000135,9,0.313000202,1,0,1200,41,1,1199,progress,43336,2019-10-22_09h50.52.984,SurveyExpMetaMem,3.2.3,MacIntel,60
,,,,,,,,,,,,,,,,,,,,9,0.2900002,9,0.388000011,1,0,1200,423,1,1199,stain,43336,2019-10-22_09h50.52.984,SurveyExpMetaMem,3.2.3,MacIntel,60
,,,,,,,,,,,,,,,,,,,,9,0.569000244,9,0.486000061,1,0,1200,1027,1,1199,criticism,43336,2019-10-22_09h50.52.984,SurveyExpMetaMem,3.2.3,MacIntel,60
,,,,,,,,,,,,,,,,,,,,9,0.832000017,9,0.230000019,1,0,1200,114,1,1199,raise,43336,2019-10-22_09h50.52.984,SurveyExpMetaMem,3.2.3,MacIntel,60
,,,,,,,,,,,,,,,,,,,,7,1.2900002,7,0.381000042,1,0,1200,515,1,1199,blues,43336,2019-10-22_09h50.52.984,SurveyExpMetaMem,3.2.3,MacIntel,60
,,,,,,,,,,,,,,,,,,,,8,0.088000059,8,0.970000029,1,0,1200,1044,1,1199,lost,43336,2019-10-22_09h50.52.984,SurveyExpMetaMem,3.2.3,MacIntel,60
,,,,,,,,,,,,,,,,,,,,5,1.793000221,5,0.255000114,1,0,1200,684,1,1199,send,43336,2019-10-22_09h50.52.984,SurveyExpMetaMem,3.2.3,MacIntel,60
,,,,,,,,,,,,,,,,,,,,9,2.180000305,1,0.278000116,1,0,1200,204,1,1199,crazy,43336,2019-10-22_09h50.52.984,SurveyExpMetaMem,3.2.3,MacIntel,60
,,,,,,,,,,,,,,,,,,,,9,1.024000168,9,0.358999968,1,0,1200,272,1,1199,confidence,43336,2019-10-22_09h50.52.984,SurveyExpMetaMem,3.2.3,MacIntel,60
,,,,,,,,,,,,,,,,,,,,1,1.496999979,6,0.965000153,1,0,1200,561,1,1199,plain,43336,2019-10-22_09h50.52.984,SurveyExpMetaMem,3.2.3,MacIntel,60
,,,,,,,,,,,,,,,,,,,,1,1.59100008,1,0.832000256,1,0,1200,470,1,1199,cynical,43336,2019-10-22_09h50.52.984,SurveyExpMetaMem,3.2.3,MacIntel,60
,,,,,,,,,,,,,,,,,,,,9,2.154999971,9,0.197000027,1,0,1200,110,1,1199,animal,43336,2019-10-22_09h50.52.984,SurveyExpMetaMem,3.2.3,MacIntel,60
,,,,,,,,,,,,,,,,,,,,5,1.538000107,5,0.156000137,1,0,1200,655,1,1199,name,43336,2019-10-22_09h50.52.984,SurveyExpMetaMem,3.2.3,MacIntel,60
,,,,,,,,,,,,,,,,,,,,1,1.76300025,5,0.755000114,1,0,1200,741,1,1199,wheat,43336,2019-10-22_09h50.52.984,SurveyExpMetaMem,3.2.3,MacIntel,60
,,,,,,,,,,,,,,,,,,,,1,1.680000067,6,0.988000154,1,0,1200,199,1,1199,laughter,43336,2019-10-22_09h50.52.984,SurveyExpMetaMem,3.2.3,MacIntel,60
,,,,,,,,,,,,,,,,,,,,1,1.656000137,2,0.539000034,1,0,1200,989,1,1199,banish,43336,2019-10-22_09h50.52.984,SurveyExpMetaMem,3.2.3,MacIntel,60
,,,,,,,,,,,,,,,,,,,,1,0.895000219,1,0.357000113,1,0,1200,1021,1,1199,attack,43336,2019-10-22_09h50.52.984,SurveyExpMetaMem,3.2.3,MacIntel,60
,,,,,,,,,,,,,,,,,,,,1,1.741000175,9,0.34100008,1,0,1200,856,1,1199,leisurely,43336,2019-10-22_09h50.52.984,SurveyExpMetaMem,3.2.3,MacIntel,60
,,,,,,,,,,,,,,,,,,,,9,2.08100009,1,1.071000099,1,0,1200,1185,1,1199,shotgun,43336,2019-10-22_09h50.52.984,SurveyExpMetaMem,3.2.3,MacIntel,60
,,,,,,,,,,,,,,,,,,,,1,2.295000315,9,0.479000092,1,0,1200,501,1,1199,dustpan,43336,2019-10-22_09h50.52.984,SurveyExpMetaMem,3.2.3,MacIntel,60
,,,,,,,,,,,,,,,,,,,,1,3.131000042,1,0.690000057,1,0,1200,467,1,1199,FALSE,43336,2019-10-22_09h50.52.984,SurveyExpMetaMem,3.2.3,MacIntel,60
,,,,,,,,,,,,,,,,,,,,1,1.161000252,9,1.437999964,1,0,1200,871,1,1199,comfort,43336,2019-10-22_09h50.52.984,SurveyExpMetaMem,3.2.3,MacIntel,60
,,,,,,,,,,,,,,,,,,,,1,1.999000072,9,0.457000017,1,0,1200,57,1,1199,important,43336,2019-10-22_09h50.52.984,SurveyExpMetaMem,3.2.3,MacIntel,60
,,,,,,,,,,,,,,,,,,,,5,1.582000017,5,0.253000021,1,0,1200,530,1,1199,erase,43336,2019-10-22_09h50.52.984,SurveyExpMetaMem,3.2.3,MacIntel,60
,,,,,,,,,,,,,,,,,,,,5,1.230000257,5,0.251000166,1,0,1200,6,1,1199,chest,43336,2019-10-22_09h50.52.984,SurveyExpMetaMem,3.2.3,MacIntel,60
,,,,,,,,,,,,,,,,,,,,5,1.28000021,5,0.220999956,1,0,1200,630,1,1199,website,43336,2019-10-22_09h50.52.984,SurveyExpMetaMem,3.2.3,MacIntel,60
,,,,,,,,,,,,,,,,,,,,5,1.457000256,5,0.166000128,1,0,1200,432,1,1199,resign,43336,2019-10-22_09h50.52.984,SurveyExpMetaMem,3.2.3,MacIntel,60
,,,,,,,,,,,,,,,,,,,,5,0.628999949,5,0.161999941,1,0,1200,652,1,1199,tend,43336,2019-10-22_09h50.52.984,SurveyExpMetaMem,3.2.3,MacIntel,60
,,,,,,,,,,,,,,,,,,,,9,1.110000134,9,0.187000275,1,0,1200,844,1,1199,soul,43336,2019-10-22_09h50.52.984,SurveyExpMetaMem,3.2.3,MacIntel,60
,,,,,,,,,,,,,,,,,,,,9,0.997000217,9,0.173000097,1,0,1200,837,1,1199,responsible,43336,2019-10-22_09h50.52.984,SurveyExpMetaMem,3.2.3,MacIntel,60
,,,,,,,,,,,,,,,,,,,,1,0.911000252,1,0.167000294,1,0,1200,384,1,1199,idiot,43336,2019-10-22_09h50.52.984,SurveyExpMetaMem,3.2.3,MacIntel,60
,,,,,,,,,,,,,,,,,,,,9,2.940000296,9,0.186000109,1,0,1200,158,1,1199,engage,43336,2019-10-22_09h50.52.984,SurveyExpMetaMem,3.2.3,MacIntel,60
,,,,,,,,,,,,,,,,,,,,1,1.342000008,1,0.191000223,1,0,1200,945,1,1199,demon,43336,2019-10-22_09h50.52.984,SurveyExpMetaMem,3.2.3,MacIntel,60
,,,,,,,,,,,,,,,,,,,,1,1.36500001,1,0.861000061,1,0,1200,477,1,1199,separate,43336,2019-10-22_09h50.52.984,SurveyExpMetaMem,3.2.3,MacIntel,60
,,,,,,,,,,,,,,,,,,,,1,2.805999994,9,0.4150002,1,0,1200,780,1,1199,grass,43336,2019-10-22_09h50.52.984,SurveyExpMetaMem,3.2.3,MacIntel,60
,,,,,,,,,,,,,,,,,,,,9,1.529999971,9,0.18900013,1,0,1200,292,1,1199,birthday,43336,2019-10-22_09h50.52.984,SurveyExpMetaMem,3.2.3,MacIntel,60
,,,,,,,,,,,,,,,,,,,,1,1.335999966,1,0.203999996,1,0,1200,600,1,1199,parlor,43336,2019-10-22_09h50.52.984,SurveyExpMetaMem,3.2.3,MacIntel,60
,,,,,,,,,,,,,,,,,,,,1,0.713000059,1,0.180000067,1,0,1200,964,1,1199,grieve,43336,2019-10-22_09h50.52.984,SurveyExpMetaMem,3.2.3,MacIntel,60
,,,,,,,,,,,,,,,,,,,,5,2.14199996,5,0.15500021,1,0,1200,524,1,1199,sigh,43336,2019-10-22_09h50.52.984,SurveyExpMetaMem,3.2.3,MacIntel,60
,,,,,,,,,,,,,,,,,,,,5,0.891000032,5,0.455000162,1,0,1200,545,1,1199,tar,43336,2019-10-22_09h50.52.984,SurveyExpMetaMem,3.2.3,MacIntel,60
,,,,,,,,,,,,,,,,,,,,1,2.249000072,1,0.657999992,1,0,1200,979,1,1199,harassment,43336,2019-10-22_09h50.52.984,SurveyExpMetaMem,3.2.3,MacIntel,60
,,,,,,,,,,,,,,,,,,,,9,1.738000154,9,0.654999971,1,0,1200,55,1,1199,rare,43336,2019-10-22_09h50.52.984,SurveyExpMetaMem,3.2.3,MacIntel,60
,,,,,,,,,,,,,,,,,,,,9,2.810000181,9,0.222000122,1,0,1200,1094,1,1199,disruptive,43336,2019-10-22_09h50.52.984,SurveyExpMetaMem,3.2.3,MacIntel,60
,,,,,,,,,,,,,,,,,,,,9,1.607000113,9,0.329999924,1,0,1200,396,1,1199,unpopular,43336,2019-10-22_09h50.52.984,SurveyExpMetaMem,3.2.3,MacIntel,60
,,,,,,,,,,,,,,,,,,,,9,0.686000109,9,0.243999958,1,0,1200,730,1,1199,slogan,43336,2019-10-22_09h50.52.984,SurveyExpMetaMem,3.2.3,MacIntel,60
,,,,,,,,,,,,,,,,,,,,1,1.744000196,9,0.447000027,1,0,1200,45,1,1199,sex,43336,2019-10-22_09h50.52.984,SurveyExpMetaMem,3.2.3,MacIntel,60
,,,,,,,,,,,,,,,,,,,,5,2.395000219,5,0.220000267,1,0,1200,585,1,1199,tatter,43336,2019-10-22_09h50.52.984,SurveyExpMetaMem,3.2.3,MacIntel,60
,,,,,,,,,,,,,,,,,,,,9,1.006000042,9,0.253000021,1,0,1200,191,1,1199,compassion,43336,2019-10-22_09h50.52.984,SurveyExpMetaMem,3.2.3,MacIntel,60
,,,,,,,,,,,,,,,,,,,,1,1.371000051,1,0.529999971,1,0,1200,1146,1,1199,bug,43336,2019-10-22_09h50.52.984,SurveyExpMetaMem,3.2.3,MacIntel,60
,,,,,,,,,,,,,,,,,,,,1,3.671000242,1,0.430000067,1,0,1200,176,1,1199,champ,43336,2019-10-22_09h50.52.984,SurveyExpMetaMem,3.2.3,MacIntel,60
,,,,,,,,,,,,,,,,,,,,5,2.236000061,5,0.799000263,1,0,1200,758,1,1199,camera,43336,2019-10-22_09h50.52.984,SurveyExpMetaMem,3.2.3,MacIntel,60
,,,,,,,,,,,,,,,,,,,,5,0.725000143,5,0.246000051,1,0,1200,53,1,1199,lotion,43336,2019-10-22_09h50.52.984,SurveyExpMetaMem,3.2.3,MacIntel,60
,,,,,,,,,,,,,,,,,,,,5,0.506999969,5,0.257000208,1,0,1200,531,1,1199,omit,43336,2019-10-22_09h50.52.984,SurveyExpMetaMem,3.2.3,MacIntel,60
,,,,,,,,,,,,,,,,,,,,9,1.370000124,9,0.194000244,1,0,1200,898,1,1199,kindness,43336,2019-10-22_09h50.52.984,SurveyExpMetaMem,3.2.3,MacIntel,60
,,,,,,,,,,,,,,,,,,,,9,1.121000051,9,0.17200017,1,0,1200,678,1,1199,lightbulb,43336,2019-10-22_09h50.52.984,SurveyExpMetaMem,3.2.3,MacIntel,60
,,,,,,,,,,,,,,,,,,,,9,1.181000233,9,0.197000027,1,0,1200,770,1,1199,buffalo,43336,2019-10-22_09h50.52.984,SurveyExpMetaMem,3.2.3,MacIntel,60
,,,,,,,,,,,,,,,,,,,,1,2.188999891,2,0.890000105,1,0,1200,458,1,1199,refuse,43336,2019-10-22_09h50.52.984,SurveyExpMetaMem,3.2.3,MacIntel,60
,,,,,,,,,,,,,,,,,,,,1,1.444000006,8,1.014000177,1,0,1200,806,1,1199,tree,43336,2019-10-22_09h50.52.984,SurveyExpMetaMem,3.2.3,MacIntel,60
,,,,,,,,,,,,,,,,,,,,9,2.703000069,9,0.427999973,1,0,1200,1032,1,1199,exam,43336,2019-10-22_09h50.52.984,SurveyExpMetaMem,3.2.3,MacIntel,60
,,,,,,,,,,,,,,,,,,,,8,1.539000034,9,0.455000162,1,0,1200,321,1,1199,wart,43336,2019-10-22_09h50.52.984,SurveyExpMetaMem,3.2.3,MacIntel,60
,,,,,,,,,,,,,,,,,,,,9,0.971000195,9,0.203000069,1,0,1200,127,1,1199,glamorous,43336,2019-10-22_09h50.52.984,SurveyExpMetaMem,3.2.3,MacIntel,60
,,,,,,,,,,,,,,,,,,,,9,1.004000187,1,0.736000061,1,0,1200,617,1,1199,tomato,43336,2019-10-22_09h50.52.984,SurveyExpMetaMem,3.2.3,MacIntel,60
,,,,,,,,,,,,,,,,,,,,5,6.453000069,5,0.167000055,1,0,1200,394,1,1199,dump,43336,2019-10-22_09h50.52.984,SurveyExpMetaMem,3.2.3,MacIntel,60
,,,,,,,,,,,,,,,,,,,,1,1.720000029,5,1.043000221,1,0,1200,691,1,1199,circle,43336,2019-10-22_09h50.52.984,SurveyExpMetaMem,3.2.3,MacIntel,60
,,,,,,,,,,,,,,,,,,,,1,1.377000093,5,0.320000172,1,0,1200,769,1,1199,relate,43336,2019-10-22_09h50.52.984,SurveyExpMetaMem,3.2.3,MacIntel,60
,,,,,,,,,,,,,,,,,,,,5,1.236000299,5,0.230000257,1,0,1200,492,1,1199,naive,43336,2019-10-22_09h50.52.984,SurveyExpMetaMem,3.2.3,MacIntel,60
,,,,,,,,,,,,,,,,,,,,5,0.641000032,5,0.416000128,1,0,1200,410,1,1199,tarnish,43336,2019-10-22_09h50.52.984,SurveyExpMetaMem,3.2.3,MacIntel,60
,,,,,,,,,,,,,,,,,,,,5,0.29399991,5,0.286999941,1,0,1200,863,1,1199,fireplace,43336,2019-10-22_09h50.52.984,SurveyExpMetaMem,3.2.3,MacIntel,60
,,,,,,,,,,,,,,,,,,,,5,0.374000072,5,0.262000084,1,0,1200,138,1,1199,blessings,43336,2019-10-22_09h50.52.984,SurveyExpMetaMem,3.2.3,MacIntel,60
,,,,,,,,,,,,,,,,,,,,5,0.240999937,5,0.269999981,1,0,1200,200,1,1199,preach,43336,2019-10-22_09h50.52.984,SurveyExpMetaMem,3.2.3,MacIntel,60
,,,,,,,,,,,,,,,,,,,,5,0.213000059,9,0.869999886,1,0,1200,164,1,1199,marry,43336,2019-10-22_09h50.52.984,SurveyExpMetaMem,3.2.3,MacIntel,60
,,,,,,,,,,,,,,,,,,,,2,3.510000229,2,0.426000118,1,0,1200,385,1,1199,tiresome,43336,2019-10-22_09h50.52.984,SurveyExpMetaMem,3.2.3,MacIntel,60
,,,,,,,,,,,,,,,,,,,,1,2.140000105,2,0.812999964,1,0,1200,982,1,1199,robbery,43336,2019-10-22_09h50.52.984,SurveyExpMetaMem,3.2.3,MacIntel,60
,,,,,,,,,,,,,,,,,,,,5,1.065999985,1,0.612000227,1,0,1200,981,1,1199,rage,43336,2019-10-22_09h50.52.984,SurveyExpMetaMem,3.2.3,MacIntel,60
,,,,,,,,,,,,,,,,,,,,9,2.423000097,9,0.203000069,1,0,1200,48,1,1199,excellence,43336,2019-10-22_09h50.52.984,SurveyExpMetaMem,3.2.3,MacIntel,60
,,,,,,,,,,,,,,,,,,,,1,1.085999966,1,0.453999996,1,0,1200,1129,1,1199,spanking,43336,2019-10-22_09h50.52.984,SurveyExpMetaMem,3.2.3,MacIntel,60
,,,,,,,,,,,,,,,,,,,,9,3.003999949,1,0.355000019,1,0,1200,965,1,1199,traffic,43336,2019-10-22_09h50.52.984,SurveyExpMetaMem,3.2.3,MacIntel,60
,,,,,,,,,,,,,,,,,,,,1,6.396000147,5,1.078999996,1,0,1200,656,1,1199,number,43336,2019-10-22_09h50.52.984,SurveyExpMetaMem,3.2.3,MacIntel,60
,,,,,,,,,,,,,,,,,,,,5,0.894999981,5,0.295000076,1,0,1200,716,1,1199,blouse,43336,2019-10-22_09h50.52.984,SurveyExpMetaMem,3.2.3,MacIntel,60
,,,,,,,,,,,,,,,,,,,,9,1.013999939,9,0.254999876,1,0,1200,285,1,1199,gold,43336,2019-10-22_09h50.52.984,SurveyExpMetaMem,3.2.3,MacIntel,60
,,,,,,,,,,,,,,,,,,,,1,1.894000053,9,0.236000061,1,0,1200,969,1,1199,whore,43336,2019-10-22_09h50.52.984,SurveyExpMetaMem,3.2.3,MacIntel,60
,,,,,,,,,,,,,,,,,,,,5,2.298000097,5,0.347000122,1,0,1200,1113,1,1199,dagger,43336,2019-10-22_09h50.52.984,SurveyExpMetaMem,3.2.3,MacIntel,60
,,,,,,,,,,,,,,,,,,,,5,0.580000162,1,0.737000227,1,0,1200,408,1,1199,bore,43336,2019-10-22_09h50.52.984,SurveyExpMetaMem,3.2.3,MacIntel,60
,,,,,,,,,,,,,,,,,,,,1,1.940000296,1,0.84800005,1,0,1200,60,1,1199,bikini,43336,2019-10-22_09h50.52.984,SurveyExpMetaMem,3.2.3,MacIntel,60
,,,,,,,,,,,,,,,,,,,,9,1.269999981,9,0.160000086,1,0,1200,788,1,1199,cook,43336,2019-10-22_09h50.52.984,SurveyExpMetaMem,3.2.3,MacIntel,60
,,,,,,,,,,,,,,,,,,,,5,2.640000105,5,0.203999996,1,0,1200,687,1,1199,skinny,43336,2019-10-22_09h50.52.984,SurveyExpMetaMem,3.2.3,MacIntel,60
,,,,,,,,,,,,,,,,,,,,5,1.17200017,5,0.196000099,1,0,1200,569,1,1199,onion,43336,2019-10-22_09h50.52.984,SurveyExpMetaMem,3.2.3,MacIntel,60
,,,,,,,,,,,,,,,,,,,,9,2.089999914,9,0.173000097,1,0,1200,170,1,1199,entertainment,43336,2019-10-22_09h50.52.984,SurveyExpMetaMem,3.2.3,MacIntel,60
,,,,,,,,,,,,,,,,,,,,9,1.078000069,9,0.171999931,1,0,1200,737,1,1199,lamb,43336,2019-10-22_09h50.52.984,SurveyExpMetaMem,3.2.3,MacIntel,60
,,,,,,,,,,,,,,,,,,,,9,1.07400012,9,0.164000034,1,0,1200,152,1,1199,hire,43336,2019-10-22_09h50.52.984,SurveyExpMetaMem,3.2.3,MacIntel,60
,,,,,,,,,,,,,,,,,,,,9,0.965000153,9,0.197000027,1,0,1200,888,1,1199,refreshment,43336,2019-10-22_09h50.52.984,SurveyExpMetaMem,3.2.3,MacIntel,60
,,,,,,,,,,,,,,,,,,,,9,0.816000223,9,0.185000181,1,0,1200,701,1,1199,telephone,43336,2019-10-22_09h50.52.984,SurveyExpMetaMem,3.2.3,MacIntel,60
,,,,,,,,,,,,,,,,,,,,9,1.629999876,9,0.397000074,1,0,1200,583,1,1199,obey,43336,2019-10-22_09h50.52.984,SurveyExpMetaMem,3.2.3,MacIntel,60
,,,,,,,,,,,,,,,,,,,,5,2.32400012,5,0.195000172,1,0,1200,1157,1,1199,slayer,43336,2019-10-22_09h50.52.984,SurveyExpMetaMem,3.2.3,MacIntel,60
,,,,,,,,,,,,,,,,,,,,9,3.215000153,9,0.191000223,1,0,1200,180,1,1199,embrace,43336,2019-10-22_09h50.52.984,SurveyExpMetaMem,3.2.3,MacIntel,60
,,,,,,,,,,,,,,,,,,,,9,0.79399991,9,0.164000034,1,0,1200,71,1,1199,spirit,43336,2019-10-22_09h50.52.984,SurveyExpMetaMem,3.2.3,MacIntel,60
,,,,,,,,,,,,,,,,,,,,5,1.694000006,1,0.927000046,1,0,1200,338,1,1199,obesity,43336,2019-10-22_09h50.52.984,SurveyExpMetaMem,3.2.3,MacIntel,60
,,,,,,,,,,,,,,,,,,,,9,1.237000227,9,0.197000265,1,0,1200,887,1,1199,elegant,43336,2019-10-22_09h50.52.984,SurveyExpMetaMem,3.2.3,MacIntel,60
,,,,,,,,,,,,,,,,,,,,9,2.598999977,1,0.780999899,1,0,1200,1189,1,1199,lava,43336,2019-10-22_09h50.52.984,SurveyExpMetaMem,3.2.3,MacIntel,60
,,,,,,,,,,,,,,,,,,,,5,4.138000011,9,0.303999901,1,0,1200,133,1,1199,prosperous,43336,2019-10-22_09h50.52.984,SurveyExpMetaMem,3.2.3,MacIntel,60
,,,,,,,,,,,,,,,,,,,,9,2.572999954,1,0.577000141,1,0,1200,1075,1,1199,apprehension,43336,2019-10-22_09h50.52.984,SurveyExpMetaMem,3.2.3,MacIntel,60
,,,,,,,,,,,,,,,,,,,,5,1.137000084,5,0.29700017,1,0,1200,270,1,1199,toddler,43336,2019-10-22_09h50.52.984,SurveyExpMetaMem,3.2.3,MacIntel,60
,,,,,,,,,,,,,,,,,,,,9,3.923000097,9,0.312999964,1,0,1200,804,1,1199,peach,43336,2019-10-22_09h50.52.984,SurveyExpMetaMem,3.2.3,MacIntel,60
,,,,,,,,,,,,,,,,,,,,9,0.512000084,9,0.569999933,1,0,1200,162,1,1199,royalty,43336,2019-10-22_09h50.52.984,SurveyExpMetaMem,3.2.3,MacIntel,60
,,,,,,,,,,,,,,,,,,,,1,1.089000225,1,0.779000044,1,0,1200,505,1,1199,exhaust,43336,2019-10-22_09h50.52.984,SurveyExpMetaMem,3.2.3,MacIntel,60
,,,,,,,,,,,,,,,,,,,,1,3.269000053,1,0.30700016,1,0,1200,249,1,1199,award,43336,2019-10-22_09h50.52.984,SurveyExpMetaMem,3.2.3,MacIntel,60
,,,,,,,,,,,,,,,,,,,,1,0.570000172,1,0.394000053,1,0,1200,999,1,1199,burdened,43336,2019-10-22_09h50.52.984,SurveyExpMetaMem,3.2.3,MacIntel,60
,,,,,,,,,,,,,,,,,,,,5,0.503000021,5,0.30700016,1,0,1200,508,1,1199,haphazard,43336,2019-10-22_09h50.52.984,SurveyExpMetaMem,3.2.3,MacIntel,60
,,,,,,,,,,,,,,,,,,,,1,0.348999977,1,0.32400012,1,0,1200,306,1,1199,gloom,43336,2019-10-22_09h50.52.984,SurveyExpMetaMem,3.2.3,MacIntel,60
,,,,,,,,,,,,,,,,,,,,1,0.231000185,1,0.271000147,1,0,1200,1137,1,1199,knife,43336,2019-10-22_09h50.52.984,SurveyExpMetaMem,3.2.3,MacIntel,60
,,,,,,,,,,,,,,,,,,,,5,0.272000313,5,0.263000011,1,0,1200,335,1,1199,decay,43336,2019-10-22_09h50.52.984,SurveyExpMetaMem,3.2.3,MacIntel,60
,,,,,,,,,,,,,,,,,,,,1,0.222000122,5,0.256999969,1,0,1200,1150,1,1199,forceful,43336,2019-10-22_09h50.52.984,SurveyExpMetaMem,3.2.3,MacIntel,60
,,,,,,,,,,,,,,,,,,,,1,0.194000006,5,0.221000195,1,0,1200,602,1,1199,vegetable,43336,2019-10-22_09h50.52.984,SurveyExpMetaMem,3.2.3,MacIntel,60
,,,,,,,,,,,,,,,,,,,,9,0.395000219,5,0.423000097,1,0,1200,362,1,1199,despair,43336,2019-10-22_09h50.52.984,SurveyExpMetaMem,3.2.3,MacIntel,60
,,,,,,,,,,,,,,,,,,,,9,0.335999966,9,0.573000193,1,0,1200,100,1,1199,intense,43336,2019-10-22_09h50.52.984,SurveyExpMetaMem,3.2.3,MacIntel,60
,,,,,,,,,,,,,,,,,,,,9,0.445000172,9,0.372000217,1,0,1200,256,1,1199,galaxy,43336,2019-10-22_09h50.52.984,SurveyExpMetaMem,3.2.3,MacIntel,60
,,,,,,,,,,,,,,,,,,,,9,0.370000124,9,0.537000179,1,0,1200,240,1,1199,giggles,43336,2019-10-22_09h50.52.984,SurveyExpMetaMem,3.2.3,MacIntel,60
,,,,,,,,,,,,,,,,,,,,9,0.571000099,9,0.302999973,1,0,1200,418,1,1199,cheapskate,43336,2019-10-22_09h50.52.984,SurveyExpMetaMem,3.2.3,MacIntel,60
,,,,,,,,,,,,,,,,,,,,9,0.32400012,9,0.38100028,1,0,1200,430,1,1199,cancel,43336,2019-10-22_09h50.52.984,SurveyExpMetaMem,3.2.3,MacIntel,60
,,,,,,,,,,,,,,,,,,,,5,0.854000092,5,0.191000223,1,0,1200,1043,1,1199,scold,43336,2019-10-22_09h50.52.984,SurveyExpMetaMem,3.2.3,MacIntel,60
,,,,,,,,,,,,,,,,,,,,5,0.512000084,5,0.454000235,1,0,1200,676,1,1199,straighten,43336,2019-10-22_09h50.52.984,SurveyExpMetaMem,3.2.3,MacIntel,60
,,,,,,,,,,,,,,,,,,,,5,0.505000114,5,0.373000145,1,0,1200,717,1,1199,modest,43336,2019-10-22_09h50.52.984,SurveyExpMetaMem,3.2.3,MacIntel,60
,,,,,,,,,,,,,,,,,,,,5,0.565000057,5,0.436000109,1,0,1200,1067,1,1199,wicked,43336,2019-10-22_09h50.52.984,SurveyExpMetaMem,3.2.3,MacIntel,60
,,,,,,,,,,,,,,,,,,,,9,0.679000139,9,0.283000231,1,0,1200,237,1,1199,beautiful,43336,2019-10-22_09h50.52.984,SurveyExpMetaMem,3.2.3,MacIntel,60
,,,,,,,,,,,,,,,,,,,,5,0.732000113,5,0.255000114,1,0,1200,491,1,1199,meek,43336,2019-10-22_09h50.52.984,SurveyExpMetaMem,3.2.3,MacIntel,60
,,,,,,,,,,,,,,,,,,,,1,1.477000237,9,0.770999908,1,0,1200,859,1,1199,serene,43336,2019-10-22_09h50.52.984,SurveyExpMetaMem,3.2.3,MacIntel,60
,,,,,,,,,,,,,,,,,,,,5,0.819000244,5,0.354000092,1,0,1200,283,1,1199,elated,43336,2019-10-22_09h50.52.984,SurveyExpMetaMem,3.2.3,MacIntel,60
,,,,,,,,,,,,,,,,,,,,5,0.582000256,9,0.627000093,1,0,1200,557,1,1199,class,43336,2019-10-22_09h50.52.984,SurveyExpMetaMem,3.2.3,MacIntel,60
,,,,,,,,,,,,,,,,,,,,5,0.525000095,9,0.980000019,1,0,1200,1180,1,1199,heat,43336,2019-10-22_09h50.52.984,SurveyExpMetaMem,3.2.3,MacIntel,60
,,,,,,,,,,,,,,,,,,,,9,0.857000113,9,0.227999926,1,0,1200,797,1,1199,hamburger,43336,2019-10-22_09h50.52.984,SurveyExpMetaMem,3.2.3,MacIntel,60
,,,,,,,,,,,,,,,,,,,,5,0.78000021,5,0.213000059,1,0,1200,787,1,1199,dawn,43336,2019-10-22_09h50.52.984,SurveyExpMetaMem,3.2.3,MacIntel,60
,,,,,,,,,,,,,,,,,,,,1,4.124000072,4,1.235000134,1,0,1200,1130,1,1199,slut,43336,2019-10-22_09h50.52.984,SurveyExpMetaMem,3.2.3,MacIntel,60
,,,,,,,,,,,,,,,,,,,,9,1.419000149,9,0.180000067,1,0,1200,872,1,1199,dignified,43336,2019-10-22_09h50.52.984,SurveyExpMetaMem,3.2.3,MacIntel,60
,,,,,,,,,,,,,,,,,,,,5,7.122000217,5,0.366000175,1,0,1200,1014,1,1199,destroy,43336,2019-10-22_09h50.52.984,SurveyExpMetaMem,3.2.3,MacIntel,60
,,,,,,,,,,,,,,,,,,,,5,2.555999994,1,0.358000278,1,0,1200,462,1,1199,shallow,43336,2019-10-22_09h50.52.984,SurveyExpMetaMem,3.2.3,MacIntel,60
,,,,,,,,,,,,,,,,,,,,5,1.119999886,1,0.636000156,1,0,1200,333,1,1199,weak,43336,2019-10-22_09h50.52.984,SurveyExpMetaMem,3.2.3,MacIntel,60
,,,,,,,,,,,,,,,,,,,,5,4.614000082,5,0.588000298,1,0,1200,546,1,1199,solemn,43336,2019-10-22_09h50.52.984,SurveyExpMetaMem,3.2.3,MacIntel,60
,,,,,,,,,,,,,,,,,,,,5,0.755000114,1,0.354000092,1,0,1200,299,1,1199,champion,43336,2019-10-22_09h50.52.984,SurveyExpMetaMem,3.2.3,MacIntel,60
,,,,,,,,,,,,,,,,,,,,5,0.402000189,5,0.347000122,1,0,1200,577,1,1199,retreat,43336,2019-10-22_09h50.52.984,SurveyExpMetaMem,3.2.3,MacIntel,60
,,,,,,,,,,,,,,,,,,,,9,5.207000017,9,0.33100009,1,0,1200,124,1,1199,honeymoon,43336,2019-10-22_09h50.52.984,SurveyExpMetaMem,3.2.3,MacIntel,60
,,,,,,,,,,,,,,,,,,,,9,3.53000021,1,0.815000057,1,0,1200,1196,1,1199,breathless,43336,2019-10-22_09h50.52.984,SurveyExpMetaMem,3.2.3,MacIntel,60
,,,,,,,,,,,,,,,,,,,,5,2.420000076,5,1.283000231,1,0,1200,219,1,1199,know,43336,2019-10-22_09h50.52.984,SurveyExpMetaMem,3.2.3,MacIntel,60
,,,,,,,,,,,,,,,,,,,,5,1.670000076,5,0.345000267,1,0,1200,151,1,1199,react,43336,2019-10-22_09h50.52.984,SurveyExpMetaMem,3.2.3,MacIntel,60
,,,,,,,,,,,,,,,,,,,,5,1.291000128,2,0.927000046,1,0,1200,351,1,1199,germs,43336,2019-10-22_09h50.52.984,SurveyExpMetaMem,3.2.3,MacIntel,60
,,,,,,,,,,,,,,,,,,,,5,1.154999971,9,0.2900002,1,0,1200,614,1,1199,crossword,43336,2019-10-22_09h50.52.984,SurveyExpMetaMem,3.2.3,MacIntel,60
,,,,,,,,,,,,,,,,,,,,5,0.894999981,5,0.333000183,1,0,1200,474,1,1199,weary,43336,2019-10-22_09h50.52.984,SurveyExpMetaMem,3.2.3,MacIntel,60
,,,,,,,,,,,,,,,,,,,,5,0.59800005,1,0.820000172,1,0,1200,1070,1,1199,bleed,43336,2019-10-22_09h50.52.984,SurveyExpMetaMem,3.2.3,MacIntel,60
,,,,,,,,,,,,,,,,,,,,5,0.907000065,9,0.474000216,1,0,1200,248,1,1199,win,43336,2019-10-22_09h50.52.984,SurveyExpMetaMem,3.2.3,MacIntel,60
,,,,,,,,,,,,,,,,,,,,9,1.52300024,9,0.240000248,1,0,1200,108,1,1199,naked,43336,2019-10-22_09h50.52.984,SurveyExpMetaMem,3.2.3,MacIntel,60
,,,,,,,,,,,,,,,,,,,,9,0.95600009,9,0.23300004,1,0,1200,140,1,1199,riches,43336,2019-10-22_09h50.52.984,SurveyExpMetaMem,3.2.3,MacIntel,60
,,,,,,,,,,,,,,,,,,,,9,0.64199996,9,0.191999912,1,0,1200,756,1,1199,plant,43336,2019-10-22_09h50.52.984,SurveyExpMetaMem,3.2.3,MacIntel,60
,,,,,,,,,,,,,,,,,,,,9,0.601999998,9,0.262000084,1,0,1200,496,1,1199,slow,43336,2019-10-22_09h50.52.984,SurveyExpMetaMem,3.2.3,MacIntel,60
,,,,,,,,,,,,,,,,,,,,9,0.874000072,9,0.305000067,1,0,1200,316,1,1199,sorrow,43336,2019-10-22_09h50.52.984,SurveyExpMetaMem,3.2.3,MacIntel,60
,,,,,,,,,,,,,,,,,,,,5,1.080000162,1,0.473999977,1,0,1200,1179,1,1199,nerves,43336,2019-10-22_09h50.52.984,SurveyExpMetaMem,3.2.3,MacIntel,60
,,,,,,,,,,,,,,,,,,,,9,1.830000162,9,0.225000143,1,0,1200,748,1,1199,town,43336,2019-10-22_09h50.52.984,SurveyExpMetaMem,3.2.3,MacIntel,60
,,,,,,,,,,,,,,,,,,,,9,1.079999924,9,0.177999973,1,0,1200,1040,1,1199,communism,43336,2019-10-22_09h50.52.984,SurveyExpMetaMem,3.2.3,MacIntel,60
,,,,,,,,,,,,,,,,,,,,5,18.10700011,9,0.427999973,1,0,1200,478,1,1199,numb,43336,2019-10-22_09h50.52.984,SurveyExpMetaMem,3.2.3,MacIntel,60
,,,,,,,,,,,,,,,,,,,,9,2.062999964,1,0.459000111,1,0,1200,916,1,1199,starvation,43336,2019-10-22_09h50.52.984,SurveyExpMetaMem,3.2.3,MacIntel,60
,,,,,,,,,,,,,,,,,,,,9,1.52699995,9,0.227999926,1,0,1200,22,1,1199,doughnut,43336,2019-10-22_09h50.52.984,SurveyExpMetaMem,3.2.3,MacIntel,60
,,,,,,,,,,,,,,,,,,,,5,3.187000036,1,0.57400012,1,0,1200,674,1,1199,fitting,43336,2019-10-22_09h50.52.984,SurveyExpMetaMem,3.2.3,MacIntel,60
,,,,,,,,,,,,,,,,,,,,9,1.852000237,1,0.43900013,1,0,1200,512,1,1199,insect,43336,2019-10-22_09h50.52.984,SurveyExpMetaMem,3.2.3,MacIntel,60
,,,,,,,,,,,,,,,,,,,,9,1.799000263,9,0.514000177,1,0,1200,710,1,1199,gender,43336,2019-10-22_09h50.52.984,SurveyExpMetaMem,3.2.3,MacIntel,60
,,,,,,,,,,,,,,,,,,,,5,3.720999956,1,0.769999981,1,0,1200,924,1,1199,terrible,43336,2019-10-22_09h50.52.984,SurveyExpMetaMem,3.2.3,MacIntel,60
,,,,,,,,,,,,,,,,,,,,5,1.123000145,1,0.460999966,1,0,1200,449,1,1199,egotistical,43336,2019-10-22_09h50.52.984,SurveyExpMetaMem,3.2.3,MacIntel,60
,,,,,,,,,,,,,,,,,,,,9,1.019999981,9,0.20600009,1,0,1200,858,1,1199,donate,43336,2019-10-22_09h50.52.984,SurveyExpMetaMem,3.2.3,MacIntel,60
,,,,,,,,,,,,,,,,,,,,9,1.43599987,1,1.053000212,1,0,1200,900,1,1199,suicide,43336,2019-10-22_09h50.52.984,SurveyExpMetaMem,3.2.3,MacIntel,60
,,,,,,,,,,,,,,,,,,,,9,2.186000109,9,0.162000179,1,0,1200,659,1,1199,hair,43336,2019-10-22_09h50.52.984,SurveyExpMetaMem,3.2.3,MacIntel,60
,,,,,,,,,,,,,,,,,,,,9,1.365000248,1,0.296000004,1,0,1200,1046,1,1199,unsafe,43336,2019-10-22_09h50.52.984,SurveyExpMetaMem,3.2.3,MacIntel,60
,,,,,,,,,,,,,,,,,,,,5,1.006999969,5,0.241000175,1,0,1200,564,1,1199,wane,43336,2019-10-22_09h50.52.984,SurveyExpMetaMem,3.2.3,MacIntel,60
,,,,,,,,,,,,,,,,,,,,5,0.837000132,5,0.236000061,1,0,1200,673,1,1199,bedspread,43336,2019-10-22_09h50.52.984,SurveyExpMetaMem,3.2.3,MacIntel,60
,,,,,,,,,,,,,,,,,,,,9,0.833000183,9,0.187999964,1,0,1200,84,1,1199,eat,43336,2019-10-22_09h50.52.984,SurveyExpMetaMem,3.2.3,MacIntel,60
,,,,,,,,,,,,,,,,,,,,5,0.70600009,1,0.353000164,1,0,1200,1028,1,1199,terror,43336,2019-10-22_09h50.52.984,SurveyExpMetaMem,3.2.3,MacIntel,60
,,,,,,,,,,,,,,,,,,,,5,2.288000107,1,0.21600008,1,0,1200,927,1,1199,jail,43336,2019-10-22_09h50.52.984,SurveyExpMetaMem,3.2.3,MacIntel,60
,,,,,,,,,,,,,,,,,,,,5,1.671000004,1,0.447999954,1,0,1200,1121,1,1199,ban,43336,2019-10-22_09h50.52.984,SurveyExpMetaMem,3.2.3,MacIntel,60
,,,,,,,,,,,,,,,,,,,,5,1.03000021,9,0.192000151,1,0,1200,764,1,1199,coin,43336,2019-10-22_09h50.52.984,SurveyExpMetaMem,3.2.3,MacIntel,60
,,,,,,,,,,,,,,,,,,,,5,1.102999926,5,1.0400002,1,0,1200,686,1,1199,phone,43336,2019-10-22_09h50.52.984,SurveyExpMetaMem,3.2.3,MacIntel,60
,,,,,,,,,,,,,,,,,,,,5,1.004000187,5,0.313000202,1,0,1200,688,1,1199,jelly,43336,2019-10-22_09h50.52.984,SurveyExpMetaMem,3.2.3,MacIntel,60
,,,,,,,,,,,,,,,,,,,,1,1.394999981,1,0.437000036,1,0,1200,1090,1,1199,destruction,43336,2019-10-22_09h50.52.984,SurveyExpMetaMem,3.2.3,MacIntel,60
,,,,,,,,,,,,,,,,,,,,1,1.103000164,1,0.338999987,1,0,1200,516,1,1199,smug,43336,2019-10-22_09h50.52.984,SurveyExpMetaMem,3.2.3,MacIntel,60
,,,,,,,,,,,,,,,,,,,,5,0.472000122,5,0.380000114,1,0,1200,958,1,1199,traitor,43336,2019-10-22_09h50.52.984,SurveyExpMetaMem,3.2.3,MacIntel,60
,,,,,,,,,,,,,,,,,,,,1,0.45600009,5,0.445000172,1,0,1200,192,1,1199,pleased,43336,2019-10-22_09h50.52.984,SurveyExpMetaMem,3.2.3,MacIntel,60
,,,,,,,,,,,,,,,,,,,,1,0.141000271,5,0.263999939,1,0,1200,1091,1,1199,cram,43336,2019-10-22_09h50.52.984,SurveyExpMetaMem,3.2.3,MacIntel,60
,,,,,,,,,,,,,,,,,,,,5,0.289000034,9,0.588000059,1,0,1200,25,1,1199,charisma,43336,2019-10-22_09h50.52.984,SurveyExpMetaMem,3.2.3,MacIntel,60
,,,,,,,,,,,,,,,,,,,,5,0.436000109,5,0.437000036,1,0,1200,457,1,1199,confuse,43336,2019-10-22_09h50.52.984,SurveyExpMetaMem,3.2.3,MacIntel,60
,,,,,,,,,,,,,,,,,,,,9,0.055000067,1,0.887000084,1,0,1200,937,1,1199,prison,43336,2019-10-22_09h50.52.984,SurveyExpMetaMem,3.2.3,MacIntel,60
,,,,,,,,,,,,,,,,,,,,9,4.298000097,9,0.193000317,1,0,1200,762,1,1199,orchestra,43336,2019-10-22_09h50.52.984,SurveyExpMetaMem,3.2.3,MacIntel,60
,,,,,,,,,,,,,,,,,,,,1,2.798000097,1,0.397000074,1,0,1200,325,1,1199,disability,43336,2019-10-22_09h50.52.984,SurveyExpMetaMem,3.2.3,MacIntel,60
,,,,,,,,,,,,,,,,,,,,1,2.365999937,1,0.361999989,1,0,1200,434,1,1199,frail,43336,2019-10-22_09h50.52.984,SurveyExpMetaMem,3.2.3,MacIntel,60
,,,,,,,,,,,,,,,,,,,,9,0.725000143,9,0.678000212,1,0,1200,604,1,1199,lamp,43336,2019-10-22_09h50.52.984,SurveyExpMetaMem,3.2.3,MacIntel,60
,,,,,,,,,,,,,,,,,,,,9,0.304000139,9,0.440999985,1,0,1200,156,1,1199,gym,43336,2019-10-22_09h50.52.984,SurveyExpMetaMem,3.2.3,MacIntel,60
,,,,,,,,,,,,,,,,,,,,1,0.971000195,1,0.305000067,1,0,1200,1012,1,1199,gunshot,43336,2019-10-22_09h50.52.984,SurveyExpMetaMem,3.2.3,MacIntel,60
,,,,,,,,,,,,,,,,,,,,9,1.729000092,1,0.286999941,1,0,1200,971,1,1199,crash,43336,2019-10-22_09h50.52.984,SurveyExpMetaMem,3.2.3,MacIntel,60
,,,,,,,,,,,,,,,,,,,,9,2.135999918,9,0.190999985,1,0,1200,665,1,1199,read,43336,2019-10-22_09h50.52.984,SurveyExpMetaMem,3.2.3,MacIntel,60
,,,,,,,,,,,,,,,,,,,,9,2.940999985,9,0.20600009,1,0,1200,940,1,1199,war,43336,2019-10-22_09h50.52.984,SurveyExpMetaMem,3.2.3,MacIntel,60
,,,,,,,,,,,,,,,,,,,,9,0.471999884,9,0.27699995,1,0,1200,823,1,1199,nourish,43336,2019-10-22_09h50.52.984,SurveyExpMetaMem,3.2.3,MacIntel,60
,,,,,,,,,,,,,,,,,,,,1,0.847000122,1,0.322999954,1,0,1200,998,1,1199,virus,43336,2019-10-22_09h50.52.984,SurveyExpMetaMem,3.2.3,MacIntel,60
,,,,,,,,,,,,,,,,,,,,1,0.345999956,1,0.323000193,1,0,1200,539,1,1199,novice,43336,2019-10-22_09h50.52.984,SurveyExpMetaMem,3.2.3,MacIntel,60
,,,,,,,,,,,,,,,,,,,,1,0.80700016,1,0.298000097,1,0,1200,1147,1,1199,demand,43336,2019-10-22_09h50.52.984,SurveyExpMetaMem,3.2.3,MacIntel,60
,,,,,,,,,,,,,,,,,,,,5,0.624000072,5,0.240000248,1,0,1200,707,1,1199,adapt,43336,2019-10-22_09h50.52.984,SurveyExpMetaMem,3.2.3,MacIntel,60
,,,,,,,,,,,,,,,,,,,,5,0.32400012,5,0.323000193,1,0,1200,435,1,1199,grovel,43336,2019-10-22_09h50.52.984,SurveyExpMetaMem,3.2.3,MacIntel,60
,,,,,,,,,,,,,,,,,,,,5,0.294000149,1,0.82400012,1,0,1200,938,1,1199,seasick,43336,2019-10-22_09h50.52.984,SurveyExpMetaMem,3.2.3,MacIntel,60
,,,,,,,,,,,,,,,,,,,,1,2.539000273,9,1.082000017,1,0,1200,262,1,1199,athletics,43336,2019-10-22_09h50.52.984,SurveyExpMetaMem,3.2.3,MacIntel,60
,,,,,,,,,,,,,,,,,,,,1,3.958000183,9,0.679000139,1,0,1200,896,1,1199,cuddle,43336,2019-10-22_09h50.52.984,SurveyExpMetaMem,3.2.3,MacIntel,60
,,,,,,,,,,,,,,,,,,,,4,2.563000202,1,0.763000011,1,0,1200,1059,1,1199,harsh,43336,2019-10-22_09h50.52.984,SurveyExpMetaMem,3.2.3,MacIntel,60
,,,,,,,,,,,,,,,,,,,,5,1.74000001,1,0.364000082,1,0,1200,1,1,1199,fuck,43336,2019-10-22_09h50.52.984,SurveyExpMetaMem,3.2.3,MacIntel,60
,,,,,,,,,,,,,,,,,,,,5,1.997999907,5,0.24000001,1,0,1200,460,1,1199,rag,43336,2019-10-22_09h50.52.984,SurveyExpMetaMem,3.2.3,MacIntel,60
,,,,,,,,,,,,,,,,,,,,9,0.874000072,9,0.203000069,1,0,1200,832,1,1199,candy,43336,2019-10-22_09h50.52.984,SurveyExpMetaMem,3.2.3,MacIntel,60
,,,,,,,,,,,,,,,,,,,,9,1.857000113,1,0.370000124,1,0,1200,307,1,1199,sick,43336,2019-10-22_09h50.52.984,SurveyExpMetaMem,3.2.3,MacIntel,60
,,,,,,,,,,,,,,,,,,,,1,3.381999969,1,0.569000006,1,0,1200,599,1,1199,obstinate,43336,2019-10-22_09h50.52.984,SurveyExpMetaMem,3.2.3,MacIntel,60
,,,,,,,,,,,,,,,,,,,,1,0.588000059,1,0.477999926,1,0,1200,925,1,1199,disloyal,43336,2019-10-22_09h50.52.984,SurveyExpMetaMem,3.2.3,MacIntel,60
,,,,,,,,,,,,,,,,,,,,5,2.569999933,5,0.363000154,1,0,1200,862,1,1199,ease,43336,2019-10-22_09h50.52.984,SurveyExpMetaMem,3.2.3,MacIntel,60
,,,,,,,,,,,,,,,,,,,,1,1.465000153,1,0.622000217,1,0,1200,314,1,1199,hopeless,43336,2019-10-22_09h50.52.984,SurveyExpMetaMem,3.2.3,MacIntel,60
,,,,,,,,,,,,,,,,,,,,5,1.407000065,1,0.36500001,1,0,1200,441,1,1199,prohibit,43336,2019-10-22_09h50.52.984,SurveyExpMetaMem,3.2.3,MacIntel,60
,,,,,,,,,,,,,,,,,,,,5,0.890000105,1,0.200000048,1,0,1200,405,1,1199,fatigued,43336,2019-10-22_09h50.52.984,SurveyExpMetaMem,3.2.3,MacIntel,60
,,,,,,,,,,,,,,,,,,,,9,0.953999996,9,0.195000172,1,0,1200,77,1,1199,adore,43336,2019-10-22_09h50.52.984,SurveyExpMetaMem,3.2.3,MacIntel,60
,,,,,,,,,,,,,,,,,,,,5,0.828000307,5,0.22300005,1,0,1200,234,1,1199,redeem,43336,2019-10-22_09h50.52.984,SurveyExpMetaMem,3.2.3,MacIntel,60
,,,,,,,,,,,,,,,,,,,,5,0.844000101,9,0.531000137,1,0,1200,66,1,1199,zest,43336,2019-10-22_09h50.52.984,SurveyExpMetaMem,3.2.3,MacIntel,60
,,,,,,,,,,,,,,,,,,,,5,1.539999962,5,1.212000132,1,0,1200,46,1,1199,god,43336,2019-10-22_09h50.52.984,SurveyExpMetaMem,3.2.3,MacIntel,60
,,,,,,,,,,,,,,,,,,,,5,1.329000235,1,0.287000179,1,0,1200,1034,1,1199,pester,43336,2019-10-22_09h50.52.984,SurveyExpMetaMem,3.2.3,MacIntel,60
,,,,,,,,,,,,,,,,,,,,5,2.027000189,1,0.181000233,1,0,1200,1017,1,1199,aggravated,43336,2019-10-22_09h50.52.984,SurveyExpMetaMem,3.2.3,MacIntel,60
,,,,,,,,,,,,,,,,,,,,5,1.545000076,2,0.724000216,1,0,1200,771,1,1199,practical,43336,2019-10-22_09h50.52.984,SurveyExpMetaMem,3.2.3,MacIntel,60
,,,,,,,,,,,,,,,,,,,,1,2.22300005,1,1.008000135,1,0,1200,302,1,1199,loneliness,43336,2019-10-22_09h50.52.984,SurveyExpMetaMem,3.2.3,MacIntel,60
,,,,,,,,,,,,,,,,,,,,5,2.571000099,9,1.138000011,1,0,1200,16,1,1199,sing,43336,2019-10-22_09h50.52.984,SurveyExpMetaMem,3.2.3,MacIntel,60
,,,,,,,,,,,,,,,,,,,,5,1.194000006,2,1.30700016,1,0,1200,1015,1,1199,frighten,43336,2019-10-22_09h50.52.984,SurveyExpMetaMem,3.2.3,MacIntel,60
,,,,,,,,,,,,,,,,,,,,5,0.93599987,9,1.239000082,1,0,1200,135,1,1199,applause,43336,2019-10-22_09h50.52.984,SurveyExpMetaMem,3.2.3,MacIntel,60
,,,,,,,,,,,,,,,,,,,,1,3.555999994,9,0.440999985,1,0,1200,892,1,1199,untroubled,43336,2019-10-22_09h50.52.984,SurveyExpMetaMem,3.2.3,MacIntel,60
,,,,,,,,,,,,,,,,,,,,5,1.744000196,9,1.066000223,1,0,1200,1102,1,1199,nuclear,43336,2019-10-22_09h50.52.984,SurveyExpMetaMem,3.2.3,MacIntel,60
,,,,,,,,,,,,,,,,,,,,9,43.64100003,9,0.667000294,1,0,1200,483,1,1199,condescension,43336,2019-10-22_09h50.52.984,SurveyExpMetaMem,3.2.3,MacIntel,60
,,,,,,,,,,,,,,,,,,,,9,1.920000076,9,0.190000296,1,0,1200,866,1,1199,haven,43336,2019-10-22_09h50.52.984,SurveyExpMetaMem,3.2.3,MacIntel,60
,,,,,,,,,,,,,,,,,,,,5,1.006000042,5,0.167000055,1,0,1200,349,1,1199,mope,43336,2019-10-22_09h50.52.984,SurveyExpMetaMem,3.2.3,MacIntel,60
,,,,,,,,,,,,,,,,,,,,5,2.68200016,5,0.453999996,1,0,1200,1045,1,1199,scalding,43336,2019-10-22_09h50.52.984,SurveyExpMetaMem,3.2.3,MacIntel,60
,,,,,,,,,,,,,,,,,,,,9,1.799000025,1,0.30700016,1,0,1200,1104,1,1199,avalanche,43336,2019-10-22_09h50.52.984,SurveyExpMetaMem,3.2.3,MacIntel,60
,,,,,,,,,,,,,,,,,,,,9,1.680000067,1,0.387000084,1,0,1200,913,1,1199,ulcer,43336,2019-10-22_09h50.52.984,SurveyExpMetaMem,3.2.3,MacIntel,60
,,,,,,,,,,,,,,,,,,,,5,1.511000156,1,0.231000185,1,0,1200,544,1,1199,snail,43336,2019-10-22_09h50.52.984,SurveyExpMetaMem,3.2.3,MacIntel,60
,,,,,,,,,,,,,,,,,,,,5,2.044000149,1,0.263000011,1,0,1200,1051,1,1199,insane,43336,2019-10-22_09h50.52.984,SurveyExpMetaMem,3.2.3,MacIntel,60
,,,,,,,,,,,,,,,,,,,,9,0.769999981,5,0.486999989,1,0,1200,1164,1,1199,battle,43336,2019-10-22_09h50.52.984,SurveyExpMetaMem,3.2.3,MacIntel,60
,,,,,,,,,,,,,,,,,,,,9,2.394000053,1,0.812000275,1,0,1200,459,1,1199,heavy,43336,2019-10-22_09h50.52.984,SurveyExpMetaMem,3.2.3,MacIntel,60
,,,,,,,,,,,,,,,,,,,,5,1.288000107,5,0.264000177,1,0,1200,1074,1,1199,detain,43336,2019-10-22_09h50.52.984,SurveyExpMetaMem,3.2.3,MacIntel,60
,,,,,,,,,,,,,,,,,,,,9,1.77300024,9,0.27699995,1,0,1200,537,1,1199,absurd,43336,2019-10-22_09h50.52.984,SurveyExpMetaMem,3.2.3,MacIntel,60
,,,,,,,,,,,,,,,,,,,,5,0.769999981,5,0.430000067,1,0,1200,13,1,1199,mingle,43336,2019-10-22_09h50.52.984,SurveyExpMetaMem,3.2.3,MacIntel,60
,,,,,,,,,,,,,,,,,,,,9,0.481999874,5,0.311000109,1,0,1200,952,1,1199,troubled,43336,2019-10-22_09h50.52.984,SurveyExpMetaMem,3.2.3,MacIntel,60
,,,,,,,,,,,,,,,,,,,,5,0.32400012,1,1.054000139,1,0,1200,1023,1,1199,disorder,43336,2019-10-22_09h50.52.984,SurveyExpMetaMem,3.2.3,MacIntel,60
,,,,,,,,,,,,,,,,,,,,9,1.28000021,9,0.204000235,1,0,1200,657,1,1199,peanut,43336,2019-10-22_09h50.52.984,SurveyExpMetaMem,3.2.3,MacIntel,60
,,,,,,,,,,,,,,,,,,,,9,1.781000137,1,0.396000147,1,0,1200,959,1,1199,divorce,43336,2019-10-22_09h50.52.984,SurveyExpMetaMem,3.2.3,MacIntel,60
,,,,,,,,,,,,,,,,,,,,5,2.137000084,5,0.35800004,1,0,1200,987,1,1199,disgusted,43336,2019-10-22_09h50.52.984,SurveyExpMetaMem,3.2.3,MacIntel,60
,,,,,,,,,,,,,,,,,,,,5,1.44900012,9,1.27300024,1,0,1200,112,1,1199,jaguar,43336,2019-10-22_09h50.52.984,SurveyExpMetaMem,3.2.3,MacIntel,60
,,,,,,,,,,,,,,,,,,,,5,0.443000078,5,0.437000036,1,0,1200,437,1,1199,blubber,43336,2019-10-22_09h50.52.984,SurveyExpMetaMem,3.2.3,MacIntel,60
,,,,,,,,,,,,,,,,,,,,9,0.804000139,9,0.220000267,1,0,1200,724,1,1199,owl,43336,2019-10-22_09h50.52.984,SurveyExpMetaMem,3.2.3,MacIntel,60
,,,,,,,,,,,,,,,,,,,,9,0.320000172,9,0.496999979,1,0,1200,227,1,1199,musician,43336,2019-10-22_09h50.52.984,SurveyExpMetaMem,3.2.3,MacIntel,60
,,,,,,,,,,,,,,,,,,,,5,0.839999914,5,0.461000204,1,0,1200,865,1,1199,bliss,43336,2019-10-22_09h50.52.984,SurveyExpMetaMem,3.2.3,MacIntel,60
,,,,,,,,,,,,,,,,,,,,9,0.772000074,9,0.220000267,1,0,1200,635,1,1199,sensitive,43336,2019-10-22_09h50.52.984,SurveyExpMetaMem,3.2.3,MacIntel,60
,,,,,,,,,,,,,,,,,,,,9,0.844000101,9,0.22300005,1,0,1200,296,1,1199,awesome,43336,2019-10-22_09h50.52.984,SurveyExpMetaMem,3.2.3,MacIntel,60
,,,,,,,,,,,,,,,,,,,,5,3.997000217,1,0.708000183,1,0,1200,440,1,1199,forgot,43336,2019-10-22_09h50.52.984,SurveyExpMetaMem,3.2.3,MacIntel,60
,,,,,,,,,,,,,,,,,,,,9,1.144999981,9,0.204999924,1,0,1200,857,1,1199,thankful,43336,2019-10-22_09h50.52.984,SurveyExpMetaMem,3.2.3,MacIntel,60
,,,,,,,,,,,,,,,,,,,,5,1.048000097,5,0.204000235,1,0,1200,1119,1,1199,confusion,43336,2019-10-22_09h50.52.984,SurveyExpMetaMem,3.2.3,MacIntel,60
,,,,,,,,,,,,,,,,,,,,8,1.607000113,8,0.423000097,1,0,1200,348,1,1199,impotent,43336,2019-10-22_09h50.52.984,SurveyExpMetaMem,3.2.3,MacIntel,60
,,,,,,,,,,,,,,,,,,,,8,1.47300005,1,0.781000137,1,0,1200,409,1,1199,old,43336,2019-10-22_09h50.52.984,SurveyExpMetaMem,3.2.3,MacIntel,60
,,,,,,,,,,,,,,,,,,,,5,1.089000225,9,0.882999897,1,0,1200,148,1,1199,victory,43336,2019-10-22_09h50.52.984,SurveyExpMetaMem,3.2.3,MacIntel,60
,,,,,,,,,,,,,,,,,,,,5,24.05900002,1,0.395999908,1,0,1200,412,1,1199,mucus,43336,2019-10-22_09h50.52.984,SurveyExpMetaMem,3.2.3,MacIntel,60
,,,,,,,,,,,,,,,,,,,,9,2.10800004,1,0.692000151,1,0,1200,985,1,1199,pollution,43336,2019-10-22_09h50.52.984,SurveyExpMetaMem,3.2.3,MacIntel,60
,,,,,,,,,,,,,,,,,,,,9,1.688000202,1,0.647000074,1,0,1200,1112,1,1199,pressure,43336,2019-10-22_09h50.52.984,SurveyExpMetaMem,3.2.3,MacIntel,60
,,,,,,,,,,,,,,,,,,,,9,42.06700015,9,0.531000137,1,0,1200,179,1,1199,star,43336,2019-10-22_09h50.52.984,SurveyExpMetaMem,3.2.3,MacIntel,60
,,,,,,,,,,,,,,,,,,,,9,0.822000027,9,0.183000088,1,0,1200,734,1,1199,piano,43336,2019-10-22_09h50.52.984,SurveyExpMetaMem,3.2.3,MacIntel,60
,,,,,,,,,,,,,,,,,,,,9,2.14800024,1,0.56400013,1,0,1200,303,1,1199,death,43336,2019-10-22_09h50.52.984,SurveyExpMetaMem,3.2.3,MacIntel,60
,,,,,,,,,,,,,,,,,,,,5,4.214000225,1,0.438000202,1,0,1200,1148,1,1199,suspicious,43336,2019-10-22_09h50.52.984,SurveyExpMetaMem,3.2.3,MacIntel,60
,,,,,,,,,,,,,,,,,,,,1,9.570000172,7,1.421000004,1,0,1200,786,1,1199,afternoon,43336,2019-10-22_09h50.52.984,SurveyExpMetaMem,3.2.3,MacIntel,60
,,,,,,,,,,,,,,,,,,,,1,1.136000156,7,1.285000086,1,0,1200,245,1,1199,beach,43336,2019-10-22_09h50.52.984,SurveyExpMetaMem,3.2.3,MacIntel,60
,,,,,,,,,,,,,,,,,,,,1,1.519000053,8,1.088000059,1,0,1200,30,1,1199,impressed,43336,2019-10-22_09h50.52.984,SurveyExpMetaMem,3.2.3,MacIntel,60
,,,,,,,,,,,,,,,,,,,,1,2.346000195,8,1.559000254,1,0,1200,534,1,1199,rules,43336,2019-10-22_09h50.52.984,SurveyExpMetaMem,3.2.3,MacIntel,60
,,,,,,,,,,,,,,,,,,,,1,0.963999987,9,0.806999922,1,0,1200,805,1,1199,autumn,43336,2019-10-22_09h50.52.984,SurveyExpMetaMem,3.2.3,MacIntel,60
,,,,,,,,,,,,,,,,,,,,1,1.921999931,6,1.052000046,1,0,1200,807,1,1199,person,43336,2019-10-22_09h50.52.984,SurveyExpMetaMem,3.2.3,MacIntel,60
,,,,,,,,,,,,,,,,,,,,1,1.237000227,5,0.45600009,1,0,1200,632,1,1199,avenue,43336,2019-10-22_09h50.52.984,SurveyExpMetaMem,3.2.3,MacIntel,60
,,,,,,,,,,,,,,,,,,,,1,1.113000154,5,0.565000057,1,0,1200,736,1,1199,hawk,43336,2019-10-22_09h50.52.984,SurveyExpMetaMem,3.2.3,MacIntel,60
,,,,,,,,,,,,,,,,,,,,5,1.361999989,8,1.937000275,1,0,1200,895,1,1199,peace,43336,2019-10-22_09h50.52.984,SurveyExpMetaMem,3.2.3,MacIntel,60
,,,,,,,,,,,,,,,,,,,,9,2.220999956,9,0.289000273,1,0,1200,778,1,1199,adorn,43336,2019-10-22_09h50.52.984,SurveyExpMetaMem,3.2.3,MacIntel,60
,,,,,,,,,,,,,,,,,,,,1,1.803999901,1,0.496000051,1,0,1200,954,1,1199,hostage,43336,2019-10-22_09h50.52.984,SurveyExpMetaMem,3.2.3,MacIntel,60
,,,,,,,,,,,,,,,,,,,,9,1.106000185,9,0.305999994,1,0,1200,196,1,1199,smile,43336,2019-10-22_09h50.52.984,SurveyExpMetaMem,3.2.3,MacIntel,60
,,,,,,,,,,,,,,,,,,,,9,3.004000187,1,0.361000061,1,0,1200,1037,1,1199,scared,43336,2019-10-22_09h50.52.984,SurveyExpMetaMem,3.2.3,MacIntel,60
,,,,,,,,,,,,,,,,,,,,9,1.187000036,9,0.277000189,1,0,1200,195,1,1199,laughing,43336,2019-10-22_09h50.52.984,SurveyExpMetaMem,3.2.3,MacIntel,60
,,,,,,,,,,,,,,,,,,,,5,1.79700017,5,0.22300005,1,0,1200,482,1,1199,cell,43336,2019-10-22_09h50.52.984,SurveyExpMetaMem,3.2.3,MacIntel,60
,,,,,,,,,,,,,,,,,,,,9,1.363000154,9,0.243000269,1,0,1200,175,1,1199,playground,43336,2019-10-22_09h50.52.984,SurveyExpMetaMem,3.2.3,MacIntel,60
,,,,,,,,,,,,,,,,,,,,5,2.515000105,5,0.349000216,1,0,1200,556,1,1199,allege,43336,2019-10-22_09h50.52.984,SurveyExpMetaMem,3.2.3,MacIntel,60
,,,,,,,,,,,,,,,,,,,,5,0.875999928,5,0.220000029,1,0,1200,1188,1,1199,swear,43336,2019-10-22_09h50.52.984,SurveyExpMetaMem,3.2.3,MacIntel,60
,,,,,,,,,,,,,,,,,,,,5,0.594000101,5,0.162000179,1,0,1200,542,1,1199,loose,43336,2019-10-22_09h50.52.984,SurveyExpMetaMem,3.2.3,MacIntel,60
,,,,,,,,,,,,,,,,,,,,5,0.554000139,5,0.254000187,1,0,1200,994,1,1199,repulsed,43336,2019-10-22_09h50.52.984,SurveyExpMetaMem,3.2.3,MacIntel,60
,,,,,,,,,,,,,,,,,,,,5,7.177000046,5,0.31099987,1,0,1200,1178,1,1199,weight,43336,2019-10-22_09h50.52.984,SurveyExpMetaMem,3.2.3,MacIntel,60
,,,,,,,,,,,,,,,,,,,,9,0.919000149,9,0.332000017,1,0,1200,625,1,1199,hat,43336,2019-10-22_09h50.52.984,SurveyExpMetaMem,3.2.3,MacIntel,60
,,,,,,,,,,,,,,,,,,,,5,0.846000195,5,0.304000139,1,0,1200,502,1,1199,crap,43336,2019-10-22_09h50.52.984,SurveyExpMetaMem,3.2.3,MacIntel,60
,,,,,,,,,,,,,,,,,,,,5,1.230000019,5,0.320000172,1,0,1200,154,1,1199,race,43336,2019-10-22_09h50.52.984,SurveyExpMetaMem,3.2.3,MacIntel,60
,,,,,,,,,,,,,,,,,,,,9,4.970999956,9,0.229000092,1,0,1200,143,1,1199,weekend,43336,2019-10-22_09h50.52.984,SurveyExpMetaMem,3.2.3,MacIntel,60
,,,,,,,,,,,,,,,,,,,,5,1.228000164,1,0.296000004,1,0,1200,189,1,1199,thoughtful,43336,2019-10-22_09h50.52.984,SurveyExpMetaMem,3.2.3,MacIntel,60
,,,,,,,,,,,,,,,,,,,,9,2.881000042,9,0.852999926,1,0,1200,224,1,1199,strengthen,43336,2019-10-22_09h50.52.984,SurveyExpMetaMem,3.2.3,MacIntel,60
,,,,,,,,,,,,,,,,,,,,9,1.029000044,9,0.262000084,1,0,1200,715,1,1199,sheltered,43336,2019-10-22_09h50.52.984,SurveyExpMetaMem,3.2.3,MacIntel,60
,,,,,,,,,,,,,,,,,,,,9,0.45600009,9,0.313000202,1,0,1200,455,1,1199,chubby,43336,2019-10-22_09h50.52.984,SurveyExpMetaMem,3.2.3,MacIntel,60
,,,,,,,,,,,,,,,,,,,,9,0.294000149,9,0.507999897,1,0,1200,562,1,1199,average,43336,2019-10-22_09h50.52.984,SurveyExpMetaMem,3.2.3,MacIntel,60
,,,,,,,,,,,,,,,,,,,,5,0.437000036,5,0.298000097,1,0,1200,1084,1,1199,uneasy,43336,2019-10-22_09h50.52.984,SurveyExpMetaMem,3.2.3,MacIntel,60
,,,,,,,,,,,,,,,,,,,,5,0.278000116,5,0.381000042,1,0,1200,89,1,1199,cruiseship,43336,2019-10-22_09h50.52.984,SurveyExpMetaMem,3.2.3,MacIntel,60
,,,,,,,,,,,,,,,,,,,,9,0.464000225,9,0.265000105,1,0,1200,1122,1,1199,gossip,43336,2019-10-22_09h50.52.984,SurveyExpMetaMem,3.2.3,MacIntel,60
,,,,,,,,,,,,,,,,,,,,9,0.457000017,9,0.463000298,1,0,1200,1097,1,1199,bees,43336,2019-10-22_09h50.52.984,SurveyExpMetaMem,3.2.3,MacIntel,60
,,,,,,,,,,,,,,,,,,,,9,0.782000065,9,0.273999929,1,0,1200,209,1,1199,husband,43336,2019-10-22_09h50.52.984,SurveyExpMetaMem,3.2.3,MacIntel,60
,,,,,,,,,,,,,,,,,,,,9,0.436000109,1,0.81099987,1,0,1200,479,1,1199,period,43336,2019-10-22_09h50.52.984,SurveyExpMetaMem,3.2.3,MacIntel,60
,,,,,,,,,,,,,,,,,,,,1,1.197999954,1,0.695000172,1,0,1200,488,1,1199,rusty,43336,2019-10-22_09h50.52.984,SurveyExpMetaMem,3.2.3,MacIntel,60
,,,,,,,,,,,,,,,,,,,,9,0.886000156,9,0.194000006,1,0,1200,80,1,1199,wonderful,43336,2019-10-22_09h50.52.984,SurveyExpMetaMem,3.2.3,MacIntel,60
,,,,,,,,,,,,,,,,,,,,9,0.32400012,1,0.647000074,1,0,1200,310,1,1199,lonely,43336,2019-10-22_09h50.52.984,SurveyExpMetaMem,3.2.3,MacIntel,60
,,,,,,,,,,,,,,,,,,,,5,2.980000257,5,0.240000248,1,0,1200,765,1,1199,candid,43336,2019-10-22_09h50.52.984,SurveyExpMetaMem,3.2.3,MacIntel,60
,,,,,,,,,,,,,,,,,,,,9,0.93900013,1,0.523000002,1,0,1200,849,1,1199,blue,43336,2019-10-22_09h50.52.984,SurveyExpMetaMem,3.2.3,MacIntel,60
,,,,,,,,,,,,,,,,,,,,5,4.111000061,1,0.387000084,1,0,1200,920,1,1199,hurt,43336,2019-10-22_09h50.52.984,SurveyExpMetaMem,3.2.3,MacIntel,60
,,,,,,,,,,,,,,,,,,,,9,1.380000114,1,0.623000145,1,0,1200,1036,1,1199,anxiety,43336,2019-10-22_09h50.52.984,SurveyExpMetaMem,3.2.3,MacIntel,60
,,,,,,,,,,,,,,,,,,,,9,2.219000101,9,0.225000143,1,0,1200,828,1,1199,cooperative,43336,2019-10-22_09h50.52.984,SurveyExpMetaMem,3.2.3,MacIntel,60
,,,,,,,,,,,,,,,,,,,,9,0.703999996,5,0.874000072,1,0,1200,853,1,1199,breeze,43336,2019-10-22_09h50.52.984,SurveyExpMetaMem,3.2.3,MacIntel,60
,,,,,,,,,,,,,,,,,,,,5,0.786000013,5,0.523000002,1,0,1200,747,1,1199,furniture,43336,2019-10-22_09h50.52.984,SurveyExpMetaMem,3.2.3,MacIntel,60
,,,,,,,,,,,,,,,,,,,,5,0.450999975,9,0.498000145,1,0,1200,123,1,1199,favorite,43336,2019-10-22_09h50.52.984,SurveyExpMetaMem,3.2.3,MacIntel,60
,,,,,,,,,,,,,,,,,,,,5,0.595000029,5,1.059000015,1,0,1200,718,1,1199,flow,43336,2019-10-22_09h50.52.984,SurveyExpMetaMem,3.2.3,MacIntel,60
,,,,,,,,,,,,,,,,,,,,9,0.921000004,9,0.213000059,1,0,1200,291,1,1199,fantastic,43336,2019-10-22_09h50.52.984,SurveyExpMetaMem,3.2.3,MacIntel,60
,,,,,,,,,,,,,,,,,,,,5,0.673000097,5,0.271000147,1,0,1200,163,1,1199,gem,43336,2019-10-22_09h50.52.984,SurveyExpMetaMem,3.2.3,MacIntel,60
,,,,,,,,,,,,,,,,,,,,9,1.502000093,1,0.286000013,1,0,1200,976,1,1199,tumor,43336,2019-10-22_09h50.52.984,SurveyExpMetaMem,3.2.3,MacIntel,60
,,,,,,,,,,,,,,,,,,,,5,1.919000149,5,0.191999912,1,0,1200,228,1,1199,suite,43336,2019-10-22_09h50.52.984,SurveyExpMetaMem,3.2.3,MacIntel,60
,,,,,,,,,,,,,,,,,,,,9,1.804000139,1,0.291000128,1,0,1200,1005,1,1199,pissed,43336,2019-10-22_09h50.52.984,SurveyExpMetaMem,3.2.3,MacIntel,60
,,,,,,,,,,,,,,,,,,,,5,1.605000019,5,0.246000051,1,0,1200,735,1,1199,tea,43336,2019-10-22_09h50.52.984,SurveyExpMetaMem,3.2.3,MacIntel,60
,,,,,,,,,,,,,,,,,,,,5,1.469000101,1,0.328999996,1,0,1200,1054,1,1199,jealous,43336,2019-10-22_09h50.52.984,SurveyExpMetaMem,3.2.3,MacIntel,60
,,,,,,,,,,,,,,,,,,,,5,1.014000177,1,0.205000162,1,0,1200,58,1,1199,boost,43336,2019-10-22_09h50.52.984,SurveyExpMetaMem,3.2.3,MacIntel,60
,,,,,,,,,,,,,,,,,,,,9,1.146000147,9,0.198000193,1,0,1200,136,1,1199,dog,43336,2019-10-22_09h50.52.984,SurveyExpMetaMem,3.2.3,MacIntel,60
,,,,,,,,,,,,,,,,,,,,5,2.444999933,2,0.355999947,1,0,1200,497,1,1199,pungent,43336,2019-10-22_09h50.52.984,SurveyExpMetaMem,3.2.3,MacIntel,60
,,,,,,,,,,,,,,,,,,,,5,0.627000093,9,0.986000061,1,0,1200,489,1,1199,timid,43336,2019-10-22_09h50.52.984,SurveyExpMetaMem,3.2.3,MacIntel,60
,,,,,,,,,,,,,,,,,,,,5,0.83100009,5,0.480000019,1,0,1200,869,1,1199,assure,43336,2019-10-22_09h50.52.984,SurveyExpMetaMem,3.2.3,MacIntel,60
,,,,,,,,,,,,,,,,,,,,1,1.837000132,1,0.744000196,1,0,1200,452,1,1199,scapegoat,43336,2019-10-22_09h50.52.984,SurveyExpMetaMem,3.2.3,MacIntel,60
,,,,,,,,,,,,,,,,,,,,9,1.060000181,9,0.210999966,1,0,1200,198,1,1199,comedy,43336,2019-10-22_09h50.52.984,SurveyExpMetaMem,3.2.3,MacIntel,60
,,,,,,,,,,,,,,,,,,,,1,1.302999973,6,2.154000044,1,0,1200,584,1,1199,anus,43336,2019-10-22_09h50.52.984,SurveyExpMetaMem,3.2.3,MacIntel,60
,,,,,,,,,,,,,,,,,,,,9,25.49600005,1,0.451000214,1,0,1200,1154,1,1199,politics,43336,2019-10-22_09h50.52.984,SurveyExpMetaMem,3.2.3,MacIntel,60
,,,,,,,,,,,,,,,,,,,,9,2.33100009,1,0.424000025,1,0,1200,960,1,1199,irritated,43336,2019-10-22_09h50.52.984,SurveyExpMetaMem,3.2.3,MacIntel,60
,,,,,,,,,,,,,,,,,,,,9,1.062000036,9,0.279999971,1,0,1200,885,1,1199,cozy,43336,2019-10-22_09h50.52.984,SurveyExpMetaMem,3.2.3,MacIntel,60
,,,,,,,,,,,,,,,,,,,,1,2.513000011,5,1.213000059,1,0,1200,1013,1,1199,guilty,43336,2019-10-22_09h50.52.984,SurveyExpMetaMem,3.2.3,MacIntel,60
,,,,,,,,,,,,,,,,,,,,9,1.220000029,9,0.335999966,1,0,1200,33,1,1199,sister,43336,2019-10-22_09h50.52.984,SurveyExpMetaMem,3.2.3,MacIntel,60
,,,,,,,,,,,,,,,,,,,,1,1.953000069,9,0.846000195,1,0,1200,243,1,1199,fame,43336,2019-10-22_09h50.52.984,SurveyExpMetaMem,3.2.3,MacIntel,60
,,,,,,,,,,,,,,,,,,,,5,1.483000278,6,0.963000059,1,0,1200,555,1,1199,school,43336,2019-10-22_09h50.52.984,SurveyExpMetaMem,3.2.3,MacIntel,60
,,,,,,,,,,,,,,,,,,,,5,2.17200017,8,0.482000113,1,0,1200,536,1,1199,vacant,43336,2019-10-22_09h50.52.984,SurveyExpMetaMem,3.2.3,MacIntel,60
,,,,,,,,,,,,,,,,,,,,7,1.924000263,8,0.277000189,1,0,1200,682,1,1199,camel,43336,2019-10-22_09h50.52.984,SurveyExpMetaMem,3.2.3,MacIntel,60
,,,,,,,,,,,,,,,,,,,,7,1.757000208,8,0.294000149,1,0,1200,208,1,1199,wild,43336,2019-10-22_09h50.52.984,SurveyExpMetaMem,3.2.3,MacIntel,60
,,,,,,,,,,,,,,,,,,,,8,1.186000109,3,0.437000275,1,0,1200,480,1,1199,hinder,43336,2019-10-22_09h50.52.984,SurveyExpMetaMem,3.2.3,MacIntel,60
,,,,,,,,,,,,,,,,,,,,5,0.606000185,7,0.406000137,1,0,1200,822,1,1199,clearer,43336,2019-10-22_09h50.52.984,SurveyExpMetaMem,3.2.3,MacIntel,60
