mouse_4.x,mouse_4.y,mouse_4.leftButton,mouse_4.midButton,mouse_4.rightButton,mouse.x,mouse.y,mouse.leftButton,mouse.midButton,mouse.rightButton,mouse_2.x,mouse_2.y,mouse_2.leftButton,mouse_2.midButton,mouse_2.rightButton,mouse_3.x,mouse_3.y,mouse_3.leftButton,mouse_3.midButton,mouse_3.rightButton,A_key_resp.keys,A_key_resp.rt,key_resp.keys,key_resp.rt,trials.thisRepN,trials.thisTrialN,trials.thisN,trials.thisIndex,trials.ran,trials.order,word,ParticipantID,date,expName,psychopyVersion,OS,frameRate
0.086458333,-0.140625,1,0,0,0.214583333,-0.1140625,1,0,0,0.214583333,-0.1140625,1,0,0,0.214583333,-0.1140625,1,0,0,6,9.957999945,4,31.00600004,1,0,1200,970,1,1199,worry,11142,2019-10-21_18h02.03.693,SurveyExpMetaMem,3.2.3,Win32,60
,,,,,,,,,,,,,,,,,,,,8,6.602000237,9,3.177000046,1,0,1200,240,1,1199,giggles,11142,2019-10-21_18h02.03.693,SurveyExpMetaMem,3.2.3,Win32,60
,,,,,,,,,,,,,,,,,,,,2,4.388999939,5,2.953000307,1,0,1200,428,1,1199,end,11142,2019-10-21_18h02.03.693,SurveyExpMetaMem,3.2.3,Win32,60
,,,,,,,,,,,,,,,,,,,,3,8.032999992,5,4.93900013,1,0,1200,1117,1,1199,court,11142,2019-10-21_18h02.03.693,SurveyExpMetaMem,3.2.3,Win32,60
,,,,,,,,,,,,,,,,,,,,2,5.611000061,7,1.846999884,1,0,1200,276,1,1199,pastry,11142,2019-10-21_18h02.03.693,SurveyExpMetaMem,3.2.3,Win32,60
,,,,,,,,,,,,,,,,,,,,7,2.819999933,7,2.561000109,1,0,1200,120,1,1199,imaginative,11142,2019-10-21_18h02.03.693,SurveyExpMetaMem,3.2.3,Win32,60
,,,,,,,,,,,,,,,,,,,,9,2.827000141,8,2.34800005,1,0,1200,79,1,1199,dazzle,11142,2019-10-21_18h02.03.693,SurveyExpMetaMem,3.2.3,Win32,60
,,,,,,,,,,,,,,,,,,,,9,5.285000086,8,2.998000145,1,0,1200,242,1,1199,triumph,11142,2019-10-21_18h02.03.693,SurveyExpMetaMem,3.2.3,Win32,60
,,,,,,,,,,,,,,,,,,,,4,4.881000042,7,3.410000086,1,0,1200,707,1,1199,adapt,11142,2019-10-21_18h02.03.693,SurveyExpMetaMem,3.2.3,Win32,60
,,,,,,,,,,,,,,,,,,,,6,3.944000006,7,2.571000099,1,0,1200,161,1,1199,limousine,11142,2019-10-21_18h02.03.693,SurveyExpMetaMem,3.2.3,Win32,60
,,,,,,,,,,,,,,,,,,,,6,5.641000032,5,2.72300005,1,0,1200,725,1,1199,checkerboard,11142,2019-10-21_18h02.03.693,SurveyExpMetaMem,3.2.3,Win32,60
,,,,,,,,,,,,,,,,,,,,6,3.952000141,6,7.625000238,1,0,1200,797,1,1199,hamburger,11142,2019-10-21_18h02.03.693,SurveyExpMetaMem,3.2.3,Win32,60
,,,,,,,,,,,,,,,,,,,,2,23.54400015,7,2.859000206,1,0,1200,53,1,1199,lotion,11142,2019-10-21_18h02.03.693,SurveyExpMetaMem,3.2.3,Win32,60
,,,,,,,,,,,,,,,,,,,,5,6.555000067,2,3.67599988,1,0,1200,338,1,1199,obesity,11142,2019-10-21_18h02.03.693,SurveyExpMetaMem,3.2.3,Win32,60
,,,,,,,,,,,,,,,,,,,,3,6.035000086,5,1.565000057,1,0,1200,720,1,1199,stable,11142,2019-10-21_18h02.03.693,SurveyExpMetaMem,3.2.3,Win32,60
,,,,,,,,,,,,,,,,,,,,7,3.840000153,4,1.975000143,1,0,1200,1039,1,1199,stalk,11142,2019-10-21_18h02.03.693,SurveyExpMetaMem,3.2.3,Win32,60
,,,,,,,,,,,,,,,,,,,,4,14.71600008,6,2.460000038,1,0,1200,793,1,1199,virtue,11142,2019-10-21_18h02.03.693,SurveyExpMetaMem,3.2.3,Win32,60
,,,,,,,,,,,,,,,,,,,,3,11.07000017,1,5.808000088,1,0,1200,313,1,1199,rotten,11142,2019-10-21_18h02.03.693,SurveyExpMetaMem,3.2.3,Win32,60
,,,,,,,,,,,,,,,,,,,,8,1.937999964,1,2.355000019,1,0,1200,1021,1,1199,attack,11142,2019-10-21_18h02.03.693,SurveyExpMetaMem,3.2.3,Win32,60
,,,,,,,,,,,,,,,,,,,,5,4.455000162,2,1.849000216,1,0,1200,356,1,1199,mucous,11142,2019-10-21_18h02.03.693,SurveyExpMetaMem,3.2.3,Win32,60
,,,,,,,,,,,,,,,,,,,,2,3.575000048,5,2.299000025,1,0,1200,76,1,1199,midnight,11142,2019-10-21_18h02.03.693,SurveyExpMetaMem,3.2.3,Win32,60
,,,,,,,,,,,,,,,,,,,,5,7.292999983,6,1.717000008,1,0,1200,622,1,1199,revere,11142,2019-10-21_18h02.03.693,SurveyExpMetaMem,3.2.3,Win32,60
,,,,,,,,,,,,,,,,,,,,7,3.322999954,8,1.256000042,1,0,1200,284,1,1199,delight,11142,2019-10-21_18h02.03.693,SurveyExpMetaMem,3.2.3,Win32,60
,,,,,,,,,,,,,,,,,,,,5,3.407000065,6,2.830000162,1,0,1200,75,1,1199,actor,11142,2019-10-21_18h02.03.693,SurveyExpMetaMem,3.2.3,Win32,60
,,,,,,,,,,,,,,,,,,,,6,12.81400013,2,2.920000076,1,0,1200,573,1,1199,cease,11142,2019-10-21_18h02.03.693,SurveyExpMetaMem,3.2.3,Win32,60
,,,,,,,,,,,,,,,,,,,,2,4.023000002,5,4.597000122,1,0,1200,836,1,1199,lounge,11142,2019-10-21_18h02.03.693,SurveyExpMetaMem,3.2.3,Win32,60
,,,,,,,,,,,,,,,,,,,,8,2.427999973,8,2.489000082,1,0,1200,249,1,1199,award,11142,2019-10-21_18h02.03.693,SurveyExpMetaMem,3.2.3,Win32,60
,,,,,,,,,,,,,,,,,,,,5,14.85700011,3,1.455000162,1,0,1200,425,1,1199,crutch,11142,2019-10-21_18h02.03.693,SurveyExpMetaMem,3.2.3,Win32,60
,,,,,,,,,,,,,,,,,,,,6,2.947000027,7,2.778000116,1,0,1200,809,1,1199,boy,11142,2019-10-21_18h02.03.693,SurveyExpMetaMem,3.2.3,Win32,60
,,,,,,,,,,,,,,,,,,,,7,3.473999977,2,1.987000227,1,0,1200,1188,1,1199,swear,11142,2019-10-21_18h02.03.693,SurveyExpMetaMem,3.2.3,Win32,60
,,,,,,,,,,,,,,,,,,,,9,1.586000204,9,1.162000179,1,0,1200,679,1,1199,yellow,11142,2019-10-21_18h02.03.693,SurveyExpMetaMem,3.2.3,Win32,60
,,,,,,,,,,,,,,,,,,,,9,1.855000257,8,2.008000135,1,0,1200,191,1,1199,compassion,11142,2019-10-21_18h02.03.693,SurveyExpMetaMem,3.2.3,Win32,60
,,,,,,,,,,,,,,,,,,,,7,6.215000153,7,1.622000217,1,0,1200,519,1,1199,listless,11142,2019-10-21_18h02.03.693,SurveyExpMetaMem,3.2.3,Win32,60
,,,,,,,,,,,,,,,,,,,,6,4.353000164,6,3.605999947,1,0,1200,54,1,1199,alcohol,11142,2019-10-21_18h02.03.693,SurveyExpMetaMem,3.2.3,Win32,60
,,,,,,,,,,,,,,,,,,,,3,2.490999937,5,3.45600009,1,0,1200,575,1,1199,paragraph,11142,2019-10-21_18h02.03.693,SurveyExpMetaMem,3.2.3,Win32,60
,,,,,,,,,,,,,,,,,,,,8,5.652000189,1,2.792000055,1,0,1200,1012,1,1199,gunshot,11142,2019-10-21_18h02.03.693,SurveyExpMetaMem,3.2.3,Win32,60
,,,,,,,,,,,,,,,,,,,,8,6.668000221,2,2.460999966,1,0,1200,397,1,1199,complaint,11142,2019-10-21_18h02.03.693,SurveyExpMetaMem,3.2.3,Win32,60
,,,,,,,,,,,,,,,,,,,,9,2.43900013,9,1.221000195,1,0,1200,69,1,1199,special,11142,2019-10-21_18h02.03.693,SurveyExpMetaMem,3.2.3,Win32,60
,,,,,,,,,,,,,,,,,,,,7,3.19900012,2,1.520000219,1,0,1200,473,1,1199,senseless,11142,2019-10-21_18h02.03.693,SurveyExpMetaMem,3.2.3,Win32,60
,,,,,,,,,,,,,,,,,,,,7,10.41300011,2,1.987000227,1,0,1200,353,1,1199,blister,11142,2019-10-21_18h02.03.693,SurveyExpMetaMem,3.2.3,Win32,60
,,,,,,,,,,,,,,,,,,,,8,1.786000013,1,0.509000063,1,0,1200,1031,1,1199,fear,11142,2019-10-21_18h02.03.693,SurveyExpMetaMem,3.2.3,Win32,60
,,,,,,,,,,,,,,,,,,,,9,2.154999971,1,0.955000162,1,0,1200,1024,1,1199,burn,11142,2019-10-21_18h02.03.693,SurveyExpMetaMem,3.2.3,Win32,60
,,,,,,,,,,,,,,,,,,,,7,3.903000116,3,1.697000265,1,0,1200,216,1,1199,vigorous,11142,2019-10-21_18h02.03.693,SurveyExpMetaMem,3.2.3,Win32,60
,,,,,,,,,,,,,,,,,,,,8,2.374000072,2,0.17599988,1,0,1200,984,1,1199,despairing,11142,2019-10-21_18h02.03.693,SurveyExpMetaMem,3.2.3,Win32,60
,,,,,,,,,,,,,,,,,,,,8,10.76300001,6,1.838000059,1,0,1200,1093,1,1199,hive,11142,2019-10-21_18h02.03.693,SurveyExpMetaMem,3.2.3,Win32,60
,,,,,,,,,,,,,,,,,,,,7,2.853000164,3,3.913000107,1,0,1200,1089,1,1199,ridicule,11142,2019-10-21_18h02.03.693,SurveyExpMetaMem,3.2.3,Win32,60
,,,,,,,,,,,,,,,,,,,,6,3.15199995,5,1.262000084,1,0,1200,448,1,1199,depart,11142,2019-10-21_18h02.03.693,SurveyExpMetaMem,3.2.3,Win32,60
,,,,,,,,,,,,,,,,,,,,2,8.622000217,1,1.506000042,1,0,1200,511,1,1199,slouch,11142,2019-10-21_18h02.03.693,SurveyExpMetaMem,3.2.3,Win32,60
,,,,,,,,,,,,,,,,,,,,7,2.062000036,4,4.953000307,1,0,1200,1197,1,1199,command,11142,2019-10-21_18h02.03.693,SurveyExpMetaMem,3.2.3,Win32,60
,,,,,,,,,,,,,,,,,,,,8,3.304000139,8,1.861000061,1,0,1200,781,1,1199,emerald,11142,2019-10-21_18h02.03.693,SurveyExpMetaMem,3.2.3,Win32,60
,,,,,,,,,,,,,,,,,,,,7,9.861999989,1,5.300000191,1,0,1200,531,1,1199,omit,11142,2019-10-21_18h02.03.693,SurveyExpMetaMem,3.2.3,Win32,60
,,,,,,,,,,,,,,,,,,,,8,1.646000147,1,0.75999999,1,0,1200,947,1,1199,shame,11142,2019-10-21_18h02.03.693,SurveyExpMetaMem,3.2.3,Win32,60
,,,,,,,,,,,,,,,,,,,,6,2.09100008,6,4.879000187,1,0,1200,739,1,1199,seagull,11142,2019-10-21_18h02.03.693,SurveyExpMetaMem,3.2.3,Win32,60
,,,,,,,,,,,,,,,,,,,,6,9.710999966,5,1.646000147,1,0,1200,546,1,1199,solemn,11142,2019-10-21_18h02.03.693,SurveyExpMetaMem,3.2.3,Win32,60
,,,,,,,,,,,,,,,,,,,,8,12.48800015,2,1.480000257,1,0,1200,165,1,1199,sizzle,11142,2019-10-21_18h02.03.693,SurveyExpMetaMem,3.2.3,Win32,60
,,,,,,,,,,,,,,,,,,,,4,2.690999985,7,1.889000177,1,0,1200,803,1,1199,tidy,11142,2019-10-21_18h02.03.693,SurveyExpMetaMem,3.2.3,Win32,60
,,,,,,,,,,,,,,,,,,,,9,2.120000124,9,1.104000092,1,0,1200,186,1,1199,holiday,11142,2019-10-21_18h02.03.693,SurveyExpMetaMem,3.2.3,Win32,60
,,,,,,,,,,,,,,,,,,,,4,9.988000154,7,3.955000162,1,0,1200,577,1,1199,retreat,11142,2019-10-21_18h02.03.693,SurveyExpMetaMem,3.2.3,Win32,60
,,,,,,,,,,,,,,,,,,,,6,7.595000029,5,0.992000103,1,0,1200,257,1,1199,cockpit,11142,2019-10-21_18h02.03.693,SurveyExpMetaMem,3.2.3,Win32,60
,,,,,,,,,,,,,,,,,,,,5,4.210999966,5,0.938999891,1,0,1200,315,1,1199,zit,11142,2019-10-21_18h02.03.693,SurveyExpMetaMem,3.2.3,Win32,60
,,,,,,,,,,,,,,,,,,,,7,2.078999996,7,2.632000208,1,0,1200,192,1,1199,pleased,11142,2019-10-21_18h02.03.693,SurveyExpMetaMem,3.2.3,Win32,60
,,,,,,,,,,,,,,,,,,,,4,4.664000034,5,1.567000151,1,0,1200,517,1,1199,habit,11142,2019-10-21_18h02.03.693,SurveyExpMetaMem,3.2.3,Win32,60
,,,,,,,,,,,,,,,,,,,,7,6.145000219,2,1.677000046,1,0,1200,1125,1,1199,outrage,11142,2019-10-21_18h02.03.693,SurveyExpMetaMem,3.2.3,Win32,60
,,,,,,,,,,,,,,,,,,,,8,6.209000111,8,0.904999971,1,0,1200,1144,1,1199,yelp,11142,2019-10-21_18h02.03.693,SurveyExpMetaMem,3.2.3,Win32,60
,,,,,,,,,,,,,,,,,,,,8,6.977999926,2,1.200000048,1,0,1200,490,1,1199,detached,11142,2019-10-21_18h02.03.693,SurveyExpMetaMem,3.2.3,Win32,60
,,,,,,,,,,,,,,,,,,,,5,4.069000006,5,0.322999954,1,0,1200,534,1,1199,rules,11142,2019-10-21_18h02.03.693,SurveyExpMetaMem,3.2.3,Win32,60
,,,,,,,,,,,,,,,,,,,,7,3.291000128,3,1.116000175,1,0,1200,1088,1,1199,forbid,11142,2019-10-21_18h02.03.693,SurveyExpMetaMem,3.2.3,Win32,60
,,,,,,,,,,,,,,,,,,,,5,2.253999949,5,0.827000141,1,0,1200,551,1,1199,coal,11142,2019-10-21_18h02.03.693,SurveyExpMetaMem,3.2.3,Win32,60
,,,,,,,,,,,,,,,,,,,,8,6.946000099,1,3.327000141,1,0,1200,480,1,1199,hinder,11142,2019-10-21_18h02.03.693,SurveyExpMetaMem,3.2.3,Win32,60
,,,,,,,,,,,,,,,,,,,,6,2.258000135,4,3.511000156,1,0,1200,730,1,1199,slogan,11142,2019-10-21_18h02.03.693,SurveyExpMetaMem,3.2.3,Win32,60
,,,,,,,,,,,,,,,,,,,,2,3.410000086,8,1.654999971,1,0,1200,735,1,1199,tea,11142,2019-10-21_18h02.03.693,SurveyExpMetaMem,3.2.3,Win32,60
,,,,,,,,,,,,,,,,,,,,8,3.373000145,1,2.881000042,1,0,1200,1046,1,1199,unsafe,11142,2019-10-21_18h02.03.693,SurveyExpMetaMem,3.2.3,Win32,60
,,,,,,,,,,,,,,,,,,,,4,3.084000111,5,1.312000036,1,0,1200,792,1,1199,moral,11142,2019-10-21_18h02.03.693,SurveyExpMetaMem,3.2.3,Win32,60
,,,,,,,,,,,,,,,,,,,,7,1.913000107,1,1.445000172,1,0,1200,1066,1,1199,annoy,11142,2019-10-21_18h02.03.693,SurveyExpMetaMem,3.2.3,Win32,60
,,,,,,,,,,,,,,,,,,,,8,2.963000059,1,1.486999989,1,0,1200,413,1,1199,deficient,11142,2019-10-21_18h02.03.693,SurveyExpMetaMem,3.2.3,Win32,60
,,,,,,,,,,,,,,,,,,,,2,2.696000099,7,2.765000105,1,0,1200,821,1,1199,cottage,11142,2019-10-21_18h02.03.693,SurveyExpMetaMem,3.2.3,Win32,60
,,,,,,,,,,,,,,,,,,,,8,1.603000164,9,1.397000074,1,0,1200,70,1,1199,cartoon,11142,2019-10-21_18h02.03.693,SurveyExpMetaMem,3.2.3,Win32,60
,,,,,,,,,,,,,,,,,,,,8,1.989000082,2,6.721000195,1,0,1200,977,1,1199,choke,11142,2019-10-21_18h02.03.693,SurveyExpMetaMem,3.2.3,Win32,60
,,,,,,,,,,,,,,,,,,,,9,2.18900013,9,0.625999928,1,0,1200,783,1,1199,sprinkle,11142,2019-10-21_18h02.03.693,SurveyExpMetaMem,3.2.3,Win32,60
,,,,,,,,,,,,,,,,,,,,8,2.745000124,1,3.255000114,1,0,1200,1164,1,1199,battle,11142,2019-10-21_18h02.03.693,SurveyExpMetaMem,3.2.3,Win32,60
,,,,,,,,,,,,,,,,,,,,7,4.276000023,2,10.80500007,1,0,1200,311,1,1199,discomfort,11142,2019-10-21_18h02.03.693,SurveyExpMetaMem,3.2.3,Win32,60
,,,,,,,,,,,,,,,,,,,,6,2.039000273,3,2.855999947,1,0,1200,442,1,1199,foolish,11142,2019-10-21_18h02.03.693,SurveyExpMetaMem,3.2.3,Win32,60
,,,,,,,,,,,,,,,,,,,,6,2.286000013,6,3.291000128,1,0,1200,613,1,1199,cup,11142,2019-10-21_18h02.03.693,SurveyExpMetaMem,3.2.3,Win32,60
,,,,,,,,,,,,,,,,,,,,5,6.103000164,5,0.940999985,1,0,1200,464,1,1199,tick,11142,2019-10-21_18h02.03.693,SurveyExpMetaMem,3.2.3,Win32,60
,,,,,,,,,,,,,,,,,,,,7,1.903000116,7,0.996999979,1,0,1200,888,1,1199,refreshment,11142,2019-10-21_18h02.03.693,SurveyExpMetaMem,3.2.3,Win32,60
,,,,,,,,,,,,,,,,,,,,4,3.0400002,6,1.692000151,1,0,1200,715,1,1199,sheltered,11142,2019-10-21_18h02.03.693,SurveyExpMetaMem,3.2.3,Win32,60
,,,,,,,,,,,,,,,,,,,,8,1.608999968,5,3.076000214,1,0,1200,1176,1,1199,vampire,11142,2019-10-21_18h02.03.693,SurveyExpMetaMem,3.2.3,Win32,60
,,,,,,,,,,,,,,,,,,,,9,10.05800009,6,3.247000217,1,0,1200,1151,1,1199,drama,11142,2019-10-21_18h02.03.693,SurveyExpMetaMem,3.2.3,Win32,60
,,,,,,,,,,,,,,,,,,,,6,6.309999943,5,0.906000137,1,0,1200,764,1,1199,coin,11142,2019-10-21_18h02.03.693,SurveyExpMetaMem,3.2.3,Win32,60
,,,,,,,,,,,,,,,,,,,,7,1.762000084,2,1.254000187,1,0,1200,1061,1,1199,difficult,11142,2019-10-21_18h02.03.693,SurveyExpMetaMem,3.2.3,Win32,60
,,,,,,,,,,,,,,,,,,,,5,2.57400012,5,1.338000059,1,0,1200,747,1,1199,furniture,11142,2019-10-21_18h02.03.693,SurveyExpMetaMem,3.2.3,Win32,60
,,,,,,,,,,,,,,,,,,,,7,1.326000214,7,0.986000061,1,0,1200,91,1,1199,pretty,11142,2019-10-21_18h02.03.693,SurveyExpMetaMem,3.2.3,Win32,60
,,,,,,,,,,,,,,,,,,,,8,2.695000172,4,1.640000105,1,0,1200,1134,1,1199,obsessed,11142,2019-10-21_18h02.03.693,SurveyExpMetaMem,3.2.3,Win32,60
,,,,,,,,,,,,,,,,,,,,9,1.539999962,9,0.505000114,1,0,1200,221,1,1199,sparkle,11142,2019-10-21_18h02.03.693,SurveyExpMetaMem,3.2.3,Win32,60
,,,,,,,,,,,,,,,,,,,,4,2.496000051,1,1.255000114,1,0,1200,389,1,1199,gloomy,11142,2019-10-21_18h02.03.693,SurveyExpMetaMem,3.2.3,Win32,60
,,,,,,,,,,,,,,,,,,,,1,11.46200013,1,1.038000107,1,0,1200,541,1,1199,apathy,11142,2019-10-21_18h02.03.693,SurveyExpMetaMem,3.2.3,Win32,60
,,,,,,,,,,,,,,,,,,,,6,8.886000156,2,2.18900013,1,0,1200,1034,1,1199,pester,11142,2019-10-21_18h02.03.693,SurveyExpMetaMem,3.2.3,Win32,60
,,,,,,,,,,,,,,,,,,,,8,2.742000103,3,0.825000048,1,0,1200,1067,1,1199,wicked,11142,2019-10-21_18h02.03.693,SurveyExpMetaMem,3.2.3,Win32,60
,,,,,,,,,,,,,,,,,,,,3,4.476999998,5,1.940999985,1,0,1200,355,1,1199,graveyard,11142,2019-10-21_18h02.03.693,SurveyExpMetaMem,3.2.3,Win32,60
,,,,,,,,,,,,,,,,,,,,2,2.769999981,9,1.130000114,1,0,1200,895,1,1199,peace,11142,2019-10-21_18h02.03.693,SurveyExpMetaMem,3.2.3,Win32,60
,,,,,,,,,,,,,,,,,,,,9,2.68200016,9,0.775000095,1,0,1200,873,1,1199,useful,11142,2019-10-21_18h02.03.693,SurveyExpMetaMem,3.2.3,Win32,60
,,,,,,,,,,,,,,,,,,,,9,5.360000134,1,1.111999989,1,0,1200,1138,1,1199,wail,11142,2019-10-21_18h02.03.693,SurveyExpMetaMem,3.2.3,Win32,60
,,,,,,,,,,,,,,,,,,,,9,1.364000082,9,0.496999979,1,0,1200,146,1,1199,congratulations,11142,2019-10-21_18h02.03.693,SurveyExpMetaMem,3.2.3,Win32,60
,,,,,,,,,,,,,,,,,,,,5,2.187999964,6,1.825999975,1,0,1200,616,1,1199,coat,11142,2019-10-21_18h02.03.693,SurveyExpMetaMem,3.2.3,Win32,60
,,,,,,,,,,,,,,,,,,,,7,5.523000002,2,1.142000198,1,0,1200,1182,1,1199,pierce,11142,2019-10-21_18h02.03.693,SurveyExpMetaMem,3.2.3,Win32,60
,,,,,,,,,,,,,,,,,,,,9,1.676000118,9,0.369000196,1,0,1200,694,1,1199,pecan,11142,2019-10-21_18h02.03.693,SurveyExpMetaMem,3.2.3,Win32,60
,,,,,,,,,,,,,,,,,,,,9,3.223000288,1,1.282000065,1,0,1200,423,1,1199,stain,11142,2019-10-21_18h02.03.693,SurveyExpMetaMem,3.2.3,Win32,60
,,,,,,,,,,,,,,,,,,,,9,1.463000059,9,0.537000179,1,0,1200,22,1,1199,doughnut,11142,2019-10-21_18h02.03.693,SurveyExpMetaMem,3.2.3,Win32,60
,,,,,,,,,,,,,,,,,,,,8,2.594000101,2,0.977000237,1,0,1200,440,1,1199,forgot,11142,2019-10-21_18h02.03.693,SurveyExpMetaMem,3.2.3,Win32,60
,,,,,,,,,,,,,,,,,,,,5,3.536999941,6,1.003999949,1,0,1200,772,1,1199,ornament,11142,2019-10-21_18h02.03.693,SurveyExpMetaMem,3.2.3,Win32,60
,,,,,,,,,,,,,,,,,,,,4,4.019000053,7,1.046000242,1,0,1200,138,1,1199,blessings,11142,2019-10-21_18h02.03.693,SurveyExpMetaMem,3.2.3,Win32,60
,,,,,,,,,,,,,,,,,,,,9,1.679000139,5,4.246000051,1,0,1200,204,1,1199,crazy,11142,2019-10-21_18h02.03.693,SurveyExpMetaMem,3.2.3,Win32,60
,,,,,,,,,,,,,,,,,,,,8,1.887000084,1,0.981999874,1,0,1200,1023,1,1199,disorder,11142,2019-10-21_18h02.03.693,SurveyExpMetaMem,3.2.3,Win32,60
,,,,,,,,,,,,,,,,,,,,9,1.387000084,9,0.256000042,1,0,1200,87,1,1199,cookie,11142,2019-10-21_18h02.03.693,SurveyExpMetaMem,3.2.3,Win32,60
,,,,,,,,,,,,,,,,,,,,9,1.006999969,9,0.274000168,1,0,1200,124,1,1199,honeymoon,11142,2019-10-21_18h02.03.693,SurveyExpMetaMem,3.2.3,Win32,60
,,,,,,,,,,,,,,,,,,,,5,3.907000065,7,1.493000031,1,0,1200,800,1,1199,authentic,11142,2019-10-21_18h02.03.693,SurveyExpMetaMem,3.2.3,Win32,60
,,,,,,,,,,,,,,,,,,,,5,8.959000111,5,0.911999941,1,0,1200,545,1,1199,tar,11142,2019-10-21_18h02.03.693,SurveyExpMetaMem,3.2.3,Win32,60
,,,,,,,,,,,,,,,,,,,,8,1.586999893,6,2.838000059,1,0,1200,167,1,1199,casino,11142,2019-10-21_18h02.03.693,SurveyExpMetaMem,3.2.3,Win32,60
,,,,,,,,,,,,,,,,,,,,5,2.217000008,5,1.107000113,1,0,1200,627,1,1199,introductory,11142,2019-10-21_18h02.03.693,SurveyExpMetaMem,3.2.3,Win32,60
,,,,,,,,,,,,,,,,,,,,8,1.713999987,1,2.453999996,1,0,1200,1054,1,1199,jealous,11142,2019-10-21_18h02.03.693,SurveyExpMetaMem,3.2.3,Win32,60
,,,,,,,,,,,,,,,,,,,,8,5.85800004,1,2.174000025,1,0,1200,367,1,1199,pathetic,11142,2019-10-21_18h02.03.693,SurveyExpMetaMem,3.2.3,Win32,60
,,,,,,,,,,,,,,,,,,,,6,3.328000069,2,1.072000027,1,0,1200,975,1,1199,insecure,11142,2019-10-21_18h02.03.693,SurveyExpMetaMem,3.2.3,Win32,60
,,,,,,,,,,,,,,,,,,,,8,1.626000166,8,7.036999941,1,0,1200,238,1,1199,sunshine,11142,2019-10-21_18h02.03.693,SurveyExpMetaMem,3.2.3,Win32,60
,,,,,,,,,,,,,,,,,,,,2,3.610000134,2,1.743000269,1,0,1200,559,1,1199,lazy,11142,2019-10-21_18h02.03.693,SurveyExpMetaMem,3.2.3,Win32,60
,,,,,,,,,,,,,,,,,,,,2,2.363000154,1,6.34100008,1,0,1200,408,1,1199,bore,11142,2019-10-21_18h02.03.693,SurveyExpMetaMem,3.2.3,Win32,60
,,,,,,,,,,,,,,,,,,,,5,7.736000061,7,1.176000118,1,0,1200,696,1,1199,rink,11142,2019-10-21_18h02.03.693,SurveyExpMetaMem,3.2.3,Win32,60
,,,,,,,,,,,,,,,,,,,,2,6.421000004,3,1.628999949,1,0,1200,200,1,1199,preach,11142,2019-10-21_18h02.03.693,SurveyExpMetaMem,3.2.3,Win32,60
,,,,,,,,,,,,,,,,,,,,5,2.690000057,5,1.02300024,1,0,1200,3,1,1199,nudist,11142,2019-10-21_18h02.03.693,SurveyExpMetaMem,3.2.3,Win32,60
,,,,,,,,,,,,,,,,,,,,8,2.120000124,8,1.212000132,1,0,1200,206,1,1199,comet,11142,2019-10-21_18h02.03.693,SurveyExpMetaMem,3.2.3,Win32,60
,,,,,,,,,,,,,,,,,,,,3,13.8670001,4,3.490000248,1,0,1200,403,1,1199,wither,11142,2019-10-21_18h02.03.693,SurveyExpMetaMem,3.2.3,Win32,60
,,,,,,,,,,,,,,,,,,,,2,2.578000069,5,3.471999884,1,0,1200,770,1,1199,buffalo,11142,2019-10-21_18h02.03.693,SurveyExpMetaMem,3.2.3,Win32,60
,,,,,,,,,,,,,,,,,,,,5,3.447000027,8,1.906000137,1,0,1200,179,1,1199,star,11142,2019-10-21_18h02.03.693,SurveyExpMetaMem,3.2.3,Win32,60
,,,,,,,,,,,,,,,,,,,,8,2.769000053,2,2.305000067,1,0,1200,1119,1,1199,confusion,11142,2019-10-21_18h02.03.693,SurveyExpMetaMem,3.2.3,Win32,60
,,,,,,,,,,,,,,,,,,,,5,1.504000187,5,0.897000074,1,0,1200,767,1,1199,civil,11142,2019-10-21_18h02.03.693,SurveyExpMetaMem,3.2.3,Win32,60
,,,,,,,,,,,,,,,,,,,,1,5.492000103,9,2.454999924,1,0,1200,896,1,1199,cuddle,11142,2019-10-21_18h02.03.693,SurveyExpMetaMem,3.2.3,Win32,60
,,,,,,,,,,,,,,,,,,,,5,6.269999981,6,2.072000027,1,0,1200,669,1,1199,plaza,11142,2019-10-21_18h02.03.693,SurveyExpMetaMem,3.2.3,Win32,60
,,,,,,,,,,,,,,,,,,,,2,2.374000072,5,1.799000025,1,0,1200,529,1,1199,small,11142,2019-10-21_18h02.03.693,SurveyExpMetaMem,3.2.3,Win32,60
,,,,,,,,,,,,,,,,,,,,2,2.187000275,8,1.755000114,1,0,1200,817,1,1199,countryside,11142,2019-10-21_18h02.03.693,SurveyExpMetaMem,3.2.3,Win32,60
,,,,,,,,,,,,,,,,,,,,1,5.239000082,1,2.522000074,1,0,1200,401,1,1199,feeble,11142,2019-10-21_18h02.03.693,SurveyExpMetaMem,3.2.3,Win32,60
,,,,,,,,,,,,,,,,,,,,2,2.577000141,5,2.492000103,1,0,1200,794,1,1199,pray,11142,2019-10-21_18h02.03.693,SurveyExpMetaMem,3.2.3,Win32,60
,,,,,,,,,,,,,,,,,,,,8,2.072999954,2,1.25600028,1,0,1200,1108,1,1199,spider,11142,2019-10-21_18h02.03.693,SurveyExpMetaMem,3.2.3,Win32,60
,,,,,,,,,,,,,,,,,,,,8,1.625,8,0.823000193,1,0,1200,657,1,1199,peanut,11142,2019-10-21_18h02.03.693,SurveyExpMetaMem,3.2.3,Win32,60
,,,,,,,,,,,,,,,,,,,,8,3.137000084,1,0.753000021,1,0,1200,494,1,1199,butcher,11142,2019-10-21_18h02.03.693,SurveyExpMetaMem,3.2.3,Win32,60
,,,,,,,,,,,,,,,,,,,,5,3.170000076,9,1.022000074,1,0,1200,886,1,1199,sunflower,11142,2019-10-21_18h02.03.693,SurveyExpMetaMem,3.2.3,Win32,60
,,,,,,,,,,,,,,,,,,,,8,1.774000168,8,2.22300005,1,0,1200,97,1,1199,enthusiastic,11142,2019-10-21_18h02.03.693,SurveyExpMetaMem,3.2.3,Win32,60
,,,,,,,,,,,,,,,,,,,,9,6.80700016,7,3.348999977,1,0,1200,49,1,1199,ecstatic,11142,2019-10-21_18h02.03.693,SurveyExpMetaMem,3.2.3,Win32,60
,,,,,,,,,,,,,,,,,,,,4,2.571000099,8,1.688000202,1,0,1200,202,1,1199,mercy,11142,2019-10-21_18h02.03.693,SurveyExpMetaMem,3.2.3,Win32,60
,,,,,,,,,,,,,,,,,,,,7,13.03200006,2,2.769000053,1,0,1200,1017,1,1199,aggravated,11142,2019-10-21_18h02.03.693,SurveyExpMetaMem,3.2.3,Win32,60
,,,,,,,,,,,,,,,,,,,,8,2.582000017,1,2.028000116,1,0,1200,1087,1,1199,affair,11142,2019-10-21_18h02.03.693,SurveyExpMetaMem,3.2.3,Win32,60
,,,,,,,,,,,,,,,,,,,,7,10.86400008,2,1.120000124,1,0,1200,1020,1,1199,malice,11142,2019-10-21_18h02.03.693,SurveyExpMetaMem,3.2.3,Win32,60
,,,,,,,,,,,,,,,,,,,,8,2.362000227,8,0.675000191,1,0,1200,37,1,1199,magnificence,11142,2019-10-21_18h02.03.693,SurveyExpMetaMem,3.2.3,Win32,60
,,,,,,,,,,,,,,,,,,,,9,1.937000036,9,0.770999908,1,0,1200,184,1,1199,surprised,11142,2019-10-21_18h02.03.693,SurveyExpMetaMem,3.2.3,Win32,60
,,,,,,,,,,,,,,,,,,,,2,3.99000001,7,1.271000147,1,0,1200,643,1,1199,library,11142,2019-10-21_18h02.03.693,SurveyExpMetaMem,3.2.3,Win32,60
,,,,,,,,,,,,,,,,,,,,2,8.236999989,3,2.488000154,1,0,1200,349,1,1199,mope,11142,2019-10-21_18h02.03.693,SurveyExpMetaMem,3.2.3,Win32,60
,,,,,,,,,,,,,,,,,,,,8,7.13499999,2,4.44900012,1,0,1200,1105,1,1199,flee,11142,2019-10-21_18h02.03.693,SurveyExpMetaMem,3.2.3,Win32,60
,,,,,,,,,,,,,,,,,,,,5,2.857000113,3,1.694000244,1,0,1200,635,1,1199,sensitive,11142,2019-10-21_18h02.03.693,SurveyExpMetaMem,3.2.3,Win32,60
,,,,,,,,,,,,,,,,,,,,5,6.295000315,5,0.59100008,1,0,1200,556,1,1199,allege,11142,2019-10-21_18h02.03.693,SurveyExpMetaMem,3.2.3,Win32,60
,,,,,,,,,,,,,,,,,,,,8,2.045000315,8,0.781000137,1,0,1200,111,1,1199,band,11142,2019-10-21_18h02.03.693,SurveyExpMetaMem,3.2.3,Win32,60
,,,,,,,,,,,,,,,,,,,,5,2.945000172,5,0.889000177,1,0,1200,579,1,1199,bus,11142,2019-10-21_18h02.03.693,SurveyExpMetaMem,3.2.3,Win32,60
,,,,,,,,,,,,,,,,,,,,8,1.769000292,7,2.187000036,1,0,1200,243,1,1199,fame,11142,2019-10-21_18h02.03.693,SurveyExpMetaMem,3.2.3,Win32,60
,,,,,,,,,,,,,,,,,,,,7,3.462000132,8,2.260000229,1,0,1200,68,1,1199,perfect,11142,2019-10-21_18h02.03.693,SurveyExpMetaMem,3.2.3,Win32,60
,,,,,,,,,,,,,,,,,,,,5,3.713000298,5,1.226000071,1,0,1200,695,1,1199,teacher,11142,2019-10-21_18h02.03.693,SurveyExpMetaMem,3.2.3,Win32,60
,,,,,,,,,,,,,,,,,,,,7,1.505000114,8,0.881999969,1,0,1200,84,1,1199,eat,11142,2019-10-21_18h02.03.693,SurveyExpMetaMem,3.2.3,Win32,60
,,,,,,,,,,,,,,,,,,,,9,8.058000088,1,0.81400013,1,0,1200,1153,1,1199,mangle,11142,2019-10-21_18h02.03.693,SurveyExpMetaMem,3.2.3,Win32,60
,,,,,,,,,,,,,,,,,,,,9,3.687000275,9,1.522000074,1,0,1200,38,1,1199,cheeseburger,11142,2019-10-21_18h02.03.693,SurveyExpMetaMem,3.2.3,Win32,60
,,,,,,,,,,,,,,,,,,,,6,3.661000252,6,2.103000164,1,0,1200,684,1,1199,send,11142,2019-10-21_18h02.03.693,SurveyExpMetaMem,3.2.3,Win32,60
,,,,,,,,,,,,,,,,,,,,8,2.135000229,8,0.730999947,1,0,1200,172,1,1199,potential,11142,2019-10-21_18h02.03.693,SurveyExpMetaMem,3.2.3,Win32,60
,,,,,,,,,,,,,,,,,,,,7,3.209000111,2,1.042000294,1,0,1200,430,1,1199,cancel,11142,2019-10-21_18h02.03.693,SurveyExpMetaMem,3.2.3,Win32,60
,,,,,,,,,,,,,,,,,,,,8,1.646000147,1,0.874000072,1,0,1200,1171,1,1199,chaos,11142,2019-10-21_18h02.03.693,SurveyExpMetaMem,3.2.3,Win32,60
,,,,,,,,,,,,,,,,,,,,3,3.667999983,2,1.474999905,1,0,1200,1080,1,1199,broken,11142,2019-10-21_18h02.03.693,SurveyExpMetaMem,3.2.3,Win32,60
,,,,,,,,,,,,,,,,,,,,5,1.5400002,5,0.887000084,1,0,1200,709,1,1199,ancestor,11142,2019-10-21_18h02.03.693,SurveyExpMetaMem,3.2.3,Win32,60
,,,,,,,,,,,,,,,,,,,,7,2.095000267,2,2.950000048,1,0,1200,923,1,1199,punish,11142,2019-10-21_18h02.03.693,SurveyExpMetaMem,3.2.3,Win32,60
,,,,,,,,,,,,,,,,,,,,5,2.457000017,7,1.07400012,1,0,1200,266,1,1199,juice,11142,2019-10-21_18h02.03.693,SurveyExpMetaMem,3.2.3,Win32,60
,,,,,,,,,,,,,,,,,,,,5,3.654999971,6,0.854000092,1,0,1200,731,1,1199,decency,11142,2019-10-21_18h02.03.693,SurveyExpMetaMem,3.2.3,Win32,60
,,,,,,,,,,,,,,,,,,,,8,5.068000078,8,0.813000202,1,0,1200,66,1,1199,zest,11142,2019-10-21_18h02.03.693,SurveyExpMetaMem,3.2.3,Win32,60
,,,,,,,,,,,,,,,,,,,,5,2.633000135,5,2.805000067,1,0,1200,1146,1,1199,bug,11142,2019-10-21_18h02.03.693,SurveyExpMetaMem,3.2.3,Win32,60
,,,,,,,,,,,,,,,,,,,,6,3.585999966,7,1.075000048,1,0,1200,163,1,1199,gem,11142,2019-10-21_18h02.03.693,SurveyExpMetaMem,3.2.3,Win32,60
,,,,,,,,,,,,,,,,,,,,8,1.544000149,6,1.963000059,1,0,1200,533,1,1199,busy,11142,2019-10-21_18h02.03.693,SurveyExpMetaMem,3.2.3,Win32,60
,,,,,,,,,,,,,,,,,,,,8,1.555000067,1,0.704999924,1,0,1200,949,1,1199,thief,11142,2019-10-21_18h02.03.693,SurveyExpMetaMem,3.2.3,Win32,60
,,,,,,,,,,,,,,,,,,,,8,6.322000027,1,1.043000221,1,0,1200,1190,1,1199,clench,11142,2019-10-21_18h02.03.693,SurveyExpMetaMem,3.2.3,Win32,60
,,,,,,,,,,,,,,,,,,,,2,9.47300005,8,1.265000105,1,0,1200,220,1,1199,reef,11142,2019-10-21_18h02.03.693,SurveyExpMetaMem,3.2.3,Win32,60
,,,,,,,,,,,,,,,,,,,,8,2.496999979,6,3.160000086,1,0,1200,1008,1,1199,gang,11142,2019-10-21_18h02.03.693,SurveyExpMetaMem,3.2.3,Win32,60
,,,,,,,,,,,,,,,,,,,,6,4.753000259,3,1.14199996,1,0,1200,350,1,1199,inadequate,11142,2019-10-21_18h02.03.693,SurveyExpMetaMem,3.2.3,Win32,60
,,,,,,,,,,,,,,,,,,,,8,1.446000099,1,0.512000322,1,0,1200,991,1,1199,harass,11142,2019-10-21_18h02.03.693,SurveyExpMetaMem,3.2.3,Win32,60
,,,,,,,,,,,,,,,,,,,,7,4.036000252,5,1.487000227,1,0,1200,593,1,1199,errand,11142,2019-10-21_18h02.03.693,SurveyExpMetaMem,3.2.3,Win32,60
,,,,,,,,,,,,,,,,,,,,4,2.122999907,6,1.638999939,1,0,1200,829,1,1199,innocent,11142,2019-10-21_18h02.03.693,SurveyExpMetaMem,3.2.3,Win32,60
,,,,,,,,,,,,,,,,,,,,8,6.59100008,4,1.889000177,1,0,1200,1082,1,1199,hazard,11142,2019-10-21_18h02.03.693,SurveyExpMetaMem,3.2.3,Win32,60
,,,,,,,,,,,,,,,,,,,,5,2.779999971,4,1.162000179,1,0,1200,499,1,1199,stop,11142,2019-10-21_18h02.03.693,SurveyExpMetaMem,3.2.3,Win32,60
,,,,,,,,,,,,,,,,,,,,5,2.101000309,5,0.812000036,1,0,1200,761,1,1199,corn,11142,2019-10-21_18h02.03.693,SurveyExpMetaMem,3.2.3,Win32,60
,,,,,,,,,,,,,,,,,,,,5,2.103000164,6,1.305000305,1,0,1200,740,1,1199,groceries,11142,2019-10-21_18h02.03.693,SurveyExpMetaMem,3.2.3,Win32,60
,,,,,,,,,,,,,,,,,,,,5,2.687000036,5,0.773000002,1,0,1200,526,1,1199,dry,11142,2019-10-21_18h02.03.693,SurveyExpMetaMem,3.2.3,Win32,60
,,,,,,,,,,,,,,,,,,,,7,1.536999941,7,1.539999962,1,0,1200,153,1,1199,teach,11142,2019-10-21_18h02.03.693,SurveyExpMetaMem,3.2.3,Win32,60
,,,,,,,,,,,,,,,,,,,,4,2.07400012,5,2.106000185,1,0,1200,259,1,1199,thin,11142,2019-10-21_18h02.03.693,SurveyExpMetaMem,3.2.3,Win32,60
,,,,,,,,,,,,,,,,,,,,8,9.087000132,2,3.221000195,1,0,1200,1029,1,1199,abduction,11142,2019-10-21_18h02.03.693,SurveyExpMetaMem,3.2.3,Win32,60
,,,,,,,,,,,,,,,,,,,,9,1.555999994,1,0.803999901,1,0,1200,1185,1,1199,shotgun,11142,2019-10-21_18h02.03.693,SurveyExpMetaMem,3.2.3,Win32,60
,,,,,,,,,,,,,,,,,,,,8,3.521000147,2,1.058000088,1,0,1200,1092,1,1199,rattlesnake,11142,2019-10-21_18h02.03.693,SurveyExpMetaMem,3.2.3,Win32,60
,,,,,,,,,,,,,,,,,,,,9,2.0400002,2,2.005000114,1,0,1200,1097,1,1199,bees,11142,2019-10-21_18h02.03.693,SurveyExpMetaMem,3.2.3,Win32,60
,,,,,,,,,,,,,,,,,,,,4,9.279000044,5,0.828000069,1,0,1200,462,1,1199,shallow,11142,2019-10-21_18h02.03.693,SurveyExpMetaMem,3.2.3,Win32,60
,,,,,,,,,,,,,,,,,,,,8,7.872000217,8,0.178000212,1,0,1200,133,1,1199,prosperous,11142,2019-10-21_18h02.03.693,SurveyExpMetaMem,3.2.3,Win32,60
,,,,,,,,,,,,,,,,,,,,5,2.520000219,5,4.305000067,1,0,1200,395,1,1199,lack,11142,2019-10-21_18h02.03.693,SurveyExpMetaMem,3.2.3,Win32,60
,,,,,,,,,,,,,,,,,,,,8,4.404999971,1,0.792000055,1,0,1200,926,1,1199,dead,11142,2019-10-21_18h02.03.693,SurveyExpMetaMem,3.2.3,Win32,60
,,,,,,,,,,,,,,,,,,,,9,1.853000164,1,0.927000046,1,0,1200,1063,1,1199,quarrel,11142,2019-10-21_18h02.03.693,SurveyExpMetaMem,3.2.3,Win32,60
,,,,,,,,,,,,,,,,,,,,8,1.917999983,1,1.101000309,1,0,1200,1169,1,1199,enforcement,11142,2019-10-21_18h02.03.693,SurveyExpMetaMem,3.2.3,Win32,60
,,,,,,,,,,,,,,,,,,,,7,1.901000023,2,1.009000063,1,0,1200,927,1,1199,jail,11142,2019-10-21_18h02.03.693,SurveyExpMetaMem,3.2.3,Win32,60
,,,,,,,,,,,,,,,,,,,,4,11.50200009,3,1.225000143,1,0,1200,489,1,1199,timid,11142,2019-10-21_18h02.03.693,SurveyExpMetaMem,3.2.3,Win32,60
,,,,,,,,,,,,,,,,,,,,5,2.174999952,5,2.305999994,1,0,1200,89,1,1199,cruiseship,11142,2019-10-21_18h02.03.693,SurveyExpMetaMem,3.2.3,Win32,60
,,,,,,,,,,,,,,,,,,,,5,1.880000114,5,0.413000107,1,0,1200,598,1,1199,feet,11142,2019-10-21_18h02.03.693,SurveyExpMetaMem,3.2.3,Win32,60
,,,,,,,,,,,,,,,,,,,,8,1.565000057,2,0.337000132,1,0,1200,1042,1,1199,brutal,11142,2019-10-21_18h02.03.693,SurveyExpMetaMem,3.2.3,Win32,60
,,,,,,,,,,,,,,,,,,,,5,2.72300005,5,0.181000233,1,0,1200,434,1,1199,frail,11142,2019-10-21_18h02.03.693,SurveyExpMetaMem,3.2.3,Win32,60
,,,,,,,,,,,,,,,,,,,,9,1.670000076,8,1.279000044,1,0,1200,58,1,1199,boost,11142,2019-10-21_18h02.03.693,SurveyExpMetaMem,3.2.3,Win32,60
,,,,,,,,,,,,,,,,,,,,2,3.050000191,7,1.436000109,1,0,1200,743,1,1199,herbal,11142,2019-10-21_18h02.03.693,SurveyExpMetaMem,3.2.3,Win32,60
,,,,,,,,,,,,,,,,,,,,5,1.741000175,5,0.594000101,1,0,1200,554,1,1199,label,11142,2019-10-21_18h02.03.693,SurveyExpMetaMem,3.2.3,Win32,60
,,,,,,,,,,,,,,,,,,,,5,2.371999979,2,1.377000093,1,0,1200,20,1,1199,climax,11142,2019-10-21_18h02.03.693,SurveyExpMetaMem,3.2.3,Win32,60
,,,,,,,,,,,,,,,,,,,,6,1.786000252,7,1.272000074,1,0,1200,65,1,1199,restaurant,11142,2019-10-21_18h02.03.693,SurveyExpMetaMem,3.2.3,Win32,60
,,,,,,,,,,,,,,,,,,,,9,2.453000069,9,0.641000032,1,0,1200,41,1,1199,progress,11142,2019-10-21_18h02.03.693,SurveyExpMetaMem,3.2.3,Win32,60
,,,,,,,,,,,,,,,,,,,,6,2.128999949,5,1.338999987,1,0,1200,642,1,1199,newspaper,11142,2019-10-21_18h02.03.693,SurveyExpMetaMem,3.2.3,Win32,60
,,,,,,,,,,,,,,,,,,,,3,5.049000025,7,4.164000034,1,0,1200,711,1,1199,sympathetic,11142,2019-10-21_18h02.03.693,SurveyExpMetaMem,3.2.3,Win32,60
,,,,,,,,,,,,,,,,,,,,6,2.752000093,1,1.100000143,1,0,1200,429,1,1199,cough,11142,2019-10-21_18h02.03.693,SurveyExpMetaMem,3.2.3,Win32,60
,,,,,,,,,,,,,,,,,,,,6,2.929000139,2,0.794000149,1,0,1200,390,1,1199,impair,11142,2019-10-21_18h02.03.693,SurveyExpMetaMem,3.2.3,Win32,60
,,,,,,,,,,,,,,,,,,,,8,7.305000067,2,0.899000168,1,0,1200,155,1,1199,ignite,11142,2019-10-21_18h02.03.693,SurveyExpMetaMem,3.2.3,Win32,60
,,,,,,,,,,,,,,,,,,,,6,3.787000179,5,2.178999901,1,0,1200,476,1,1199,warden,11142,2019-10-21_18h02.03.693,SurveyExpMetaMem,3.2.3,Win32,60
,,,,,,,,,,,,,,,,,,,,8,1.453000069,8,0.493999958,1,0,1200,117,1,1199,powerful,11142,2019-10-21_18h02.03.693,SurveyExpMetaMem,3.2.3,Win32,60
,,,,,,,,,,,,,,,,,,,,9,1.429000139,9,0.524000168,1,0,1200,275,1,1199,brilliant,11142,2019-10-21_18h02.03.693,SurveyExpMetaMem,3.2.3,Win32,60
,,,,,,,,,,,,,,,,,,,,5,3.269999981,2,0.703999996,1,0,1200,396,1,1199,unpopular,11142,2019-10-21_18h02.03.693,SurveyExpMetaMem,3.2.3,Win32,60
,,,,,,,,,,,,,,,,,,,,6,2.27699995,2,1.090000153,1,0,1200,482,1,1199,cell,11142,2019-10-21_18h02.03.693,SurveyExpMetaMem,3.2.3,Win32,60
,,,,,,,,,,,,,,,,,,,,2,3.044000149,9,0.680999994,1,0,1200,839,1,1199,flower,11142,2019-10-21_18h02.03.693,SurveyExpMetaMem,3.2.3,Win32,60
,,,,,,,,,,,,,,,,,,,,6,5.354000092,2,1.973999977,1,0,1200,474,1,1199,weary,11142,2019-10-21_18h02.03.693,SurveyExpMetaMem,3.2.3,Win32,60
,,,,,,,,,,,,,,,,,,,,4,2.255000114,9,1.621999979,1,0,1200,641,1,1199,writer,11142,2019-10-21_18h02.03.693,SurveyExpMetaMem,3.2.3,Win32,60
,,,,,,,,,,,,,,,,,,,,6,5.180000067,2,7.094000101,1,0,1200,366,1,1199,fatigue,11142,2019-10-21_18h02.03.693,SurveyExpMetaMem,3.2.3,Win32,60
,,,,,,,,,,,,,,,,,,,,1,2.764000177,3,1.463000059,1,0,1200,561,1,1199,plain,11142,2019-10-21_18h02.03.693,SurveyExpMetaMem,3.2.3,Win32,60
,,,,,,,,,,,,,,,,,,,,2,1.987000227,7,1.322999954,1,0,1200,724,1,1199,owl,11142,2019-10-21_18h02.03.693,SurveyExpMetaMem,3.2.3,Win32,60
,,,,,,,,,,,,,,,,,,,,7,5.120000124,9,1.462000132,1,0,1200,29,1,1199,life,11142,2019-10-21_18h02.03.693,SurveyExpMetaMem,3.2.3,Win32,60
,,,,,,,,,,,,,,,,,,,,5,4.691000223,7,1.997000217,1,0,1200,674,1,1199,fitting,11142,2019-10-21_18h02.03.693,SurveyExpMetaMem,3.2.3,Win32,60
,,,,,,,,,,,,,,,,,,,,6,4.460999966,2,1.840000153,1,0,1200,333,1,1199,weak,11142,2019-10-21_18h02.03.693,SurveyExpMetaMem,3.2.3,Win32,60
,,,,,,,,,,,,,,,,,,,,7,3.02699995,2,0.709000111,1,0,1200,1168,1,1199,financial,11142,2019-10-21_18h02.03.693,SurveyExpMetaMem,3.2.3,Win32,60
,,,,,,,,,,,,,,,,,,,,8,4.507000208,1,0.703999996,1,0,1200,308,1,1199,worthless,11142,2019-10-21_18h02.03.693,SurveyExpMetaMem,3.2.3,Win32,60
,,,,,,,,,,,,,,,,,,,,9,1.543000221,1,0.911000013,1,0,1200,1027,1,1199,criticism,11142,2019-10-21_18h02.03.693,SurveyExpMetaMem,3.2.3,Win32,60
,,,,,,,,,,,,,,,,,,,,5,2.004000187,5,1,1,0,1200,594,1,1199,moss,11142,2019-10-21_18h02.03.693,SurveyExpMetaMem,3.2.3,Win32,60
,,,,,,,,,,,,,,,,,,,,5,2.830000162,5,0.703000069,1,0,1200,708,1,1199,nursery,11142,2019-10-21_18h02.03.693,SurveyExpMetaMem,3.2.3,Win32,60
,,,,,,,,,,,,,,,,,,,,7,11.05500007,2,0.723999977,1,0,1200,994,1,1199,repulsed,11142,2019-10-21_18h02.03.693,SurveyExpMetaMem,3.2.3,Win32,60
,,,,,,,,,,,,,,,,,,,,7,2.18900013,2,0.789000034,1,0,1200,1179,1,1199,nerves,11142,2019-10-21_18h02.03.693,SurveyExpMetaMem,3.2.3,Win32,60
,,,,,,,,,,,,,,,,,,,,3,2.930999994,1,2.018000126,1,0,1200,359,1,1199,bored,11142,2019-10-21_18h02.03.693,SurveyExpMetaMem,3.2.3,Win32,60
,,,,,,,,,,,,,,,,,,,,8,2.377000093,8,0.209000111,1,0,1200,195,1,1199,laughing,11142,2019-10-21_18h02.03.693,SurveyExpMetaMem,3.2.3,Win32,60
,,,,,,,,,,,,,,,,,,,,9,1.361000061,9,0.183000088,1,0,1200,32,1,1199,festival,11142,2019-10-21_18h02.03.693,SurveyExpMetaMem,3.2.3,Win32,60
,,,,,,,,,,,,,,,,,,,,8,1.555000067,1,0.529999971,1,0,1200,1004,1,1199,burglar,11142,2019-10-21_18h02.03.693,SurveyExpMetaMem,3.2.3,Win32,60
,,,,,,,,,,,,,,,,,,,,5,1.555999994,5,0.157999992,1,0,1200,609,1,1199,candlestick,11142,2019-10-21_18h02.03.693,SurveyExpMetaMem,3.2.3,Win32,60
,,,,,,,,,,,,,,,,,,,,9,3.09800005,1,1.107000113,1,0,1200,903,1,1199,cancer,11142,2019-10-21_18h02.03.693,SurveyExpMetaMem,3.2.3,Win32,60
,,,,,,,,,,,,,,,,,,,,8,1.526000023,1,1.357000113,1,0,1200,1161,1,1199,shock,11142,2019-10-21_18h02.03.693,SurveyExpMetaMem,3.2.3,Win32,60
,,,,,,,,,,,,,,,,,,,,5,9.805999994,5,0.688000202,1,0,1200,503,1,1199,sludge,11142,2019-10-21_18h02.03.693,SurveyExpMetaMem,3.2.3,Win32,60
,,,,,,,,,,,,,,,,,,,,7,2.099000216,7,0.548000097,1,0,1200,131,1,1199,treat,11142,2019-10-21_18h02.03.693,SurveyExpMetaMem,3.2.3,Win32,60
,,,,,,,,,,,,,,,,,,,,8,7.63100028,2,1.499000072,1,0,1200,981,1,1199,rage,11142,2019-10-21_18h02.03.693,SurveyExpMetaMem,3.2.3,Win32,60
,,,,,,,,,,,,,,,,,,,,6,7.753000021,2,0.983999968,1,0,1200,475,1,1199,nameless,11142,2019-10-21_18h02.03.693,SurveyExpMetaMem,3.2.3,Win32,60
,,,,,,,,,,,,,,,,,,,,7,2.054000139,7,1.005000114,1,0,1200,83,1,1199,appreciative,11142,2019-10-21_18h02.03.693,SurveyExpMetaMem,3.2.3,Win32,60
,,,,,,,,,,,,,,,,,,,,7,1.67200017,2,0.604000092,1,0,1200,1110,1,1199,bastard,11142,2019-10-21_18h02.03.693,SurveyExpMetaMem,3.2.3,Win32,60
,,,,,,,,,,,,,,,,,,,,6,3.904000044,3,0.739000082,1,0,1200,422,1,1199,doubtful,11142,2019-10-21_18h02.03.693,SurveyExpMetaMem,3.2.3,Win32,60
,,,,,,,,,,,,,,,,,,,,5,1.237000227,5,0.226000071,1,0,1200,766,1,1199,flag,11142,2019-10-21_18h02.03.693,SurveyExpMetaMem,3.2.3,Win32,60
,,,,,,,,,,,,,,,,,,,,7,2.143000126,7,0.577000141,1,0,1200,726,1,1199,crackers,11142,2019-10-21_18h02.03.693,SurveyExpMetaMem,3.2.3,Win32,60
,,,,,,,,,,,,,,,,,,,,3,2.696000099,6,2.24000001,1,0,1200,481,1,1199,melancholy,11142,2019-10-21_18h02.03.693,SurveyExpMetaMem,3.2.3,Win32,60
,,,,,,,,,,,,,,,,,,,,5,1.887000084,5,0.772000074,1,0,1200,1145,1,1199,officer,11142,2019-10-21_18h02.03.693,SurveyExpMetaMem,3.2.3,Win32,60
,,,,,,,,,,,,,,,,,,,,8,2.271000147,8,1.211000204,1,0,1200,15,1,1199,curiosity,11142,2019-10-21_18h02.03.693,SurveyExpMetaMem,3.2.3,Win32,60
,,,,,,,,,,,,,,,,,,,,7,10.23399997,1,0.421000004,1,0,1200,452,1,1199,scapegoat,11142,2019-10-21_18h02.03.693,SurveyExpMetaMem,3.2.3,Win32,60
,,,,,,,,,,,,,,,,,,,,8,1.421999931,7,1.99000001,1,0,1200,1099,1,1199,fire,11142,2019-10-21_18h02.03.693,SurveyExpMetaMem,3.2.3,Win32,60
,,,,,,,,,,,,,,,,,,,,5,1.926000118,5,1.013999939,1,0,1200,623,1,1199,suburban,11142,2019-10-21_18h02.03.693,SurveyExpMetaMem,3.2.3,Win32,60
,,,,,,,,,,,,,,,,,,,,5,7.61500001,2,0.860000134,1,0,1200,388,1,1199,mildew,11142,2019-10-21_18h02.03.693,SurveyExpMetaMem,3.2.3,Win32,60
,,,,,,,,,,,,,,,,,,,,8,1.54700017,1,0.529000044,1,0,1200,1001,1,1199,rude,11142,2019-10-21_18h02.03.693,SurveyExpMetaMem,3.2.3,Win32,60
,,,,,,,,,,,,,,,,,,,,6,2.368999958,7,0.921000004,1,0,1200,262,1,1199,athletics,11142,2019-10-21_18h02.03.693,SurveyExpMetaMem,3.2.3,Win32,60
,,,,,,,,,,,,,,,,,,,,7,2.761000156,2,0.707000017,1,0,1200,364,1,1199,stink,11142,2019-10-21_18h02.03.693,SurveyExpMetaMem,3.2.3,Win32,60
,,,,,,,,,,,,,,,,,,,,6,3.179000139,1,0.542000055,1,0,1200,444,1,1199,mold,11142,2019-10-21_18h02.03.693,SurveyExpMetaMem,3.2.3,Win32,60
,,,,,,,,,,,,,,,,,,,,8,1.602999926,8,1.157000303,1,0,1200,121,1,1199,self,11142,2019-10-21_18h02.03.693,SurveyExpMetaMem,3.2.3,Win32,60
,,,,,,,,,,,,,,,,,,,,9,1.263999939,9,0.387000084,1,0,1200,291,1,1199,fantastic,11142,2019-10-21_18h02.03.693,SurveyExpMetaMem,3.2.3,Win32,60
,,,,,,,,,,,,,,,,,,,,8,1.545000076,1,0.454999924,1,0,1200,939,1,1199,vomit,11142,2019-10-21_18h02.03.693,SurveyExpMetaMem,3.2.3,Win32,60
,,,,,,,,,,,,,,,,,,,,7,2.821000099,9,1.405999899,1,0,1200,139,1,1199,generosity,11142,2019-10-21_18h02.03.693,SurveyExpMetaMem,3.2.3,Win32,60
,,,,,,,,,,,,,,,,,,,,8,3.387000084,9,0.795000076,1,0,1200,21,1,1199,game,11142,2019-10-21_18h02.03.693,SurveyExpMetaMem,3.2.3,Win32,60
,,,,,,,,,,,,,,,,,,,,3,2.570000172,5,1.11500001,1,0,1200,671,1,1199,windmill,11142,2019-10-21_18h02.03.693,SurveyExpMetaMem,3.2.3,Win32,60
,,,,,,,,,,,,,,,,,,,,7,1.470000029,5,0.980000257,1,0,1200,558,1,1199,punk,11142,2019-10-21_18h02.03.693,SurveyExpMetaMem,3.2.3,Win32,60
,,,,,,,,,,,,,,,,,,,,7,4.227999926,2,0.491000175,1,0,1200,479,1,1199,period,11142,2019-10-21_18h02.03.693,SurveyExpMetaMem,3.2.3,Win32,60
,,,,,,,,,,,,,,,,,,,,7,4.654000044,4,1.26699996,1,0,1200,990,1,1199,enraged,11142,2019-10-21_18h02.03.693,SurveyExpMetaMem,3.2.3,Win32,60
,,,,,,,,,,,,,,,,,,,,1,3.190000057,8,1.315000057,1,0,1200,844,1,1199,soul,11142,2019-10-21_18h02.03.693,SurveyExpMetaMem,3.2.3,Win32,60
,,,,,,,,,,,,,,,,,,,,9,1.487000227,1,0.77300024,1,0,1200,1011,1,1199,robber,11142,2019-10-21_18h02.03.693,SurveyExpMetaMem,3.2.3,Win32,60
,,,,,,,,,,,,,,,,,,,,8,2.686000109,9,1.076000214,1,0,1200,35,1,1199,bright,11142,2019-10-21_18h02.03.693,SurveyExpMetaMem,3.2.3,Win32,60
,,,,,,,,,,,,,,,,,,,,8,1.633000135,1,0.805000067,1,0,1200,978,1,1199,starving,11142,2019-10-21_18h02.03.693,SurveyExpMetaMem,3.2.3,Win32,60
,,,,,,,,,,,,,,,,,,,,9,3.430000067,9,0.421000242,1,0,1200,160,1,1199,reunion,11142,2019-10-21_18h02.03.693,SurveyExpMetaMem,3.2.3,Win32,60
,,,,,,,,,,,,,,,,,,,,7,2.302000046,7,1.222000122,1,0,1200,211,1,1199,surfer,11142,2019-10-21_18h02.03.693,SurveyExpMetaMem,3.2.3,Win32,60
,,,,,,,,,,,,,,,,,,,,2,2.40899992,1,0.479000092,1,0,1200,454,1,1199,damp,11142,2019-10-21_18h02.03.693,SurveyExpMetaMem,3.2.3,Win32,60
,,,,,,,,,,,,,,,,,,,,9,2.05700016,9,0.45600009,1,0,1200,73,1,1199,rhythm,11142,2019-10-21_18h02.03.693,SurveyExpMetaMem,3.2.3,Win32,60
,,,,,,,,,,,,,,,,,,,,8,1.55700016,8,1.522000074,1,0,1200,106,1,1199,voyage,11142,2019-10-21_18h02.03.693,SurveyExpMetaMem,3.2.3,Win32,60
,,,,,,,,,,,,,,,,,,,,8,1.604000092,1,0.864000082,1,0,1200,424,1,1199,fault,11142,2019-10-21_18h02.03.693,SurveyExpMetaMem,3.2.3,Win32,60
,,,,,,,,,,,,,,,,,,,,7,3.65899992,7,1.183000088,1,0,1200,846,1,1199,able,11142,2019-10-21_18h02.03.693,SurveyExpMetaMem,3.2.3,Win32,60
,,,,,,,,,,,,,,,,,,,,2,2.329000235,7,2.88499999,1,0,1200,850,1,1199,lake,11142,2019-10-21_18h02.03.693,SurveyExpMetaMem,3.2.3,Win32,60
,,,,,,,,,,,,,,,,,,,,3,1.920000076,8,1.809000015,1,0,1200,881,1,1199,protected,11142,2019-10-21_18h02.03.693,SurveyExpMetaMem,3.2.3,Win32,60
,,,,,,,,,,,,,,,,,,,,3,4.106000185,6,1.117000103,1,0,1200,822,1,1199,clearer,11142,2019-10-21_18h02.03.693,SurveyExpMetaMem,3.2.3,Win32,60
,,,,,,,,,,,,,,,,,,,,8,2.148000002,8,0.634000063,1,0,1200,227,1,1199,musician,11142,2019-10-21_18h02.03.693,SurveyExpMetaMem,3.2.3,Win32,60
,,,,,,,,,,,,,,,,,,,,9,1.713000298,9,2.236999989,1,0,1200,294,1,1199,confident,11142,2019-10-21_18h02.03.693,SurveyExpMetaMem,3.2.3,Win32,60
,,,,,,,,,,,,,,,,,,,,4,6.393000126,5,1.916000128,1,0,1200,757,1,1199,sentiment,11142,2019-10-21_18h02.03.693,SurveyExpMetaMem,3.2.3,Win32,60
,,,,,,,,,,,,,,,,,,,,8,1.457000017,2,0.955000162,1,0,1200,1058,1,1199,bloody,11142,2019-10-21_18h02.03.693,SurveyExpMetaMem,3.2.3,Win32,60
,,,,,,,,,,,,,,,,,,,,9,3.104000092,1,0.789000034,1,0,1200,1101,1,1199,scary,11142,2019-10-21_18h02.03.693,SurveyExpMetaMem,3.2.3,Win32,60
,,,,,,,,,,,,,,,,,,,,9,2.754000187,9,0.482000113,1,0,1200,94,1,1199,engaged,11142,2019-10-21_18h02.03.693,SurveyExpMetaMem,3.2.3,Win32,60
,,,,,,,,,,,,,,,,,,,,7,8.327000141,1,1.171000004,1,0,1200,543,1,1199,gloat,11142,2019-10-21_18h02.03.693,SurveyExpMetaMem,3.2.3,Win32,60
,,,,,,,,,,,,,,,,,,,,7,2.370000124,3,1.320000172,1,0,1200,132,1,1199,silly,11142,2019-10-21_18h02.03.693,SurveyExpMetaMem,3.2.3,Win32,60
,,,,,,,,,,,,,,,,,,,,7,1.808000088,1,0.679000139,1,0,1200,458,1,1199,refuse,11142,2019-10-21_18h02.03.693,SurveyExpMetaMem,3.2.3,Win32,60
,,,,,,,,,,,,,,,,,,,,2,2.855000019,8,0.985000134,1,0,1200,173,1,1199,hope,11142,2019-10-21_18h02.03.693,SurveyExpMetaMem,3.2.3,Win32,60
,,,,,,,,,,,,,,,,,,,,8,2.899000168,8,0.479000092,1,0,1200,782,1,1199,open,11142,2019-10-21_18h02.03.693,SurveyExpMetaMem,3.2.3,Win32,60
,,,,,,,,,,,,,,,,,,,,3,3.253000259,8,1.751000166,1,0,1200,614,1,1199,crossword,11142,2019-10-21_18h02.03.693,SurveyExpMetaMem,3.2.3,Win32,60
,,,,,,,,,,,,,,,,,,,,7,3.119000196,3,1.381999969,1,0,1200,1124,1,1199,seize,11142,2019-10-21_18h02.03.693,SurveyExpMetaMem,3.2.3,Win32,60
,,,,,,,,,,,,,,,,,,,,4,3.467000008,8,1.055000067,1,0,1200,860,1,1199,silk,11142,2019-10-21_18h02.03.693,SurveyExpMetaMem,3.2.3,Win32,60
,,,,,,,,,,,,,,,,,,,,9,2.953999996,1,1.344000101,1,0,1200,929,1,1199,mutilation,11142,2019-10-21_18h02.03.693,SurveyExpMetaMem,3.2.3,Win32,60
,,,,,,,,,,,,,,,,,,,,8,7.086000204,1,1.092999935,1,0,1200,435,1,1199,grovel,11142,2019-10-21_18h02.03.693,SurveyExpMetaMem,3.2.3,Win32,60
,,,,,,,,,,,,,,,,,,,,5,8.826999903,5,0.856000185,1,0,1200,493,1,1199,little,11142,2019-10-21_18h02.03.693,SurveyExpMetaMem,3.2.3,Win32,60
,,,,,,,,,,,,,,,,,,,,7,1.464000225,7,1.46600008,1,0,1200,52,1,1199,dare,11142,2019-10-21_18h02.03.693,SurveyExpMetaMem,3.2.3,Win32,60
,,,,,,,,,,,,,,,,,,,,5,1.761000156,5,0.823000193,1,0,1200,67,1,1199,penthouse,11142,2019-10-21_18h02.03.693,SurveyExpMetaMem,3.2.3,Win32,60
,,,,,,,,,,,,,,,,,,,,8,1.221999884,8,1.088999987,1,0,1200,224,1,1199,strengthen,11142,2019-10-21_18h02.03.693,SurveyExpMetaMem,3.2.3,Win32,60
,,,,,,,,,,,,,,,,,,,,8,1.513000011,5,0.986999989,1,0,1200,253,1,1199,soldier,11142,2019-10-21_18h02.03.693,SurveyExpMetaMem,3.2.3,Win32,60
,,,,,,,,,,,,,,,,,,,,8,1.428000212,9,0.56099987,1,0,1200,295,1,1199,passion,11142,2019-10-21_18h02.03.693,SurveyExpMetaMem,3.2.3,Win32,60
,,,,,,,,,,,,,,,,,,,,5,1.546999931,5,1.121999979,1,0,1200,320,1,1199,deformed,11142,2019-10-21_18h02.03.693,SurveyExpMetaMem,3.2.3,Win32,60
,,,,,,,,,,,,,,,,,,,,6,10.93200016,7,0.708999872,1,0,1200,568,1,1199,therapy,11142,2019-10-21_18h02.03.693,SurveyExpMetaMem,3.2.3,Win32,60
,,,,,,,,,,,,,,,,,,,,9,2.769999981,9,0.177000046,1,0,1200,28,1,1199,energy,11142,2019-10-21_18h02.03.693,SurveyExpMetaMem,3.2.3,Win32,60
,,,,,,,,,,,,,,,,,,,,6,3.493000031,9,1.334000111,1,0,1200,898,1,1199,kindness,11142,2019-10-21_18h02.03.693,SurveyExpMetaMem,3.2.3,Win32,60
,,,,,,,,,,,,,,,,,,,,8,3.755000114,7,2.93900013,1,0,1200,144,1,1199,aroused,11142,2019-10-21_18h02.03.693,SurveyExpMetaMem,3.2.3,Win32,60
,,,,,,,,,,,,,,,,,,,,8,3.622000217,7,3.161000252,1,0,1200,205,1,1199,outspoken,11142,2019-10-21_18h02.03.693,SurveyExpMetaMem,3.2.3,Win32,60
,,,,,,,,,,,,,,,,,,,,3,2.166000128,6,1.546999931,1,0,1200,813,1,1199,walking,11142,2019-10-21_18h02.03.693,SurveyExpMetaMem,3.2.3,Win32,60
,,,,,,,,,,,,,,,,,,,,5,2.243999958,5,0.687999964,1,0,1200,820,1,1199,oxygen,11142,2019-10-21_18h02.03.693,SurveyExpMetaMem,3.2.3,Win32,60
,,,,,,,,,,,,,,,,,,,,7,1.721000195,5,1.588000059,1,0,1200,50,1,1199,bolt,11142,2019-10-21_18h02.03.693,SurveyExpMetaMem,3.2.3,Win32,60
,,,,,,,,,,,,,,,,,,,,5,1.705000162,7,1.109000206,1,0,1200,34,1,1199,personality,11142,2019-10-21_18h02.03.693,SurveyExpMetaMem,3.2.3,Win32,60
,,,,,,,,,,,,,,,,,,,,1,2.676000118,1,2.088000059,1,0,1200,416,1,1199,boring,11142,2019-10-21_18h02.03.693,SurveyExpMetaMem,3.2.3,Win32,60
,,,,,,,,,,,,,,,,,,,,2,9.662000179,1,0.847000122,1,0,1200,368,1,1199,dreary,11142,2019-10-21_18h02.03.693,SurveyExpMetaMem,3.2.3,Win32,60
,,,,,,,,,,,,,,,,,,,,5,2.861999989,7,0.690000296,1,0,1200,814,1,1199,dress,11142,2019-10-21_18h02.03.693,SurveyExpMetaMem,3.2.3,Win32,60
,,,,,,,,,,,,,,,,,,,,6,1.72300005,7,0.590000153,1,0,1200,879,1,1199,bird,11142,2019-10-21_18h02.03.693,SurveyExpMetaMem,3.2.3,Win32,60
,,,,,,,,,,,,,,,,,,,,8,1.523000002,1,0.855000019,1,0,1200,958,1,1199,traitor,11142,2019-10-21_18h02.03.693,SurveyExpMetaMem,3.2.3,Win32,60
,,,,,,,,,,,,,,,,,,,,7,7.873000145,5,1.965000153,1,0,1200,1074,1,1199,detain,11142,2019-10-21_18h02.03.693,SurveyExpMetaMem,3.2.3,Win32,60
,,,,,,,,,,,,,,,,,,,,5,3.437999964,4,0.75999999,1,0,1200,381,1,1199,sloppy,11142,2019-10-21_18h02.03.693,SurveyExpMetaMem,3.2.3,Win32,60
,,,,,,,,,,,,,,,,,,,,9,1.471000195,9,0.424000025,1,0,1200,148,1,1199,victory,11142,2019-10-21_18h02.03.693,SurveyExpMetaMem,3.2.3,Win32,60
,,,,,,,,,,,,,,,,,,,,7,10.22000003,2,2.161999941,1,0,1200,599,1,1199,obstinate,11142,2019-10-21_18h02.03.693,SurveyExpMetaMem,3.2.3,Win32,60
,,,,,,,,,,,,,,,,,,,,8,1.303000212,1,1.321000099,1,0,1200,968,1,1199,insult,11142,2019-10-21_18h02.03.693,SurveyExpMetaMem,3.2.3,Win32,60
,,,,,,,,,,,,,,,,,,,,7,2.420000076,8,0.792999983,1,0,1200,834,1,1199,crown,11142,2019-10-21_18h02.03.693,SurveyExpMetaMem,3.2.3,Win32,60
,,,,,,,,,,,,,,,,,,,,3,2.828999996,7,0.792000055,1,0,1200,785,1,1199,pond,11142,2019-10-21_18h02.03.693,SurveyExpMetaMem,3.2.3,Win32,60
,,,,,,,,,,,,,,,,,,,,5,2.345000267,2,1.124000072,1,0,1200,530,1,1199,erase,11142,2019-10-21_18h02.03.693,SurveyExpMetaMem,3.2.3,Win32,60
,,,,,,,,,,,,,,,,,,,,8,1.355000257,2,1.170000076,1,0,1200,952,1,1199,troubled,11142,2019-10-21_18h02.03.693,SurveyExpMetaMem,3.2.3,Win32,60
,,,,,,,,,,,,,,,,,,,,3,2.872000217,7,0.971000195,1,0,1200,804,1,1199,peach,11142,2019-10-21_18h02.03.693,SurveyExpMetaMem,3.2.3,Win32,60
,,,,,,,,,,,,,,,,,,,,8,1.440000057,6,1.279999971,1,0,1200,269,1,1199,extravagant,11142,2019-10-21_18h02.03.693,SurveyExpMetaMem,3.2.3,Win32,60
,,,,,,,,,,,,,,,,,,,,8,1.832999945,9,1.071000099,1,0,1200,105,1,1199,curious,11142,2019-10-21_18h02.03.693,SurveyExpMetaMem,3.2.3,Win32,60
,,,,,,,,,,,,,,,,,,,,8,1.388000011,2,0.727000237,1,0,1200,1036,1,1199,anxiety,11142,2019-10-21_18h02.03.693,SurveyExpMetaMem,3.2.3,Win32,60
,,,,,,,,,,,,,,,,,,,,7,1.93900013,1,0.62100029,1,0,1200,736,1,1199,hawk,11142,2019-10-21_18h02.03.693,SurveyExpMetaMem,3.2.3,Win32,60
,,,,,,,,,,,,,,,,,,,,8,2.437000036,8,0.633000135,1,0,1200,72,1,1199,attract,11142,2019-10-21_18h02.03.693,SurveyExpMetaMem,3.2.3,Win32,60
,,,,,,,,,,,,,,,,,,,,6,3.278000116,2,0.671000242,1,0,1200,335,1,1199,decay,11142,2019-10-21_18h02.03.693,SurveyExpMetaMem,3.2.3,Win32,60
,,,,,,,,,,,,,,,,,,,,1,2.031000137,9,5.052999973,1,0,1200,882,1,1199,gentle,11142,2019-10-21_18h02.03.693,SurveyExpMetaMem,3.2.3,Win32,60
,,,,,,,,,,,,,,,,,,,,8,2.572000027,1,1.322000027,1,0,1200,323,1,1199,ungrateful,11142,2019-10-21_18h02.03.693,SurveyExpMetaMem,3.2.3,Win32,60
,,,,,,,,,,,,,,,,,,,,6,2.996999979,1,1.538000107,1,0,1200,344,1,1199,pessimistic,11142,2019-10-21_18h02.03.693,SurveyExpMetaMem,3.2.3,Win32,60
,,,,,,,,,,,,,,,,,,,,8,1.471000195,9,0.864000082,1,0,1200,244,1,1199,sexy,11142,2019-10-21_18h02.03.693,SurveyExpMetaMem,3.2.3,Win32,60
,,,,,,,,,,,,,,,,,,,,6,4.003000021,2,1.323999882,1,0,1200,1191,1,1199,evade,11142,2019-10-21_18h02.03.693,SurveyExpMetaMem,3.2.3,Win32,60
,,,,,,,,,,,,,,,,,,,,8,1.365999937,1,0.423000097,1,0,1200,1140,1,1199,blood,11142,2019-10-21_18h02.03.693,SurveyExpMetaMem,3.2.3,Win32,60
,,,,,,,,,,,,,,,,,,,,7,2.550000191,1,1.031000137,1,0,1200,398,1,1199,handicapped,11142,2019-10-21_18h02.03.693,SurveyExpMetaMem,3.2.3,Win32,60
,,,,,,,,,,,,,,,,,,,,7,2.118999958,8,0.867000103,1,0,1200,833,1,1199,nice,11142,2019-10-21_18h02.03.693,SurveyExpMetaMem,3.2.3,Win32,60
,,,,,,,,,,,,,,,,,,,,3,3.17200017,6,1.835000038,1,0,1200,810,1,1199,polite,11142,2019-10-21_18h02.03.693,SurveyExpMetaMem,3.2.3,Win32,60
,,,,,,,,,,,,,,,,,,,,8,1.370000124,8,1.766000271,1,0,1200,100,1,1199,intense,11142,2019-10-21_18h02.03.693,SurveyExpMetaMem,3.2.3,Win32,60
,,,,,,,,,,,,,,,,,,,,5,1.953999996,5,0.68200016,1,0,1200,741,1,1199,wheat,11142,2019-10-21_18h02.03.693,SurveyExpMetaMem,3.2.3,Win32,60
,,,,,,,,,,,,,,,,,,,,5,1.638000011,6,1.009000063,1,0,1200,645,1,1199,telescope,11142,2019-10-21_18h02.03.693,SurveyExpMetaMem,3.2.3,Win32,60
,,,,,,,,,,,,,,,,,,,,5,6.913000107,5,0.947999954,1,0,1200,567,1,1199,folly,11142,2019-10-21_18h02.03.693,SurveyExpMetaMem,3.2.3,Win32,60
,,,,,,,,,,,,,,,,,,,,7,8.093000174,2,0.779000282,1,0,1200,426,1,1199,con,11142,2019-10-21_18h02.03.693,SurveyExpMetaMem,3.2.3,Win32,60
,,,,,,,,,,,,,,,,,,,,7,1.526000023,5,1.94900012,1,0,1200,102,1,1199,motorcycle,11142,2019-10-21_18h02.03.693,SurveyExpMetaMem,3.2.3,Win32,60
,,,,,,,,,,,,,,,,,,,,5,2.410000086,5,0.674000263,1,0,1200,557,1,1199,class,11142,2019-10-21_18h02.03.693,SurveyExpMetaMem,3.2.3,Win32,60
,,,,,,,,,,,,,,,,,,,,5,7.104000092,5,0.505000114,1,0,1200,646,1,1199,wear,11142,2019-10-21_18h02.03.693,SurveyExpMetaMem,3.2.3,Win32,60
,,,,,,,,,,,,,,,,,,,,7,1.304000139,1,1.803999901,1,0,1200,1090,1,1199,destruction,11142,2019-10-21_18h02.03.693,SurveyExpMetaMem,3.2.3,Win32,60
,,,,,,,,,,,,,,,,,,,,7,1.532999992,2,0.684000015,1,0,1200,467,1,1199,FALSE,11142,2019-10-21_18h02.03.693,SurveyExpMetaMem,3.2.3,Win32,60
,,,,,,,,,,,,,,,,,,,,6,2.342999935,7,1.472000122,1,0,1200,162,1,1199,royalty,11142,2019-10-21_18h02.03.693,SurveyExpMetaMem,3.2.3,Win32,60
,,,,,,,,,,,,,,,,,,,,8,1.383000135,9,0.523000002,1,0,1200,130,1,1199,great,11142,2019-10-21_18h02.03.693,SurveyExpMetaMem,3.2.3,Win32,60
,,,,,,,,,,,,,,,,,,,,1,1.815999985,8,1.404999971,1,0,1200,864,1,1199,blanket,11142,2019-10-21_18h02.03.693,SurveyExpMetaMem,3.2.3,Win32,60
,,,,,,,,,,,,,,,,,,,,2,2.759000063,6,1.434000015,1,0,1200,12,1,1199,mountain,11142,2019-10-21_18h02.03.693,SurveyExpMetaMem,3.2.3,Win32,60
,,,,,,,,,,,,,,,,,,,,8,2.09800005,2,1.45600009,1,0,1200,370,1,1199,rodent,11142,2019-10-21_18h02.03.693,SurveyExpMetaMem,3.2.3,Win32,60
,,,,,,,,,,,,,,,,,,,,8,1.791000128,1,0.794000149,1,0,1200,1112,1,1199,pressure,11142,2019-10-21_18h02.03.693,SurveyExpMetaMem,3.2.3,Win32,60
,,,,,,,,,,,,,,,,,,,,5,7.273999929,5,0.371999979,1,0,1200,331,1,1199,casket,11142,2019-10-21_18h02.03.693,SurveyExpMetaMem,3.2.3,Win32,60
,,,,,,,,,,,,,,,,,,,,7,1.364000082,7,0.674000025,1,0,1200,218,1,1199,charming,11142,2019-10-21_18h02.03.693,SurveyExpMetaMem,3.2.3,Win32,60
,,,,,,,,,,,,,,,,,,,,8,1.520999908,1,0.776000261,1,0,1200,326,1,1199,scam,11142,2019-10-21_18h02.03.693,SurveyExpMetaMem,3.2.3,Win32,60
,,,,,,,,,,,,,,,,,,,,9,1.744000196,9,0.163000107,1,0,1200,95,1,1199,giggle,11142,2019-10-21_18h02.03.693,SurveyExpMetaMem,3.2.3,Win32,60
,,,,,,,,,,,,,,,,,,,,5,2.085999966,5,1.067000151,1,0,1200,758,1,1199,camera,11142,2019-10-21_18h02.03.693,SurveyExpMetaMem,3.2.3,Win32,60
,,,,,,,,,,,,,,,,,,,,7,3.139000177,3,1.43200016,1,0,1200,597,1,1199,drool,11142,2019-10-21_18h02.03.693,SurveyExpMetaMem,3.2.3,Win32,60
,,,,,,,,,,,,,,,,,,,,5,1.631000042,5,0.371000051,1,0,1200,678,1,1199,lightbulb,11142,2019-10-21_18h02.03.693,SurveyExpMetaMem,3.2.3,Win32,60
,,,,,,,,,,,,,,,,,,,,8,3.832000017,2,0.796000004,1,0,1200,1107,1,1199,snake,11142,2019-10-21_18h02.03.693,SurveyExpMetaMem,3.2.3,Win32,60
,,,,,,,,,,,,,,,,,,,,6,3.237999916,5,0.936000109,1,0,1200,264,1,1199,thong,11142,2019-10-21_18h02.03.693,SurveyExpMetaMem,3.2.3,Win32,60
,,,,,,,,,,,,,,,,,,,,8,6.820000172,9,0.444999933,1,0,1200,280,1,1199,cookout,11142,2019-10-21_18h02.03.693,SurveyExpMetaMem,3.2.3,Win32,60
,,,,,,,,,,,,,,,,,,,,8,8.254000187,4,1.007000208,1,0,1200,1155,1,1199,tangle,11142,2019-10-21_18h02.03.693,SurveyExpMetaMem,3.2.3,Win32,60
,,,,,,,,,,,,,,,,,,,,5,6.127000093,3,0.906000137,1,0,1200,1109,1,1199,germ,11142,2019-10-21_18h02.03.693,SurveyExpMetaMem,3.2.3,Win32,60
,,,,,,,,,,,,,,,,,,,,7,1.588000059,7,1.006999969,1,0,1200,9,1,1199,try,11142,2019-10-21_18h02.03.693,SurveyExpMetaMem,3.2.3,Win32,60
,,,,,,,,,,,,,,,,,,,,5,1.529000044,5,0.774000168,1,0,1200,755,1,1199,soap,11142,2019-10-21_18h02.03.693,SurveyExpMetaMem,3.2.3,Win32,60
,,,,,,,,,,,,,,,,,,,,5,10.35500002,4,0.877000093,1,0,1200,421,1,1199,stale,11142,2019-10-21_18h02.03.693,SurveyExpMetaMem,3.2.3,Win32,60
,,,,,,,,,,,,,,,,,,,,8,1.338000059,8,1.137000084,1,0,1200,45,1,1199,sex,11142,2019-10-21_18h02.03.693,SurveyExpMetaMem,3.2.3,Win32,60
,,,,,,,,,,,,,,,,,,,,5,6.387000084,5,1.006000042,1,0,1200,702,1,1199,den,11142,2019-10-21_18h02.03.693,SurveyExpMetaMem,3.2.3,Win32,60
,,,,,,,,,,,,,,,,,,,,8,2.555000067,3,5.005000114,1,0,1200,1,1,1199,fuck,11142,2019-10-21_18h02.03.693,SurveyExpMetaMem,3.2.3,Win32,60
,,,,,,,,,,,,,,,,,,,,1,5.661000013,9,1.338000059,1,0,1200,852,1,1199,caring,11142,2019-10-21_18h02.03.693,SurveyExpMetaMem,3.2.3,Win32,60
,,,,,,,,,,,,,,,,,,,,2,1.904000282,8,0.805999994,1,0,1200,868,1,1199,grace,11142,2019-10-21_18h02.03.693,SurveyExpMetaMem,3.2.3,Win32,60
,,,,,,,,,,,,,,,,,,,,6,2.587000132,7,0.871999979,1,0,1200,273,1,1199,worthwhile,11142,2019-10-21_18h02.03.693,SurveyExpMetaMem,3.2.3,Win32,60
,,,,,,,,,,,,,,,,,,,,6,6.503999949,2,0.503000021,1,0,1200,461,1,1199,ail,11142,2019-10-21_18h02.03.693,SurveyExpMetaMem,3.2.3,Win32,60
,,,,,,,,,,,,,,,,,,,,6,3.142000198,1,1.171000004,1,0,1200,966,1,1199,regretful,11142,2019-10-21_18h02.03.693,SurveyExpMetaMem,3.2.3,Win32,60
,,,,,,,,,,,,,,,,,,,,8,1.688999891,1,0.356000185,1,0,1200,979,1,1199,harassment,11142,2019-10-21_18h02.03.693,SurveyExpMetaMem,3.2.3,Win32,60
,,,,,,,,,,,,,,,,,,,,6,2.629000187,4,1.027000189,1,0,1200,383,1,1199,messy,11142,2019-10-21_18h02.03.693,SurveyExpMetaMem,3.2.3,Win32,60
,,,,,,,,,,,,,,,,,,,,4,2.593000174,5,0.711000204,1,0,1200,406,1,1199,tired,11142,2019-10-21_18h02.03.693,SurveyExpMetaMem,3.2.3,Win32,60
,,,,,,,,,,,,,,,,,,,,5,11.00399995,5,0.717999935,1,0,1200,410,1,1199,tarnish,11142,2019-10-21_18h02.03.693,SurveyExpMetaMem,3.2.3,Win32,60
,,,,,,,,,,,,,,,,,,,,7,1.838999987,2,0.856000185,1,0,1200,1081,1,1199,damage,11142,2019-10-21_18h02.03.693,SurveyExpMetaMem,3.2.3,Win32,60
,,,,,,,,,,,,,,,,,,,,8,6.570000172,9,0.424000025,1,0,1200,750,1,1199,porpoise,11142,2019-10-21_18h02.03.693,SurveyExpMetaMem,3.2.3,Win32,60
,,,,,,,,,,,,,,,,,,,,4,3.036999941,3,0.982000113,1,0,1200,934,1,1199,sob,11142,2019-10-21_18h02.03.693,SurveyExpMetaMem,3.2.3,Win32,60
,,,,,,,,,,,,,,,,,,,,8,1.358999968,9,0.549000025,1,0,1200,16,1,1199,sing,11142,2019-10-21_18h02.03.693,SurveyExpMetaMem,3.2.3,Win32,60
,,,,,,,,,,,,,,,,,,,,8,1.463000059,1,0.482000113,1,0,1200,921,1,1199,humiliation,11142,2019-10-21_18h02.03.693,SurveyExpMetaMem,3.2.3,Win32,60
,,,,,,,,,,,,,,,,,,,,7,1.774000168,8,1.021000147,1,0,1200,828,1,1199,cooperative,11142,2019-10-21_18h02.03.693,SurveyExpMetaMem,3.2.3,Win32,60
,,,,,,,,,,,,,,,,,,,,5,3.1650002,2,0.929000139,1,0,1200,1040,1,1199,communism,11142,2019-10-21_18h02.03.693,SurveyExpMetaMem,3.2.3,Win32,60
,,,,,,,,,,,,,,,,,,,,9,3.095999956,9,0.7900002,1,0,1200,78,1,1199,energetic,11142,2019-10-21_18h02.03.693,SurveyExpMetaMem,3.2.3,Win32,60
,,,,,,,,,,,,,,,,,,,,5,1.504000187,5,0.442000151,1,0,1200,656,1,1199,number,11142,2019-10-21_18h02.03.693,SurveyExpMetaMem,3.2.3,Win32,60
,,,,,,,,,,,,,,,,,,,,6,1.441999912,5,0.74000001,1,0,1200,215,1,1199,salary,11142,2019-10-21_18h02.03.693,SurveyExpMetaMem,3.2.3,Win32,60
,,,,,,,,,,,,,,,,,,,,7,1.536000013,2,0.410000086,1,0,1200,962,1,1199,poisonous,11142,2019-10-21_18h02.03.693,SurveyExpMetaMem,3.2.3,Win32,60
,,,,,,,,,,,,,,,,,,,,5,2.131000042,5,0.305000067,1,0,1200,501,1,1199,dustpan,11142,2019-10-21_18h02.03.693,SurveyExpMetaMem,3.2.3,Win32,60
,,,,,,,,,,,,,,,,,,,,8,1.231999874,8,0.421999931,1,0,1200,199,1,1199,laughter,11142,2019-10-21_18h02.03.693,SurveyExpMetaMem,3.2.3,Win32,60
,,,,,,,,,,,,,,,,,,,,7,5.888000011,2,0.729000092,1,0,1200,516,1,1199,smug,11142,2019-10-21_18h02.03.693,SurveyExpMetaMem,3.2.3,Win32,60
,,,,,,,,,,,,,,,,,,,,8,2.851000071,8,0.829999924,1,0,1200,48,1,1199,excellence,11142,2019-10-21_18h02.03.693,SurveyExpMetaMem,3.2.3,Win32,60
,,,,,,,,,,,,,,,,,,,,5,2.59100008,3,0.746999979,1,0,1200,1135,1,1199,thirsty,11142,2019-10-21_18h02.03.693,SurveyExpMetaMem,3.2.3,Win32,60
,,,,,,,,,,,,,,,,,,,,5,2.125,7,0.661000252,1,0,1200,861,1,1199,nectar,11142,2019-10-21_18h02.03.693,SurveyExpMetaMem,3.2.3,Win32,60
,,,,,,,,,,,,,,,,,,,,5,1.883000135,4,0.972000122,1,0,1200,399,1,1199,withdrawn,11142,2019-10-21_18h02.03.693,SurveyExpMetaMem,3.2.3,Win32,60
,,,,,,,,,,,,,,,,,,,,6,4.621000051,2,0.713000298,1,0,1200,1114,1,1199,foe,11142,2019-10-21_18h02.03.693,SurveyExpMetaMem,3.2.3,Win32,60
,,,,,,,,,,,,,,,,,,,,5,2.406000137,6,1.505000114,1,0,1200,51,1,1199,body,11142,2019-10-21_18h02.03.693,SurveyExpMetaMem,3.2.3,Win32,60
,,,,,,,,,,,,,,,,,,,,2,3.803000212,8,1.888000011,1,0,1200,787,1,1199,dawn,11142,2019-10-21_18h02.03.693,SurveyExpMetaMem,3.2.3,Win32,60
,,,,,,,,,,,,,,,,,,,,7,2.355000257,2,1.106000185,1,0,1200,1010,1,1199,arson,11142,2019-10-21_18h02.03.693,SurveyExpMetaMem,3.2.3,Win32,60
,,,,,,,,,,,,,,,,,,,,4,9.838000059,3,1.510000229,1,0,1200,445,1,1199,bleak,11142,2019-10-21_18h02.03.693,SurveyExpMetaMem,3.2.3,Win32,60
,,,,,,,,,,,,,,,,,,,,8,1.375000238,9,0.75600028,1,0,1200,775,1,1199,pancakes,11142,2019-10-21_18h02.03.693,SurveyExpMetaMem,3.2.3,Win32,60
,,,,,,,,,,,,,,,,,,,,5,2.989000082,5,1.039000034,1,0,1200,539,1,1199,novice,11142,2019-10-21_18h02.03.693,SurveyExpMetaMem,3.2.3,Win32,60
,,,,,,,,,,,,,,,,,,,,7,2.621000051,3,0.805999994,1,0,1200,1095,1,1199,fright,11142,2019-10-21_18h02.03.693,SurveyExpMetaMem,3.2.3,Win32,60
,,,,,,,,,,,,,,,,,,,,6,2.421000004,7,0.899000168,1,0,1200,156,1,1199,gym,11142,2019-10-21_18h02.03.693,SurveyExpMetaMem,3.2.3,Win32,60
,,,,,,,,,,,,,,,,,,,,5,3.326000214,2,0.545000076,1,0,1200,300,1,1199,unhappy,11142,2019-10-21_18h02.03.693,SurveyExpMetaMem,3.2.3,Win32,60
,,,,,,,,,,,,,,,,,,,,8,1.473999977,2,0.921000004,1,0,1200,1032,1,1199,exam,11142,2019-10-21_18h02.03.693,SurveyExpMetaMem,3.2.3,Win32,60
,,,,,,,,,,,,,,,,,,,,8,5.970000029,1,0.381999969,1,0,1200,1076,1,1199,embarrassed,11142,2019-10-21_18h02.03.693,SurveyExpMetaMem,3.2.3,Win32,60
,,,,,,,,,,,,,,,,,,,,8,1.325000048,8,0.244000196,1,0,1200,74,1,1199,explore,11142,2019-10-21_18h02.03.693,SurveyExpMetaMem,3.2.3,Win32,60
,,,,,,,,,,,,,,,,,,,,8,1.788000107,8,0.589000225,1,0,1200,246,1,1199,complete,11142,2019-10-21_18h02.03.693,SurveyExpMetaMem,3.2.3,Win32,60
,,,,,,,,,,,,,,,,,,,,5,3.84100008,6,0.765000105,1,0,1200,122,1,1199,prince,11142,2019-10-21_18h02.03.693,SurveyExpMetaMem,3.2.3,Win32,60
,,,,,,,,,,,,,,,,,,,,5,1.887000084,5,0.220999956,1,0,1200,18,1,1199,mail,11142,2019-10-21_18h02.03.693,SurveyExpMetaMem,3.2.3,Win32,60
,,,,,,,,,,,,,,,,,,,,8,1.738000154,1,0.352000237,1,0,1200,319,1,1199,malaria,11142,2019-10-21_18h02.03.693,SurveyExpMetaMem,3.2.3,Win32,60
,,,,,,,,,,,,,,,,,,,,6,3.136000156,2,0.67200017,1,0,1200,351,1,1199,germs,11142,2019-10-21_18h02.03.693,SurveyExpMetaMem,3.2.3,Win32,60
,,,,,,,,,,,,,,,,,,,,8,1.9150002,8,0.197000265,1,0,1200,254,1,1199,crush,11142,2019-10-21_18h02.03.693,SurveyExpMetaMem,3.2.3,Win32,60
,,,,,,,,,,,,,,,,,,,,7,3.271000147,8,0.156000137,1,0,1200,225,1,1199,strong,11142,2019-10-21_18h02.03.693,SurveyExpMetaMem,3.2.3,Win32,60
,,,,,,,,,,,,,,,,,,,,7,4.996999979,1,0.49000001,1,0,1200,980,1,1199,liar,11142,2019-10-21_18h02.03.693,SurveyExpMetaMem,3.2.3,Win32,60
,,,,,,,,,,,,,,,,,,,,5,3.771000147,5,0.555999994,1,0,1200,549,1,1199,beet,11142,2019-10-21_18h02.03.693,SurveyExpMetaMem,3.2.3,Win32,60
,,,,,,,,,,,,,,,,,,,,5,1.316000223,5,0.178000212,1,0,1200,769,1,1199,relate,11142,2019-10-21_18h02.03.693,SurveyExpMetaMem,3.2.3,Win32,60
,,,,,,,,,,,,,,,,,,,,3,2.871999979,5,0.68900013,1,0,1200,610,1,1199,miniature,11142,2019-10-21_18h02.03.693,SurveyExpMetaMem,3.2.3,Win32,60
,,,,,,,,,,,,,,,,,,,,7,2.028000116,2,0.365000248,1,0,1200,362,1,1199,despair,11142,2019-10-21_18h02.03.693,SurveyExpMetaMem,3.2.3,Win32,60
,,,,,,,,,,,,,,,,,,,,9,1.180000067,1,0.329000235,1,0,1200,940,1,1199,war,11142,2019-10-21_18h02.03.693,SurveyExpMetaMem,3.2.3,Win32,60
,,,,,,,,,,,,,,,,,,,,1,2.34800005,8,0.588000059,1,0,1200,704,1,1199,flute,11142,2019-10-21_18h02.03.693,SurveyExpMetaMem,3.2.3,Win32,60
,,,,,,,,,,,,,,,,,,,,5,6.147000313,2,0.499000311,1,0,1200,301,1,1199,sad,11142,2019-10-21_18h02.03.693,SurveyExpMetaMem,3.2.3,Win32,60
,,,,,,,,,,,,,,,,,,,,6,2.538000107,8,1.887000084,1,0,1200,85,1,1199,like,11142,2019-10-21_18h02.03.693,SurveyExpMetaMem,3.2.3,Win32,60
,,,,,,,,,,,,,,,,,,,,5,1.899000168,3,0.846000195,1,0,1200,528,1,1199,dirt,11142,2019-10-21_18h02.03.693,SurveyExpMetaMem,3.2.3,Win32,60
,,,,,,,,,,,,,,,,,,,,5,1.604000092,6,1.147000074,1,0,1200,691,1,1199,circle,11142,2019-10-21_18h02.03.693,SurveyExpMetaMem,3.2.3,Win32,60
,,,,,,,,,,,,,,,,,,,,5,2.138000011,5,0.174000263,1,0,1200,372,1,1199,inferior,11142,2019-10-21_18h02.03.693,SurveyExpMetaMem,3.2.3,Win32,60
,,,,,,,,,,,,,,,,,,,,4,2.779000044,5,1.080000162,1,0,1200,690,1,1199,similar,11142,2019-10-21_18h02.03.693,SurveyExpMetaMem,3.2.3,Win32,60
,,,,,,,,,,,,,,,,,,,,8,2.160000086,1,2.589000225,1,0,1200,915,1,1199,abuse,11142,2019-10-21_18h02.03.693,SurveyExpMetaMem,3.2.3,Win32,60
,,,,,,,,,,,,,,,,,,,,7,3.269999981,2,1.490000248,1,0,1200,419,1,1199,immature,11142,2019-10-21_18h02.03.693,SurveyExpMetaMem,3.2.3,Win32,60
,,,,,,,,,,,,,,,,,,,,5,1.548000097,5,0.160000086,1,0,1200,212,1,1199,belief,11142,2019-10-21_18h02.03.693,SurveyExpMetaMem,3.2.3,Win32,60
,,,,,,,,,,,,,,,,,,,,6,4.44900012,3,0.614000082,1,0,1200,1083,1,1199,delayed,11142,2019-10-21_18h02.03.693,SurveyExpMetaMem,3.2.3,Win32,60
,,,,,,,,,,,,,,,,,,,,5,9.604000092,2,0.722000122,1,0,1200,385,1,1199,tiresome,11142,2019-10-21_18h02.03.693,SurveyExpMetaMem,3.2.3,Win32,60
,,,,,,,,,,,,,,,,,,,,6,2.138999939,2,0.107000113,1,0,1200,340,1,1199,coward,11142,2019-10-21_18h02.03.693,SurveyExpMetaMem,3.2.3,Win32,60
,,,,,,,,,,,,,,,,,,,,8,1.222000122,1,1.371999979,1,0,1200,1048,1,1199,paranoid,11142,2019-10-21_18h02.03.693,SurveyExpMetaMem,3.2.3,Win32,60
,,,,,,,,,,,,,,,,,,,,1,1.670000076,8,1.396000147,1,0,1200,847,1,1199,moon,11142,2019-10-21_18h02.03.693,SurveyExpMetaMem,3.2.3,Win32,60
,,,,,,,,,,,,,,,,,,,,7,2.74000001,3,1.360000134,1,0,1200,964,1,1199,grieve,11142,2019-10-21_18h02.03.693,SurveyExpMetaMem,3.2.3,Win32,60
,,,,,,,,,,,,,,,,,,,,5,1.676000118,5,0.588999987,1,0,1200,1170,1,1199,police,11142,2019-10-21_18h02.03.693,SurveyExpMetaMem,3.2.3,Win32,60
,,,,,,,,,,,,,,,,,,,,5,1.613000154,5,0.222000122,1,0,1200,768,1,1199,trait,11142,2019-10-21_18h02.03.693,SurveyExpMetaMem,3.2.3,Win32,60
,,,,,,,,,,,,,,,,,,,,5,1.615999937,5,0.788000107,1,0,1200,477,1,1199,separate,11142,2019-10-21_18h02.03.693,SurveyExpMetaMem,3.2.3,Win32,60
,,,,,,,,,,,,,,,,,,,,5,2.907000065,8,0.621999979,1,0,1200,33,1,1199,sister,11142,2019-10-21_18h02.03.693,SurveyExpMetaMem,3.2.3,Win32,60
,,,,,,,,,,,,,,,,,,,,7,2.041000128,1,1.483999968,1,0,1200,957,1,1199,debt,11142,2019-10-21_18h02.03.693,SurveyExpMetaMem,3.2.3,Win32,60
,,,,,,,,,,,,,,,,,,,,7,2.337000132,2,0.479000092,1,0,1200,1166,1,1199,compulsive,11142,2019-10-21_18h02.03.693,SurveyExpMetaMem,3.2.3,Win32,60
,,,,,,,,,,,,,,,,,,,,5,4.060000181,2,0.826999903,1,0,1200,330,1,1199,sunburn,11142,2019-10-21_18h02.03.693,SurveyExpMetaMem,3.2.3,Win32,60
,,,,,,,,,,,,,,,,,,,,7,1.637000084,8,1.570999861,1,0,1200,181,1,1199,fascinate,11142,2019-10-21_18h02.03.693,SurveyExpMetaMem,3.2.3,Win32,60
,,,,,,,,,,,,,,,,,,,,7,1.463999987,2,0.423000097,1,0,1200,5,1,1199,drunk,11142,2019-10-21_18h02.03.693,SurveyExpMetaMem,3.2.3,Win32,60
,,,,,,,,,,,,,,,,,,,,8,1.426000118,1,0.48300004,1,0,1200,1065,1,1199,slap,11142,2019-10-21_18h02.03.693,SurveyExpMetaMem,3.2.3,Win32,60
,,,,,,,,,,,,,,,,,,,,5,5.78000021,5,0.822999954,1,0,1200,463,1,1199,limp,11142,2019-10-21_18h02.03.693,SurveyExpMetaMem,3.2.3,Win32,60
,,,,,,,,,,,,,,,,,,,,3,0.029000282,7,6.289000273,1,0,1200,773,1,1199,rational,11142,2019-10-21_18h02.03.693,SurveyExpMetaMem,3.2.3,Win32,60
,,,,,,,,,,,,,,,,,,,,5,6.778000116,2,0.708000183,1,0,1200,343,1,1199,fever,11142,2019-10-21_18h02.03.693,SurveyExpMetaMem,3.2.3,Win32,60
,,,,,,,,,,,,,,,,,,,,8,1.588000059,2,0.70600009,1,0,1200,1052,1,1199,angry,11142,2019-10-21_18h02.03.693,SurveyExpMetaMem,3.2.3,Win32,60
,,,,,,,,,,,,,,,,,,,,4,9.677000284,5,1.06400013,1,0,1200,629,1,1199,barn,11142,2019-10-21_18h02.03.693,SurveyExpMetaMem,3.2.3,Win32,60
,,,,,,,,,,,,,,,,,,,,7,1.909000158,7,1.296000004,1,0,1200,44,1,1199,diploma,11142,2019-10-21_18h02.03.693,SurveyExpMetaMem,3.2.3,Win32,60
,,,,,,,,,,,,,,,,,,,,3,1.926000118,5,1.694000006,1,0,1200,524,1,1199,sigh,11142,2019-10-21_18h02.03.693,SurveyExpMetaMem,3.2.3,Win32,60
,,,,,,,,,,,,,,,,,,,,9,1.396000147,1,1.318000078,1,0,1200,1000,1,1199,threat,11142,2019-10-21_18h02.03.693,SurveyExpMetaMem,3.2.3,Win32,60
,,,,,,,,,,,,,,,,,,,,2,2.220999956,6,1.957999945,1,0,1200,628,1,1199,chess,11142,2019-10-21_18h02.03.693,SurveyExpMetaMem,3.2.3,Win32,60
,,,,,,,,,,,,,,,,,,,,5,1.566000223,5,0.528000116,1,0,1200,830,1,1199,pear,11142,2019-10-21_18h02.03.693,SurveyExpMetaMem,3.2.3,Win32,60
,,,,,,,,,,,,,,,,,,,,6,1.322000027,8,7.440000057,1,0,1200,297,1,1199,pleasure,11142,2019-10-21_18h02.03.693,SurveyExpMetaMem,3.2.3,Win32,60
,,,,,,,,,,,,,,,,,,,,5,1.878999949,5,0.325999975,1,0,1200,544,1,1199,snail,11142,2019-10-21_18h02.03.693,SurveyExpMetaMem,3.2.3,Win32,60
,,,,,,,,,,,,,,,,,,,,6,1.592999935,3,0.947000027,1,0,1200,1122,1,1199,gossip,11142,2019-10-21_18h02.03.693,SurveyExpMetaMem,3.2.3,Win32,60
,,,,,,,,,,,,,,,,,,,,8,3.948999882,2,0.61500001,1,0,1200,908,1,1199,suffer,11142,2019-10-21_18h02.03.693,SurveyExpMetaMem,3.2.3,Win32,60
,,,,,,,,,,,,,,,,,,,,6,1.674000263,2,1.49000001,1,0,1200,443,1,1199,incorrect,11142,2019-10-21_18h02.03.693,SurveyExpMetaMem,3.2.3,Win32,60
,,,,,,,,,,,,,,,,,,,,8,1.379000187,2,0.56400013,1,0,1200,1055,1,1199,alarm,11142,2019-10-21_18h02.03.693,SurveyExpMetaMem,3.2.3,Win32,60
,,,,,,,,,,,,,,,,,,,,2,4.247000217,9,1.703999996,1,0,1200,890,1,1199,carefree,11142,2019-10-21_18h02.03.693,SurveyExpMetaMem,3.2.3,Win32,60
,,,,,,,,,,,,,,,,,,,,9,1.653000116,1,1.427000046,1,0,1200,1073,1,1199,bitch,11142,2019-10-21_18h02.03.693,SurveyExpMetaMem,3.2.3,Win32,60
,,,,,,,,,,,,,,,,,,,,8,2.220000029,1,1.309000015,1,0,1200,1126,1,1199,offensive,11142,2019-10-21_18h02.03.693,SurveyExpMetaMem,3.2.3,Win32,60
,,,,,,,,,,,,,,,,,,,,8,1.825000048,8,0.565000057,1,0,1200,290,1,1199,enthusiasm,11142,2019-10-21_18h02.03.693,SurveyExpMetaMem,3.2.3,Win32,60
,,,,,,,,,,,,,,,,,,,,5,9.54700017,4,1.163000107,1,0,1200,542,1,1199,loose,11142,2019-10-21_18h02.03.693,SurveyExpMetaMem,3.2.3,Win32,60
,,,,,,,,,,,,,,,,,,,,6,1.690999985,4,0.865000248,1,0,1200,1189,1,1199,lava,11142,2019-10-21_18h02.03.693,SurveyExpMetaMem,3.2.3,Win32,60
,,,,,,,,,,,,,,,,,,,,6,2.921999931,4,1.630000114,1,0,1200,520,1,1199,gullible,11142,2019-10-21_18h02.03.693,SurveyExpMetaMem,3.2.3,Win32,60
,,,,,,,,,,,,,,,,,,,,5,2.063000202,5,0.642999887,1,0,1200,104,1,1199,freeway,11142,2019-10-21_18h02.03.693,SurveyExpMetaMem,3.2.3,Win32,60
,,,,,,,,,,,,,,,,,,,,5,1.354000092,5,0.197000027,1,0,1200,650,1,1199,native,11142,2019-10-21_18h02.03.693,SurveyExpMetaMem,3.2.3,Win32,60
,,,,,,,,,,,,,,,,,,,,5,10.30800009,5,0.154999971,1,0,1200,662,1,1199,bib,11142,2019-10-21_18h02.03.693,SurveyExpMetaMem,3.2.3,Win32,60
,,,,,,,,,,,,,,,,,,,,6,1.494000196,7,1.345000029,1,0,1200,62,1,1199,interested,11142,2019-10-21_18h02.03.693,SurveyExpMetaMem,3.2.3,Win32,60
,,,,,,,,,,,,,,,,,,,,7,1.370000124,2,0.485000134,1,0,1200,1044,1,1199,lost,11142,2019-10-21_18h02.03.693,SurveyExpMetaMem,3.2.3,Win32,60
,,,,,,,,,,,,,,,,,,,,5,1.474000216,5,0.181000233,1,0,1200,128,1,1199,supper,11142,2019-10-21_18h02.03.693,SurveyExpMetaMem,3.2.3,Win32,60
,,,,,,,,,,,,,,,,,,,,5,2.474000216,3,0.751000166,1,0,1200,487,1,1199,junk,11142,2019-10-21_18h02.03.693,SurveyExpMetaMem,3.2.3,Win32,60
,,,,,,,,,,,,,,,,,,,,2,1.769999981,7,1.146000147,1,0,1200,744,1,1199,village,11142,2019-10-21_18h02.03.693,SurveyExpMetaMem,3.2.3,Win32,60
,,,,,,,,,,,,,,,,,,,,6,1.619999886,2,0.78399992,1,0,1200,1131,1,1199,envious,11142,2019-10-21_18h02.03.693,SurveyExpMetaMem,3.2.3,Win32,60
,,,,,,,,,,,,,,,,,,,,8,1.312000036,2,0.89800024,1,0,1200,1193,1,1199,damn,11142,2019-10-21_18h02.03.693,SurveyExpMetaMem,3.2.3,Win32,60
,,,,,,,,,,,,,,,,,,,,3,3.526000023,7,0.83100009,1,0,1200,189,1,1199,thoughtful,11142,2019-10-21_18h02.03.693,SurveyExpMetaMem,3.2.3,Win32,60
,,,,,,,,,,,,,,,,,,,,7,2.903000116,5,1.719000101,1,0,1200,207,1,1199,erect,11142,2019-10-21_18h02.03.693,SurveyExpMetaMem,3.2.3,Win32,60
,,,,,,,,,,,,,,,,,,,,7,3.454999924,2,1.305000067,1,0,1200,328,1,1199,disgrace,11142,2019-10-21_18h02.03.693,SurveyExpMetaMem,3.2.3,Win32,60
,,,,,,,,,,,,,,,,,,,,6,1.895000219,2,0.749000072,1,0,1200,911,1,1199,rejection,11142,2019-10-21_18h02.03.693,SurveyExpMetaMem,3.2.3,Win32,60
,,,,,,,,,,,,,,,,,,,,5,5.305999994,1,1.130000114,1,0,1200,433,1,1199,uninteresting,11142,2019-10-21_18h02.03.693,SurveyExpMetaMem,3.2.3,Win32,60
,,,,,,,,,,,,,,,,,,,,7,4.368999958,5,1.968000174,1,0,1200,140,1,1199,riches,11142,2019-10-21_18h02.03.693,SurveyExpMetaMem,3.2.3,Win32,60
,,,,,,,,,,,,,,,,,,,,5,1.357000113,5,0.144000053,1,0,1200,553,1,1199,corner,11142,2019-10-21_18h02.03.693,SurveyExpMetaMem,3.2.3,Win32,60
,,,,,,,,,,,,,,,,,,,,7,2.480000019,2,0.811000109,1,0,1200,938,1,1199,seasick,11142,2019-10-21_18h02.03.693,SurveyExpMetaMem,3.2.3,Win32,60
,,,,,,,,,,,,,,,,,,,,2,3.848999977,8,0.763999939,1,0,1200,515,1,1199,blues,11142,2019-10-21_18h02.03.693,SurveyExpMetaMem,3.2.3,Win32,60
,,,,,,,,,,,,,,,,,,,,3,3.125,6,1.346000195,1,0,1200,838,1,1199,nestle,11142,2019-10-21_18h02.03.693,SurveyExpMetaMem,3.2.3,Win32,60
,,,,,,,,,,,,,,,,,,,,5,4.953999996,7,0.735000134,1,0,1200,123,1,1199,favorite,11142,2019-10-21_18h02.03.693,SurveyExpMetaMem,3.2.3,Win32,60
,,,,,,,,,,,,,,,,,,,,3,2.586999893,5,1.604000092,1,0,1200,466,1,1199,gnaw,11142,2019-10-21_18h02.03.693,SurveyExpMetaMem,3.2.3,Win32,60
,,,,,,,,,,,,,,,,,,,,5,7.292000055,2,0.743999958,1,0,1200,540,1,1199,derelict,11142,2019-10-21_18h02.03.693,SurveyExpMetaMem,3.2.3,Win32,60
,,,,,,,,,,,,,,,,,,,,5,1.871999979,5,0.1650002,1,0,1200,228,1,1199,suite,11142,2019-10-21_18h02.03.693,SurveyExpMetaMem,3.2.3,Win32,60
,,,,,,,,,,,,,,,,,,,,7,1.372000217,2,0.534000158,1,0,1200,983,1,1199,demonic,11142,2019-10-21_18h02.03.693,SurveyExpMetaMem,3.2.3,Win32,60
,,,,,,,,,,,,,,,,,,,,8,1.332000017,1,0.730000257,1,0,1200,1181,1,1199,blade,11142,2019-10-21_18h02.03.693,SurveyExpMetaMem,3.2.3,Win32,60
,,,,,,,,,,,,,,,,,,,,3,2.704999924,8,0.775000095,1,0,1200,866,1,1199,haven,11142,2019-10-21_18h02.03.693,SurveyExpMetaMem,3.2.3,Win32,60
,,,,,,,,,,,,,,,,,,,,7,5.872999907,1,0.698000193,1,0,1200,321,1,1199,wart,11142,2019-10-21_18h02.03.693,SurveyExpMetaMem,3.2.3,Win32,60
,,,,,,,,,,,,,,,,,,,,2,1.727000237,6,1.339000225,1,0,1200,853,1,1199,breeze,11142,2019-10-21_18h02.03.693,SurveyExpMetaMem,3.2.3,Win32,60
,,,,,,,,,,,,,,,,,,,,7,1.990999937,1,0.50600028,1,0,1200,1041,1,1199,sin,11142,2019-10-21_18h02.03.693,SurveyExpMetaMem,3.2.3,Win32,60
,,,,,,,,,,,,,,,,,,,,5,1.94900012,5,0.146000147,1,0,1200,742,1,1199,window,11142,2019-10-21_18h02.03.693,SurveyExpMetaMem,3.2.3,Win32,60
,,,,,,,,,,,,,,,,,,,,6,2.437000036,3,0.523000002,1,0,1200,536,1,1199,vacant,11142,2019-10-21_18h02.03.693,SurveyExpMetaMem,3.2.3,Win32,60
,,,,,,,,,,,,,,,,,,,,8,1.470000267,2,0.577000141,1,0,1200,420,1,1199,smoke,11142,2019-10-21_18h02.03.693,SurveyExpMetaMem,3.2.3,Win32,60
,,,,,,,,,,,,,,,,,,,,6,3.738000154,3,1.446000099,1,0,1200,1085,1,1199,sever,11142,2019-10-21_18h02.03.693,SurveyExpMetaMem,3.2.3,Win32,60
,,,,,,,,,,,,,,,,,,,,5,1.52699995,5,0.157000303,1,0,1200,777,1,1199,casual,11142,2019-10-21_18h02.03.693,SurveyExpMetaMem,3.2.3,Win32,60
,,,,,,,,,,,,,,,,,,,,6,3.275000095,2,1.42200017,1,0,1200,505,1,1199,exhaust,11142,2019-10-21_18h02.03.693,SurveyExpMetaMem,3.2.3,Win32,60
,,,,,,,,,,,,,,,,,,,,3,2.760000229,8,0.735000134,1,0,1200,884,1,1199,grateful,11142,2019-10-21_18h02.03.693,SurveyExpMetaMem,3.2.3,Win32,60
,,,,,,,,,,,,,,,,,,,,5,1.705000162,7,0.867000103,1,0,1200,815,1,1199,apple,11142,2019-10-21_18h02.03.693,SurveyExpMetaMem,3.2.3,Win32,60
,,,,,,,,,,,,,,,,,,,,5,1.912000179,5,0.155999899,1,0,1200,722,1,1199,consoled,11142,2019-10-21_18h02.03.693,SurveyExpMetaMem,3.2.3,Win32,60
,,,,,,,,,,,,,,,,,,,,5,4.111000061,6,0.900000095,1,0,1200,608,1,1199,carrot,11142,2019-10-21_18h02.03.693,SurveyExpMetaMem,3.2.3,Win32,60
,,,,,,,,,,,,,,,,,,,,6,2.881000042,6,0.150000095,1,0,1200,260,1,1199,control,11142,2019-10-21_18h02.03.693,SurveyExpMetaMem,3.2.3,Win32,60
,,,,,,,,,,,,,,,,,,,,8,2.739000082,9,0.638999939,1,0,1200,277,1,1199,cupcake,11142,2019-10-21_18h02.03.693,SurveyExpMetaMem,3.2.3,Win32,60
,,,,,,,,,,,,,,,,,,,,5,3.026000023,5,1.444000244,1,0,1200,1178,1,1199,weight,11142,2019-10-21_18h02.03.693,SurveyExpMetaMem,3.2.3,Win32,60
,,,,,,,,,,,,,,,,,,,,7,2.631999969,8,0.480999947,1,0,1200,261,1,1199,windsurfers,11142,2019-10-21_18h02.03.693,SurveyExpMetaMem,3.2.3,Win32,60
,,,,,,,,,,,,,,,,,,,,5,2.654999971,5,0.308000088,1,0,1200,595,1,1199,vacuum,11142,2019-10-21_18h02.03.693,SurveyExpMetaMem,3.2.3,Win32,60
,,,,,,,,,,,,,,,,,,,,7,1.292000294,2,1.40199995,1,0,1200,1007,1,1199,tornado,11142,2019-10-21_18h02.03.693,SurveyExpMetaMem,3.2.3,Win32,60
,,,,,,,,,,,,,,,,,,,,7,2.103000164,3,0.521000147,1,0,1200,453,1,1199,prude,11142,2019-10-21_18h02.03.693,SurveyExpMetaMem,3.2.3,Win32,60
,,,,,,,,,,,,,,,,,,,,8,1.243000269,1,0.317000151,1,0,1200,1025,1,1199,deadly,11142,2019-10-21_18h02.03.693,SurveyExpMetaMem,3.2.3,Win32,60
,,,,,,,,,,,,,,,,,,,,7,3.174000025,8,0.05099988,1,0,1200,209,1,1199,husband,11142,2019-10-21_18h02.03.693,SurveyExpMetaMem,3.2.3,Win32,60
,,,,,,,,,,,,,,,,,,,,5,4.060000181,5,0.156000137,1,0,1200,1160,1,1199,enlist,11142,2019-10-21_18h02.03.693,SurveyExpMetaMem,3.2.3,Win32,60
,,,,,,,,,,,,,,,,,,,,7,1.487000227,1,0.666000128,1,0,1200,972,1,1199,homicide,11142,2019-10-21_18h02.03.693,SurveyExpMetaMem,3.2.3,Win32,60
,,,,,,,,,,,,,,,,,,,,4,2.986999989,7,0.213000298,1,0,1200,876,1,1199,politeness,11142,2019-10-21_18h02.03.693,SurveyExpMetaMem,3.2.3,Win32,60
,,,,,,,,,,,,,,,,,,,,7,3.688000202,3,0.197999954,1,0,1200,1167,1,1199,bribe,11142,2019-10-21_18h02.03.693,SurveyExpMetaMem,3.2.3,Win32,60
,,,,,,,,,,,,,,,,,,,,3,3.062999964,8,0.977999926,1,0,1200,712,1,1199,harvest,11142,2019-10-21_18h02.03.693,SurveyExpMetaMem,3.2.3,Win32,60
,,,,,,,,,,,,,,,,,,,,7,2.426000118,8,0.288000107,1,0,1200,129,1,1199,fly,11142,2019-10-21_18h02.03.693,SurveyExpMetaMem,3.2.3,Win32,60
,,,,,,,,,,,,,,,,,,,,5,15.67799997,5,0.156000137,1,0,1200,460,1,1199,rag,11142,2019-10-21_18h02.03.693,SurveyExpMetaMem,3.2.3,Win32,60
,,,,,,,,,,,,,,,,,,,,5,2.911000013,6,0.377000093,1,0,1200,835,1,1199,helpful,11142,2019-10-21_18h02.03.693,SurveyExpMetaMem,3.2.3,Win32,60
,,,,,,,,,,,,,,,,,,,,5,2.100000143,5,0.671999931,1,0,1200,436,1,1199,mediocre,11142,2019-10-21_18h02.03.693,SurveyExpMetaMem,3.2.3,Win32,60
,,,,,,,,,,,,,,,,,,,,5,2.771000147,8,0.657000065,1,0,1200,203,1,1199,seal,11142,2019-10-21_18h02.03.693,SurveyExpMetaMem,3.2.3,Win32,60
,,,,,,,,,,,,,,,,,,,,5,4.806000233,8,0.916000128,1,0,1200,175,1,1199,playground,11142,2019-10-21_18h02.03.693,SurveyExpMetaMem,3.2.3,Win32,60
,,,,,,,,,,,,,,,,,,,,8,2.827000141,6,0.420000076,1,0,1200,267,1,1199,bold,11142,2019-10-21_18h02.03.693,SurveyExpMetaMem,3.2.3,Win32,60
,,,,,,,,,,,,,,,,,,,,5,1.383000135,6,0.805000305,1,0,1200,700,1,1199,frog,11142,2019-10-21_18h02.03.693,SurveyExpMetaMem,3.2.3,Win32,60
,,,,,,,,,,,,,,,,,,,,5,1.193000078,8,0.256000042,1,0,1200,756,1,1199,plant,11142,2019-10-21_18h02.03.693,SurveyExpMetaMem,3.2.3,Win32,60
,,,,,,,,,,,,,,,,,,,,2,1.920000315,8,0.909000158,1,0,1200,885,1,1199,cozy,11142,2019-10-21_18h02.03.693,SurveyExpMetaMem,3.2.3,Win32,60
,,,,,,,,,,,,,,,,,,,,8,1.775000095,9,0.838000059,1,0,1200,185,1,1199,flirt,11142,2019-10-21_18h02.03.693,SurveyExpMetaMem,3.2.3,Win32,60
,,,,,,,,,,,,,,,,,,,,8,3.347000122,9,0.401000023,1,0,1200,171,1,1199,imagination,11142,2019-10-21_18h02.03.693,SurveyExpMetaMem,3.2.3,Win32,60
,,,,,,,,,,,,,,,,,,,,6,2.270000219,3,0.895000219,1,0,1200,1173,1,1199,lurk,11142,2019-10-21_18h02.03.693,SurveyExpMetaMem,3.2.3,Win32,60
,,,,,,,,,,,,,,,,,,,,7,2.845000267,8,0.096000195,1,0,1200,90,1,1199,satisfaction,11142,2019-10-21_18h02.03.693,SurveyExpMetaMem,3.2.3,Win32,60
,,,,,,,,,,,,,,,,,,,,5,1.660000086,7,0.687000036,1,0,1200,633,1,1199,cattle,11142,2019-10-21_18h02.03.693,SurveyExpMetaMem,3.2.3,Win32,60
,,,,,,,,,,,,,,,,,,,,6,2.196000099,3,0.28000021,1,0,1200,500,1,1199,nosey,11142,2019-10-21_18h02.03.693,SurveyExpMetaMem,3.2.3,Win32,60
,,,,,,,,,,,,,,,,,,,,5,2.215000153,5,0.161000252,1,0,1200,676,1,1199,straighten,11142,2019-10-21_18h02.03.693,SurveyExpMetaMem,3.2.3,Win32,60
,,,,,,,,,,,,,,,,,,,,5,1.515000105,5,0.144000053,1,0,1200,802,1,1199,familiar,11142,2019-10-21_18h02.03.693,SurveyExpMetaMem,3.2.3,Win32,60
,,,,,,,,,,,,,,,,,,,,8,3.021000147,1,0.376000166,1,0,1200,924,1,1199,terrible,11142,2019-10-21_18h02.03.693,SurveyExpMetaMem,3.2.3,Win32,60
,,,,,,,,,,,,,,,,,,,,5,1.675000191,5,0.171000004,1,0,1200,717,1,1199,modest,11142,2019-10-21_18h02.03.693,SurveyExpMetaMem,3.2.3,Win32,60
,,,,,,,,,,,,,,,,,,,,6,3.370000124,4,0.084000111,1,0,1200,252,1,1199,infatuated,11142,2019-10-21_18h02.03.693,SurveyExpMetaMem,3.2.3,Win32,60
,,,,,,,,,,,,,,,,,,,,9,1.789000034,1,0.33100009,1,0,1200,985,1,1199,pollution,11142,2019-10-21_18h02.03.693,SurveyExpMetaMem,3.2.3,Win32,60
,,,,,,,,,,,,,,,,,,,,8,1.470000029,2,0.496000051,1,0,1200,1086,1,1199,irritate,11142,2019-10-21_18h02.03.693,SurveyExpMetaMem,3.2.3,Win32,60
,,,,,,,,,,,,,,,,,,,,8,1.076999903,2,0.421000004,1,0,1200,405,1,1199,fatigued,11142,2019-10-21_18h02.03.693,SurveyExpMetaMem,3.2.3,Win32,60
,,,,,,,,,,,,,,,,,,,,7,3.197999954,2,0.378000259,1,0,1200,312,1,1199,stench,11142,2019-10-21_18h02.03.693,SurveyExpMetaMem,3.2.3,Win32,60
,,,,,,,,,,,,,,,,,,,,8,1.453999996,1,0.30700016,1,0,1200,1149,1,1199,fight,11142,2019-10-21_18h02.03.693,SurveyExpMetaMem,3.2.3,Win32,60
,,,,,,,,,,,,,,,,,,,,5,3.35800004,5,0.173000097,1,0,1200,339,1,1199,chore,11142,2019-10-21_18h02.03.693,SurveyExpMetaMem,3.2.3,Win32,60
,,,,,,,,,,,,,,,,,,,,5,1.593000174,5,0.178000212,1,0,1200,563,1,1199,stupor,11142,2019-10-21_18h02.03.693,SurveyExpMetaMem,3.2.3,Win32,60
,,,,,,,,,,,,,,,,,,,,5,3.105999947,2,0.778000116,1,0,1200,495,1,1199,dust,11142,2019-10-21_18h02.03.693,SurveyExpMetaMem,3.2.3,Win32,60
,,,,,,,,,,,,,,,,,,,,9,1.237000227,1,0.355999947,1,0,1200,1033,1,1199,horror,11142,2019-10-21_18h02.03.693,SurveyExpMetaMem,3.2.3,Win32,60
,,,,,,,,,,,,,,,,,,,,5,4.296000004,5,0.178999901,1,0,1200,63,1,1199,clothes,11142,2019-10-21_18h02.03.693,SurveyExpMetaMem,3.2.3,Win32,60
,,,,,,,,,,,,,,,,,,,,5,1.128999949,5,0.188999891,1,0,1200,698,1,1199,oven,11142,2019-10-21_18h02.03.693,SurveyExpMetaMem,3.2.3,Win32,60
,,,,,,,,,,,,,,,,,,,,2,2.157000065,7,0.611999989,1,0,1200,870,1,1199,safe,11142,2019-10-21_18h02.03.693,SurveyExpMetaMem,3.2.3,Win32,60
,,,,,,,,,,,,,,,,,,,,5,3.236999989,2,0.429000139,1,0,1200,363,1,1199,dumb,11142,2019-10-21_18h02.03.693,SurveyExpMetaMem,3.2.3,Win32,60
,,,,,,,,,,,,,,,,,,,,8,1.411000013,2,0.546000242,1,0,1200,936,1,1199,assault,11142,2019-10-21_18h02.03.693,SurveyExpMetaMem,3.2.3,Win32,60
,,,,,,,,,,,,,,,,,,,,7,2.395000219,2,1.207000256,1,0,1200,484,1,1199,leave,11142,2019-10-21_18h02.03.693,SurveyExpMetaMem,3.2.3,Win32,60
,,,,,,,,,,,,,,,,,,,,8,1.421000004,9,0.100000143,1,0,1200,196,1,1199,smile,11142,2019-10-21_18h02.03.693,SurveyExpMetaMem,3.2.3,Win32,60
,,,,,,,,,,,,,,,,,,,,7,1.779000044,8,0.661000013,1,0,1200,256,1,1199,galaxy,11142,2019-10-21_18h02.03.693,SurveyExpMetaMem,3.2.3,Win32,60
,,,,,,,,,,,,,,,,,,,,5,1.343000174,5,0.515000105,1,0,1200,625,1,1199,hat,11142,2019-10-21_18h02.03.693,SurveyExpMetaMem,3.2.3,Win32,60
,,,,,,,,,,,,,,,,,,,,5,2.858999968,8,0.511000156,1,0,1200,837,1,1199,responsible,11142,2019-10-21_18h02.03.693,SurveyExpMetaMem,3.2.3,Win32,60
,,,,,,,,,,,,,,,,,,,,7,1.931000233,2,0.61500001,1,0,1200,1094,1,1199,disruptive,11142,2019-10-21_18h02.03.693,SurveyExpMetaMem,3.2.3,Win32,60
,,,,,,,,,,,,,,,,,,,,7,3.03000021,8,0.423000097,1,0,1200,55,1,1199,rare,11142,2019-10-21_18h02.03.693,SurveyExpMetaMem,3.2.3,Win32,60
,,,,,,,,,,,,,,,,,,,,5,1.644999981,5,0.441999912,1,0,1200,701,1,1199,telephone,11142,2019-10-21_18h02.03.693,SurveyExpMetaMem,3.2.3,Win32,60
,,,,,,,,,,,,,,,,,,,,7,1.637000084,2,0.371000051,1,0,1200,986,1,1199,mad,11142,2019-10-21_18h02.03.693,SurveyExpMetaMem,3.2.3,Win32,60
,,,,,,,,,,,,,,,,,,,,3,3.088000059,6,1.32400012,1,0,1200,46,1,1199,god,11142,2019-10-21_18h02.03.693,SurveyExpMetaMem,3.2.3,Win32,60
,,,,,,,,,,,,,,,,,,,,5,2.154000044,5,0.434000254,1,0,1200,506,1,1199,lower,11142,2019-10-21_18h02.03.693,SurveyExpMetaMem,3.2.3,Win32,60
,,,,,,,,,,,,,,,,,,,,6,1.489000082,3,0.361000061,1,0,1200,1059,1,1199,harsh,11142,2019-10-21_18h02.03.693,SurveyExpMetaMem,3.2.3,Win32,60
,,,,,,,,,,,,,,,,,,,,5,1.17200017,5,0.338000059,1,0,1200,655,1,1199,name,11142,2019-10-21_18h02.03.693,SurveyExpMetaMem,3.2.3,Win32,60
,,,,,,,,,,,,,,,,,,,,8,1.512000084,2,0.340000153,1,0,1200,905,1,1199,suffocate,11142,2019-10-21_18h02.03.693,SurveyExpMetaMem,3.2.3,Win32,60
,,,,,,,,,,,,,,,,,,,,5,4.775000095,2,0.276000023,1,0,1200,314,1,1199,hopeless,11142,2019-10-21_18h02.03.693,SurveyExpMetaMem,3.2.3,Win32,60
,,,,,,,,,,,,,,,,,,,,5,1.597000122,7,2.488000154,1,0,1200,789,1,1199,green,11142,2019-10-21_18h02.03.693,SurveyExpMetaMem,3.2.3,Win32,60
,,,,,,,,,,,,,,,,,,,,7,1.606000185,8,0.624000072,1,0,1200,265,1,1199,invent,11142,2019-10-21_18h02.03.693,SurveyExpMetaMem,3.2.3,Win32,60
,,,,,,,,,,,,,,,,,,,,5,1.413000107,5,0.260999918,1,0,1200,716,1,1199,blouse,11142,2019-10-21_18h02.03.693,SurveyExpMetaMem,3.2.3,Win32,60
,,,,,,,,,,,,,,,,,,,,7,10.852,8,0.065999985,1,0,1200,2,1,1199,zealous,11142,2019-10-21_18h02.03.693,SurveyExpMetaMem,3.2.3,Win32,60
,,,,,,,,,,,,,,,,,,,,8,1.132000208,2,0.29399991,1,0,1200,909,1,1199,terrified,11142,2019-10-21_18h02.03.693,SurveyExpMetaMem,3.2.3,Win32,60
,,,,,,,,,,,,,,,,,,,,7,2.371000051,4,0.576000214,1,0,1200,1147,1,1199,demand,11142,2019-10-21_18h02.03.693,SurveyExpMetaMem,3.2.3,Win32,60
,,,,,,,,,,,,,,,,,,,,7,1.545000076,2,0.244999886,1,0,1200,933,1,1199,afraid,11142,2019-10-21_18h02.03.693,SurveyExpMetaMem,3.2.3,Win32,60
,,,,,,,,,,,,,,,,,,,,8,1.633000135,2,0.278000116,1,0,1200,971,1,1199,crash,11142,2019-10-21_18h02.03.693,SurveyExpMetaMem,3.2.3,Win32,60
,,,,,,,,,,,,,,,,,,,,5,1.279999971,5,0.1650002,1,0,1200,152,1,1199,hire,11142,2019-10-21_18h02.03.693,SurveyExpMetaMem,3.2.3,Win32,60
,,,,,,,,,,,,,,,,,,,,6,1.912000179,4,0.065000057,1,0,1200,283,1,1199,elated,11142,2019-10-21_18h02.03.693,SurveyExpMetaMem,3.2.3,Win32,60
,,,,,,,,,,,,,,,,,,,,8,3.157999992,1,0.55700016,1,0,1200,922,1,1199,nightmare,11142,2019-10-21_18h02.03.693,SurveyExpMetaMem,3.2.3,Win32,60
,,,,,,,,,,,,,,,,,,,,6,3.615999937,4,0.827000141,1,0,1200,548,1,1199,vague,11142,2019-10-21_18h02.03.693,SurveyExpMetaMem,3.2.3,Win32,60
,,,,,,,,,,,,,,,,,,,,7,2.148000002,6,1.705000162,1,0,1200,0,1,1199,dragon,11142,2019-10-21_18h02.03.693,SurveyExpMetaMem,3.2.3,Win32,60
,,,,,,,,,,,,,,,,,,,,5,3.906000137,4,0.92200017,1,0,1200,193,1,1199,party,11142,2019-10-21_18h02.03.693,SurveyExpMetaMem,3.2.3,Win32,60
,,,,,,,,,,,,,,,,,,,,3,3.65500021,5,1.876000166,1,0,1200,819,1,1199,sheep,11142,2019-10-21_18h02.03.693,SurveyExpMetaMem,3.2.3,Win32,60
,,,,,,,,,,,,,,,,,,,,7,2.186000109,4,0.639000177,1,0,1200,336,1,1199,wasteful,11142,2019-10-21_18h02.03.693,SurveyExpMetaMem,3.2.3,Win32,60
,,,,,,,,,,,,,,,,,,,,8,1.211999893,2,0.296999931,1,0,1200,928,1,1199,cruel,11142,2019-10-21_18h02.03.693,SurveyExpMetaMem,3.2.3,Win32,60
,,,,,,,,,,,,,,,,,,,,6,4.673000097,5,0.610000134,1,0,1200,1104,1,1199,avalanche,11142,2019-10-21_18h02.03.693,SurveyExpMetaMem,3.2.3,Win32,60
,,,,,,,,,,,,,,,,,,,,5,2.864000082,5,0.255000114,1,0,1200,765,1,1199,candid,11142,2019-10-21_18h02.03.693,SurveyExpMetaMem,3.2.3,Win32,60
,,,,,,,,,,,,,,,,,,,,8,1.20600009,1,0.460000277,1,0,1200,901,1,1199,rape,11142,2019-10-21_18h02.03.693,SurveyExpMetaMem,3.2.3,Win32,60
,,,,,,,,,,,,,,,,,,,,8,1.260999918,2,0.312000036,1,0,1200,925,1,1199,disloyal,11142,2019-10-21_18h02.03.693,SurveyExpMetaMem,3.2.3,Win32,60
,,,,,,,,,,,,,,,,,,,,7,5.957000017,3,0.889000177,1,0,1200,1013,1,1199,guilty,11142,2019-10-21_18h02.03.693,SurveyExpMetaMem,3.2.3,Win32,60
,,,,,,,,,,,,,,,,,,,,5,1.587000132,5,0.124000072,1,0,1200,1158,1,1199,dentist,11142,2019-10-21_18h02.03.693,SurveyExpMetaMem,3.2.3,Win32,60
,,,,,,,,,,,,,,,,,,,,6,2.582999945,3,1.480999947,1,0,1200,550,1,1199,fart,11142,2019-10-21_18h02.03.693,SurveyExpMetaMem,3.2.3,Win32,60
,,,,,,,,,,,,,,,,,,,,8,1.662000179,2,0.994999886,1,0,1200,1111,1,1199,bruise,11142,2019-10-21_18h02.03.693,SurveyExpMetaMem,3.2.3,Win32,60
,,,,,,,,,,,,,,,,,,,,5,2.387000084,5,0.138999939,1,0,1200,441,1,1199,prohibit,11142,2019-10-21_18h02.03.693,SurveyExpMetaMem,3.2.3,Win32,60
,,,,,,,,,,,,,,,,,,,,5,1.355000019,5,0.138000011,1,0,1200,521,1,1199,laundry,11142,2019-10-21_18h02.03.693,SurveyExpMetaMem,3.2.3,Win32,60
,,,,,,,,,,,,,,,,,,,,7,2.088000059,8,0.493000031,1,0,1200,1075,1,1199,apprehension,11142,2019-10-21_18h02.03.693,SurveyExpMetaMem,3.2.3,Win32,60
,,,,,,,,,,,,,,,,,,,,7,2.173000097,4,0.075000286,1,0,1200,1102,1,1199,nuclear,11142,2019-10-21_18h02.03.693,SurveyExpMetaMem,3.2.3,Win32,60
,,,,,,,,,,,,,,,,,,,,9,1.075999975,1,0.494000196,1,0,1200,1028,1,1199,terror,11142,2019-10-21_18h02.03.693,SurveyExpMetaMem,3.2.3,Win32,60
,,,,,,,,,,,,,,,,,,,,8,1.04700017,1,0.364000082,1,0,1200,1009,1,1199,frightened,11142,2019-10-21_18h02.03.693,SurveyExpMetaMem,3.2.3,Win32,60
,,,,,,,,,,,,,,,,,,,,6,3.295000076,2,1.215000153,1,0,1200,1143,1,1199,arrogant,11142,2019-10-21_18h02.03.693,SurveyExpMetaMem,3.2.3,Win32,60
,,,,,,,,,,,,,,,,,,,,5,1.506000042,5,0.157000065,1,0,1200,586,1,1199,cab,11142,2019-10-21_18h02.03.693,SurveyExpMetaMem,3.2.3,Win32,60
,,,,,,,,,,,,,,,,,,,,5,3.022000074,5,0.495000124,1,0,1200,1195,1,1199,speech,11142,2019-10-21_18h02.03.693,SurveyExpMetaMem,3.2.3,Win32,60
,,,,,,,,,,,,,,,,,,,,5,0.99000001,5,0.158000231,1,0,1200,576,1,1199,policy,11142,2019-10-21_18h02.03.693,SurveyExpMetaMem,3.2.3,Win32,60
,,,,,,,,,,,,,,,,,,,,5,1.440999985,5,0.159000158,1,0,1200,592,1,1199,sweep,11142,2019-10-21_18h02.03.693,SurveyExpMetaMem,3.2.3,Win32,60
,,,,,,,,,,,,,,,,,,,,8,1.555000067,9,0.072000265,1,0,1200,142,1,1199,christmas,11142,2019-10-21_18h02.03.693,SurveyExpMetaMem,3.2.3,Win32,60
,,,,,,,,,,,,,,,,,,,,6,3.08100009,2,0.322000027,1,0,1200,376,1,1199,incompetent,11142,2019-10-21_18h02.03.693,SurveyExpMetaMem,3.2.3,Win32,60
,,,,,,,,,,,,,,,,,,,,5,1.227000237,5,0.19900012,1,0,1200,604,1,1199,lamp,11142,2019-10-21_18h02.03.693,SurveyExpMetaMem,3.2.3,Win32,60
,,,,,,,,,,,,,,,,,,,,7,2.43200016,2,0.341000319,1,0,1200,327,1,1199,misfortune,11142,2019-10-21_18h02.03.693,SurveyExpMetaMem,3.2.3,Win32,60
,,,,,,,,,,,,,,,,,,,,8,1.571000099,2,0.572000027,1,0,1200,1037,1,1199,scared,11142,2019-10-21_18h02.03.693,SurveyExpMetaMem,3.2.3,Win32,60
,,,,,,,,,,,,,,,,,,,,5,1.298000097,5,0.171000004,1,0,1200,654,1,1199,brief,11142,2019-10-21_18h02.03.693,SurveyExpMetaMem,3.2.3,Win32,60
,,,,,,,,,,,,,,,,,,,,5,0.965000153,5,0.1650002,1,0,1200,658,1,1199,method,11142,2019-10-21_18h02.03.693,SurveyExpMetaMem,3.2.3,Win32,60
,,,,,,,,,,,,,,,,,,,,7,2.937000036,8,0.535000086,1,0,1200,634,1,1199,glacier,11142,2019-10-21_18h02.03.693,SurveyExpMetaMem,3.2.3,Win32,60
,,,,,,,,,,,,,,,,,,,,8,1.261000156,2,0.339999914,1,0,1200,1100,1,1199,evil,11142,2019-10-21_18h02.03.693,SurveyExpMetaMem,3.2.3,Win32,60
,,,,,,,,,,,,,,,,,,,,2,1.800000191,5,0.443000078,1,0,1200,854,1,1199,river,11142,2019-10-21_18h02.03.693,SurveyExpMetaMem,3.2.3,Win32,60
,,,,,,,,,,,,,,,,,,,,5,2.593000174,4,2.110000134,1,0,1200,555,1,1199,school,11142,2019-10-21_18h02.03.693,SurveyExpMetaMem,3.2.3,Win32,60
,,,,,,,,,,,,,,,,,,,,3,4.162000179,5,1.18200016,1,0,1200,780,1,1199,grass,11142,2019-10-21_18h02.03.693,SurveyExpMetaMem,3.2.3,Win32,60
,,,,,,,,,,,,,,,,,,,,5,1.771000147,5,0.150000095,1,0,1200,571,1,1199,marrow,11142,2019-10-21_18h02.03.693,SurveyExpMetaMem,3.2.3,Win32,60
,,,,,,,,,,,,,,,,,,,,5,0.90500021,5,0.150000095,1,0,1200,600,1,1199,parlor,11142,2019-10-21_18h02.03.693,SurveyExpMetaMem,3.2.3,Win32,60
,,,,,,,,,,,,,,,,,,,,8,2.115999937,8,0.446000099,1,0,1200,198,1,1199,comedy,11142,2019-10-21_18h02.03.693,SurveyExpMetaMem,3.2.3,Win32,60
,,,,,,,,,,,,,,,,,,,,7,2.007000208,2,0.32400012,1,0,1200,309,1,1199,homeless,11142,2019-10-21_18h02.03.693,SurveyExpMetaMem,3.2.3,Win32,60
,,,,,,,,,,,,,,,,,,,,6,3.730000257,7,0.095999956,1,0,1200,180,1,1199,embrace,11142,2019-10-21_18h02.03.693,SurveyExpMetaMem,3.2.3,Win32,60
,,,,,,,,,,,,,,,,,,,,8,1.571000099,2,0.573000193,1,0,1200,1186,1,1199,goddamn,11142,2019-10-21_18h02.03.693,SurveyExpMetaMem,3.2.3,Win32,60
,,,,,,,,,,,,,,,,,,,,8,2.421000242,3,0.214000225,1,0,1200,407,1,1199,handicap,11142,2019-10-21_18h02.03.693,SurveyExpMetaMem,3.2.3,Win32,60
,,,,,,,,,,,,,,,,,,,,5,4.570000172,5,0.542000055,1,0,1200,504,1,1199,cane,11142,2019-10-21_18h02.03.693,SurveyExpMetaMem,3.2.3,Win32,60
,,,,,,,,,,,,,,,,,,,,7,1.337000132,2,0.812000275,1,0,1200,1068,1,1199,riot,11142,2019-10-21_18h02.03.693,SurveyExpMetaMem,3.2.3,Win32,60
,,,,,,,,,,,,,,,,,,,,8,2.082000256,9,0.245000124,1,0,1200,281,1,1199,summer,11142,2019-10-21_18h02.03.693,SurveyExpMetaMem,3.2.3,Win32,60
,,,,,,,,,,,,,,,,,,,,7,4.392000198,3,0.358999968,1,0,1200,1194,1,1199,obsession,11142,2019-10-21_18h02.03.693,SurveyExpMetaMem,3.2.3,Win32,60
,,,,,,,,,,,,,,,,,,,,3,2.460000038,8,0.490000248,1,0,1200,857,1,1199,thankful,11142,2019-10-21_18h02.03.693,SurveyExpMetaMem,3.2.3,Win32,60
,,,,,,,,,,,,,,,,,,,,5,1.226000309,5,0.148999929,1,0,1200,432,1,1199,resign,11142,2019-10-21_18h02.03.693,SurveyExpMetaMem,3.2.3,Win32,60
,,,,,,,,,,,,,,,,,,,,5,1.243000031,5,0.142999887,1,0,1200,687,1,1199,skinny,11142,2019-10-21_18h02.03.693,SurveyExpMetaMem,3.2.3,Win32,60
,,,,,,,,,,,,,,,,,,,,8,1.787999868,8,0.154999971,1,0,1200,136,1,1199,dog,11142,2019-10-21_18h02.03.693,SurveyExpMetaMem,3.2.3,Win32,60
,,,,,,,,,,,,,,,,,,,,5,3.305000305,2,0.224999905,1,0,1200,316,1,1199,sorrow,11142,2019-10-21_18h02.03.693,SurveyExpMetaMem,3.2.3,Win32,60
,,,,,,,,,,,,,,,,,,,,5,1.179000139,5,0.130000114,1,0,1200,801,1,1199,noon,11142,2019-10-21_18h02.03.693,SurveyExpMetaMem,3.2.3,Win32,60
,,,,,,,,,,,,,,,,,,,,6,2.627000093,7,0.583000183,1,0,1200,270,1,1199,toddler,11142,2019-10-21_18h02.03.693,SurveyExpMetaMem,3.2.3,Win32,60
,,,,,,,,,,,,,,,,,,,,7,2.221000195,2,2.398000002,1,0,1200,1137,1,1199,knife,11142,2019-10-21_18h02.03.693,SurveyExpMetaMem,3.2.3,Win32,60
,,,,,,,,,,,,,,,,,,,,7,2.187999964,8,0.418000221,1,0,1200,865,1,1199,bliss,11142,2019-10-21_18h02.03.693,SurveyExpMetaMem,3.2.3,Win32,60
,,,,,,,,,,,,,,,,,,,,2,1.538000107,8,0.430000067,1,0,1200,897,1,1199,peaceful,11142,2019-10-21_18h02.03.693,SurveyExpMetaMem,3.2.3,Win32,60
,,,,,,,,,,,,,,,,,,,,8,1.555000067,2,0.382000208,1,0,1200,943,1,1199,trauma,11142,2019-10-21_18h02.03.693,SurveyExpMetaMem,3.2.3,Win32,60
,,,,,,,,,,,,,,,,,,,,5,3.174000025,3,0.889000177,1,0,1200,570,1,1199,muddy,11142,2019-10-21_18h02.03.693,SurveyExpMetaMem,3.2.3,Win32,60
,,,,,,,,,,,,,,,,,,,,6,1.633000135,3,0.289000273,1,0,1200,914,1,1199,fail,11142,2019-10-21_18h02.03.693,SurveyExpMetaMem,3.2.3,Win32,60
,,,,,,,,,,,,,,,,,,,,7,1.620000124,2,0.325000048,1,0,1200,348,1,1199,impotent,11142,2019-10-21_18h02.03.693,SurveyExpMetaMem,3.2.3,Win32,60
,,,,,,,,,,,,,,,,,,,,8,1.271000147,1,0.340000153,1,0,1200,941,1,1199,leprosy,11142,2019-10-21_18h02.03.693,SurveyExpMetaMem,3.2.3,Win32,60
,,,,,,,,,,,,,,,,,,,,9,0.955000162,1,0.309000254,1,0,1200,967,1,1199,horrible,11142,2019-10-21_18h02.03.693,SurveyExpMetaMem,3.2.3,Win32,60
,,,,,,,,,,,,,,,,,,,,8,1.10800004,1,0.333000183,1,0,1200,412,1,1199,mucus,11142,2019-10-21_18h02.03.693,SurveyExpMetaMem,3.2.3,Win32,60
,,,,,,,,,,,,,,,,,,,,2,3.226000071,7,0.323000193,1,0,1200,4,1,1199,night,11142,2019-10-21_18h02.03.693,SurveyExpMetaMem,3.2.3,Win32,60
,,,,,,,,,,,,,,,,,,,,7,1.398999929,3,0.294000149,1,0,1200,1071,1,1199,uncomfortable,11142,2019-10-21_18h02.03.693,SurveyExpMetaMem,3.2.3,Win32,60
,,,,,,,,,,,,,,,,,,,,5,2.225000143,5,0.277000189,1,0,1200,849,1,1199,blue,11142,2019-10-21_18h02.03.693,SurveyExpMetaMem,3.2.3,Win32,60
,,,,,,,,,,,,,,,,,,,,5,1.441999912,5,0.273000002,1,0,1200,791,1,1199,shoes,11142,2019-10-21_18h02.03.693,SurveyExpMetaMem,3.2.3,Win32,60
,,,,,,,,,,,,,,,,,,,,7,2.177999973,6,1.992000103,1,0,1200,1150,1,1199,forceful,11142,2019-10-21_18h02.03.693,SurveyExpMetaMem,3.2.3,Win32,60
,,,,,,,,,,,,,,,,,,,,5,3.301000118,5,0.795000076,1,0,1200,670,1,1199,urinate,11142,2019-10-21_18h02.03.693,SurveyExpMetaMem,3.2.3,Win32,60
,,,,,,,,,,,,,,,,,,,,7,2.771000147,7,0.561000109,1,0,1200,272,1,1199,confidence,11142,2019-10-21_18h02.03.693,SurveyExpMetaMem,3.2.3,Win32,60
,,,,,,,,,,,,,,,,,,,,5,2.771000147,5,0.46600008,1,0,1200,472,1,1199,bald,11142,2019-10-21_18h02.03.693,SurveyExpMetaMem,3.2.3,Win32,60
,,,,,,,,,,,,,,,,,,,,5,1.558000088,5,0.211000204,1,0,1200,1133,1,1199,slip,11142,2019-10-21_18h02.03.693,SurveyExpMetaMem,3.2.3,Win32,60
,,,,,,,,,,,,,,,,,,,,7,1.349999905,3,0.211000204,1,0,1200,1002,1,1199,wounds,11142,2019-10-21_18h02.03.693,SurveyExpMetaMem,3.2.3,Win32,60
,,,,,,,,,,,,,,,,,,,,8,1.532000065,8,0.155999899,1,0,1200,296,1,1199,awesome,11142,2019-10-21_18h02.03.693,SurveyExpMetaMem,3.2.3,Win32,60
,,,,,,,,,,,,,,,,,,,,5,1.642000198,5,0.151000261,1,0,1200,637,1,1199,flock,11142,2019-10-21_18h02.03.693,SurveyExpMetaMem,3.2.3,Win32,60
,,,,,,,,,,,,,,,,,,,,2,2.003000021,8,0.35800004,1,0,1200,805,1,1199,autumn,11142,2019-10-21_18h02.03.693,SurveyExpMetaMem,3.2.3,Win32,60
,,,,,,,,,,,,,,,,,,,,5,5.585999966,3,1.155999899,1,0,1200,569,1,1199,onion,11142,2019-10-21_18h02.03.693,SurveyExpMetaMem,3.2.3,Win32,60
,,,,,,,,,,,,,,,,,,,,9,2.259000063,9,0.516000271,1,0,1200,292,1,1199,birthday,11142,2019-10-21_18h02.03.693,SurveyExpMetaMem,3.2.3,Win32,60
,,,,,,,,,,,,,,,,,,,,7,2.567000151,7,1.198000193,1,0,1200,24,1,1199,model,11142,2019-10-21_18h02.03.693,SurveyExpMetaMem,3.2.3,Win32,60
,,,,,,,,,,,,,,,,,,,,5,1.54399991,5,0.477000237,1,0,1200,596,1,1199,factory,11142,2019-10-21_18h02.03.693,SurveyExpMetaMem,3.2.3,Win32,60
,,,,,,,,,,,,,,,,,,,,5,1.228000164,5,0.288000107,1,0,1200,748,1,1199,town,11142,2019-10-21_18h02.03.693,SurveyExpMetaMem,3.2.3,Win32,60
,,,,,,,,,,,,,,,,,,,,7,2.111000061,3,0.378000021,1,0,1200,342,1,1199,alienation,11142,2019-10-21_18h02.03.693,SurveyExpMetaMem,3.2.3,Win32,60
,,,,,,,,,,,,,,,,,,,,8,2.571000099,8,0.797999859,1,0,1200,298,1,1199,success,11142,2019-10-21_18h02.03.693,SurveyExpMetaMem,3.2.3,Win32,60
,,,,,,,,,,,,,,,,,,,,8,4.334000111,1,0.360000134,1,0,1200,584,1,1199,anus,11142,2019-10-21_18h02.03.693,SurveyExpMetaMem,3.2.3,Win32,60
,,,,,,,,,,,,,,,,,,,,2,2.756000042,9,0.462000132,1,0,1200,665,1,1199,read,11142,2019-10-21_18h02.03.693,SurveyExpMetaMem,3.2.3,Win32,60
,,,,,,,,,,,,,,,,,,,,8,2.014000177,9,0.563999891,1,0,1200,293,1,1199,succeed,11142,2019-10-21_18h02.03.693,SurveyExpMetaMem,3.2.3,Win32,60
,,,,,,,,,,,,,,,,,,,,5,2.703999996,5,0.617000103,1,0,1200,692,1,1199,medicine,11142,2019-10-21_18h02.03.693,SurveyExpMetaMem,3.2.3,Win32,60
,,,,,,,,,,,,,,,,,,,,6,1.778000116,7,0.325000048,1,0,1200,110,1,1199,animal,11142,2019-10-21_18h02.03.693,SurveyExpMetaMem,3.2.3,Win32,60
,,,,,,,,,,,,,,,,,,,,8,2.962000132,4,1.105999947,1,0,1200,1129,1,1199,spanking,11142,2019-10-21_18h02.03.693,SurveyExpMetaMem,3.2.3,Win32,60
,,,,,,,,,,,,,,,,,,,,6,6.509000063,4,0.256000042,1,0,1200,345,1,1199,unfortunate,11142,2019-10-21_18h02.03.693,SurveyExpMetaMem,3.2.3,Win32,60
,,,,,,,,,,,,,,,,,,,,7,1.815999985,3,0.154999971,1,0,1200,960,1,1199,irritated,11142,2019-10-21_18h02.03.693,SurveyExpMetaMem,3.2.3,Win32,60
,,,,,,,,,,,,,,,,,,,,7,1.410000086,8,0.080000162,1,0,1200,170,1,1199,entertainment,11142,2019-10-21_18h02.03.693,SurveyExpMetaMem,3.2.3,Win32,60
,,,,,,,,,,,,,,,,,,,,6,3.462000132,3,0.246000051,1,0,1200,1199,1,1199,expensive,11142,2019-10-21_18h02.03.693,SurveyExpMetaMem,3.2.3,Win32,60
,,,,,,,,,,,,,,,,,,,,2,1.567000151,8,0.450000048,1,0,1200,871,1,1199,comfort,11142,2019-10-21_18h02.03.693,SurveyExpMetaMem,3.2.3,Win32,60
,,,,,,,,,,,,,,,,,,,,5,1.062999964,5,0.13499999,1,0,1200,572,1,1199,cast,11142,2019-10-21_18h02.03.693,SurveyExpMetaMem,3.2.3,Win32,60
,,,,,,,,,,,,,,,,,,,,6,1.848999977,3,0.150000095,1,0,1200,913,1,1199,ulcer,11142,2019-10-21_18h02.03.693,SurveyExpMetaMem,3.2.3,Win32,60
,,,,,,,,,,,,,,,,,,,,5,0.933000326,5,0.137000084,1,0,1200,699,1,1199,leg,11142,2019-10-21_18h02.03.693,SurveyExpMetaMem,3.2.3,Win32,60
,,,,,,,,,,,,,,,,,,,,5,1.063000202,5,0.136000156,1,0,1200,1045,1,1199,scalding,11142,2019-10-21_18h02.03.693,SurveyExpMetaMem,3.2.3,Win32,60
,,,,,,,,,,,,,,,,,,,,8,3.055000067,2,0.43900013,1,0,1200,961,1,1199,crucify,11142,2019-10-21_18h02.03.693,SurveyExpMetaMem,3.2.3,Win32,60
,,,,,,,,,,,,,,,,,,,,7,1.476999998,3,0.295000076,1,0,1200,930,1,1199,poison,11142,2019-10-21_18h02.03.693,SurveyExpMetaMem,3.2.3,Win32,60
,,,,,,,,,,,,,,,,,,,,7,2.075000048,2,0.361999989,1,0,1200,1127,1,1199,spank,11142,2019-10-21_18h02.03.693,SurveyExpMetaMem,3.2.3,Win32,60
,,,,,,,,,,,,,,,,,,,,8,1.322999954,2,0.367000103,1,0,1200,973,1,1199,anger,11142,2019-10-21_18h02.03.693,SurveyExpMetaMem,3.2.3,Win32,60
,,,,,,,,,,,,,,,,,,,,6,2.372000217,3,0.340000153,1,0,1200,547,1,1199,cellar,11142,2019-10-21_18h02.03.693,SurveyExpMetaMem,3.2.3,Win32,60
,,,,,,,,,,,,,,,,,,,,5,1.521000147,5,0.146000147,1,0,1200,617,1,1199,tomato,11142,2019-10-21_18h02.03.693,SurveyExpMetaMem,3.2.3,Win32,60
,,,,,,,,,,,,,,,,,,,,7,1.815000057,8,0.254000187,1,0,1200,660,1,1199,rock,11142,2019-10-21_18h02.03.693,SurveyExpMetaMem,3.2.3,Win32,60
,,,,,,,,,,,,,,,,,,,,6,2.746999979,3,0.315999985,1,0,1200,1142,1,1199,disturb,11142,2019-10-21_18h02.03.693,SurveyExpMetaMem,3.2.3,Win32,60
,,,,,,,,,,,,,,,,,,,,3,3.640000105,6,0.879000187,1,0,1200,856,1,1199,leisurely,11142,2019-10-21_18h02.03.693,SurveyExpMetaMem,3.2.3,Win32,60
,,,,,,,,,,,,,,,,,,,,8,1.678000212,8,1.106000185,1,0,1200,164,1,1199,marry,11142,2019-10-21_18h02.03.693,SurveyExpMetaMem,3.2.3,Win32,60
,,,,,,,,,,,,,,,,,,,,8,2.092000246,2,0.650000095,1,0,1200,1035,1,1199,expel,11142,2019-10-21_18h02.03.693,SurveyExpMetaMem,3.2.3,Win32,60
,,,,,,,,,,,,,,,,,,,,5,1.320000172,5,0.132000208,1,0,1200,723,1,1199,cinnamon,11142,2019-10-21_18h02.03.693,SurveyExpMetaMem,3.2.3,Win32,60
,,,,,,,,,,,,,,,,,,,,6,11.19500017,3,0.321000099,1,0,1200,919,1,1199,loss,11142,2019-10-21_18h02.03.693,SurveyExpMetaMem,3.2.3,Win32,60
,,,,,,,,,,,,,,,,,,,,8,1.253000021,2,0.274000168,1,0,1200,115,1,1199,sexual,11142,2019-10-21_18h02.03.693,SurveyExpMetaMem,3.2.3,Win32,60
,,,,,,,,,,,,,,,,,,,,7,1.628000259,8,0.239000082,1,0,1200,96,1,1199,joke,11142,2019-10-21_18h02.03.693,SurveyExpMetaMem,3.2.3,Win32,60
,,,,,,,,,,,,,,,,,,,,5,2.525000095,5,0.171000242,1,0,1200,807,1,1199,person,11142,2019-10-21_18h02.03.693,SurveyExpMetaMem,3.2.3,Win32,60
,,,,,,,,,,,,,,,,,,,,5,1.174000025,5,0.17200017,1,0,1200,485,1,1199,pinch,11142,2019-10-21_18h02.03.693,SurveyExpMetaMem,3.2.3,Win32,60
,,,,,,,,,,,,,,,,,,,,7,2.446000099,1,0.264000177,1,0,1200,580,1,1199,fur,11142,2019-10-21_18h02.03.693,SurveyExpMetaMem,3.2.3,Win32,60
,,,,,,,,,,,,,,,,,,,,5,1.874000072,5,0.157000065,1,0,1200,845,1,1199,honey,11142,2019-10-21_18h02.03.693,SurveyExpMetaMem,3.2.3,Win32,60
,,,,,,,,,,,,,,,,,,,,9,1.154000282,1,0.387000084,1,0,1200,904,1,1199,murderer,11142,2019-10-21_18h02.03.693,SurveyExpMetaMem,3.2.3,Win32,60
