mouse_4.x,mouse_4.y,mouse_4.leftButton,mouse_4.midButton,mouse_4.rightButton,mouse.x,mouse.y,mouse.leftButton,mouse.midButton,mouse.rightButton,mouse_2.x,mouse_2.y,mouse_2.leftButton,mouse_2.midButton,mouse_2.rightButton,mouse_3.x,mouse_3.y,mouse_3.leftButton,mouse_3.midButton,mouse_3.rightButton,A_key_resp.keys,A_key_resp.rt,key_resp.keys,key_resp.rt,trials.thisRepN,trials.thisTrialN,trials.thisN,trials.thisIndex,trials.ran,trials.order,word,ParticipantID,date,expName,psychopyVersion,OS,frameRate
0.100000015,-0.186111121,1,0,0,0.100000015,-0.186111121,1,0,0,0.040740755,-0.046296304,1,0,0,0.040740755,-0.046296304,1,0,0,3,11.3499999,7,4.950999975,1,0,1200,808,1,1199,violinist,11129,2019-10-22_14h36.16.526,SurveyExpMetaMem,3.2.3,Win32,60
,,,,,,,,,,,,,,,,,,,,5,3.90199995,5,0.789000034,1,0,1200,1034,1,1199,pester,11129,2019-10-22_14h36.16.526,SurveyExpMetaMem,3.2.3,Win32,60
,,,,,,,,,,,,,,,,,,,,1,7.143999815,6,3.538999796,1,0,1200,623,1,1199,suburban,11129,2019-10-22_14h36.16.526,SurveyExpMetaMem,3.2.3,Win32,60
,,,,,,,,,,,,,,,,,,,,4,15.63199997,2,2.25399971,1,0,1200,1054,1,1199,jealous,11129,2019-10-22_14h36.16.526,SurveyExpMetaMem,3.2.3,Win32,60
,,,,,,,,,,,,,,,,,,,,3,2.536999941,3,1.679999828,1,0,1200,1063,1,1199,quarrel,11129,2019-10-22_14h36.16.526,SurveyExpMetaMem,3.2.3,Win32,60
,,,,,,,,,,,,,,,,,,,,6,5.645999908,8,2.402999878,1,0,1200,47,1,1199,enjoy,11129,2019-10-22_14h36.16.526,SurveyExpMetaMem,3.2.3,Win32,60
,,,,,,,,,,,,,,,,,,,,6,4.061999798,4,1.721999884,1,0,1200,101,1,1199,alien,11129,2019-10-22_14h36.16.526,SurveyExpMetaMem,3.2.3,Win32,60
,,,,,,,,,,,,,,,,,,,,5,4.184999943,5,0.562999964,1,0,1200,615,1,1199,lad,11129,2019-10-22_14h36.16.526,SurveyExpMetaMem,3.2.3,Win32,60
,,,,,,,,,,,,,,,,,,,,5,5.579999924,5,0.179999828,1,0,1200,349,1,1199,mope,11129,2019-10-22_14h36.16.526,SurveyExpMetaMem,3.2.3,Win32,60
,,,,,,,,,,,,,,,,,,,,7,3.957999945,5,2.048999786,1,0,1200,1154,1,1199,politics,11129,2019-10-22_14h36.16.526,SurveyExpMetaMem,3.2.3,Win32,60
,,,,,,,,,,,,,,,,,,,,7,2.003999949,7,2.200999737,1,0,1200,150,1,1199,vodka,11129,2019-10-22_14h36.16.526,SurveyExpMetaMem,3.2.3,Win32,60
,,,,,,,,,,,,,,,,,,,,5,12.41999984,6,1.160999775,1,0,1200,797,1,1199,hamburger,11129,2019-10-22_14h36.16.526,SurveyExpMetaMem,3.2.3,Win32,60
,,,,,,,,,,,,,,,,,,,,3,4.538999796,3,1.076999903,1,0,1200,558,1,1199,punk,11129,2019-10-22_14h36.16.526,SurveyExpMetaMem,3.2.3,Win32,60
,,,,,,,,,,,,,,,,,,,,8,11.92799973,2,2.062000036,1,0,1200,1156,1,1199,weapon,11129,2019-10-22_14h36.16.526,SurveyExpMetaMem,3.2.3,Win32,60
,,,,,,,,,,,,,,,,,,,,5,3.994999886,5,0.198999882,1,0,1200,869,1,1199,assure,11129,2019-10-22_14h36.16.526,SurveyExpMetaMem,3.2.3,Win32,60
,,,,,,,,,,,,,,,,,,,,6,3.629999876,7,1.187999964,1,0,1200,34,1,1199,personality,11129,2019-10-22_14h36.16.526,SurveyExpMetaMem,3.2.3,Win32,60
,,,,,,,,,,,,,,,,,,,,5,2.805999756,5,0.154000044,1,0,1200,331,1,1199,casket,11129,2019-10-22_14h36.16.526,SurveyExpMetaMem,3.2.3,Win32,60
,,,,,,,,,,,,,,,,,,,,5,2.301999807,5,0.422999859,1,0,1200,709,1,1199,ancestor,11129,2019-10-22_14h36.16.526,SurveyExpMetaMem,3.2.3,Win32,60
,,,,,,,,,,,,,,,,,,,,6,1.578999996,8,3.205999851,1,0,1200,181,1,1199,fascinate,11129,2019-10-22_14h36.16.526,SurveyExpMetaMem,3.2.3,Win32,60
,,,,,,,,,,,,,,,,,,,,5,4.203999996,5,0.138999701,1,0,1200,151,1,1199,react,11129,2019-10-22_14h36.16.526,SurveyExpMetaMem,3.2.3,Win32,60
,,,,,,,,,,,,,,,,,,,,7,3.155999899,2,1.305999756,1,0,1200,904,1,1199,murderer,11129,2019-10-22_14h36.16.526,SurveyExpMetaMem,3.2.3,Win32,60
,,,,,,,,,,,,,,,,,,,,5,1.746999979,5,0.141999722,1,0,1200,1133,1,1199,slip,11129,2019-10-22_14h36.16.526,SurveyExpMetaMem,3.2.3,Win32,60
,,,,,,,,,,,,,,,,,,,,7,1.970999956,7,0.223999977,1,0,1200,26,1,1199,inspired,11129,2019-10-22_14h36.16.526,SurveyExpMetaMem,3.2.3,Win32,60
,,,,,,,,,,,,,,,,,,,,5,2.10800004,5,0.23300004,1,0,1200,518,1,1199,report,11129,2019-10-22_14h36.16.526,SurveyExpMetaMem,3.2.3,Win32,60
,,,,,,,,,,,,,,,,,,,,5,1.991999865,5,0.212999821,1,0,1200,771,1,1199,practical,11129,2019-10-22_14h36.16.526,SurveyExpMetaMem,3.2.3,Win32,60
,,,,,,,,,,,,,,,,,,,,8,7.176999807,8,1.138999939,1,0,1200,36,1,1199,puppy,11129,2019-10-22_14h36.16.526,SurveyExpMetaMem,3.2.3,Win32,60
,,,,,,,,,,,,,,,,,,,,7,2.111000061,7,0.224999905,1,0,1200,876,1,1199,politeness,11129,2019-10-22_14h36.16.526,SurveyExpMetaMem,3.2.3,Win32,60
,,,,,,,,,,,,,,,,,,,,6,3.108999729,6,0.548999786,1,0,1200,109,1,1199,new,11129,2019-10-22_14h36.16.526,SurveyExpMetaMem,3.2.3,Win32,60
,,,,,,,,,,,,,,,,,,,,5,4.171999931,5,0.154999733,1,0,1200,471,1,1199,chump,11129,2019-10-22_14h36.16.526,SurveyExpMetaMem,3.2.3,Win32,60
,,,,,,,,,,,,,,,,,,,,5,3.14599967,5,0.207999945,1,0,1200,540,1,1199,derelict,11129,2019-10-22_14h36.16.526,SurveyExpMetaMem,3.2.3,Win32,60
,,,,,,,,,,,,,,,,,,,,7,1.713999748,7,0.207999706,1,0,1200,296,1,1199,awesome,11129,2019-10-22_14h36.16.526,SurveyExpMetaMem,3.2.3,Win32,60
,,,,,,,,,,,,,,,,,,,,5,1.296000004,5,0.171000004,1,0,1200,504,1,1199,cane,11129,2019-10-22_14h36.16.526,SurveyExpMetaMem,3.2.3,Win32,60
,,,,,,,,,,,,,,,,,,,,8,4.735999823,1,1.384999752,1,0,1200,1038,1,1199,pervert,11129,2019-10-22_14h36.16.526,SurveyExpMetaMem,3.2.3,Win32,60
,,,,,,,,,,,,,,,,,,,,9,4.894999743,1,0.961999893,1,0,1200,909,1,1199,terrified,11129,2019-10-22_14h36.16.526,SurveyExpMetaMem,3.2.3,Win32,60
,,,,,,,,,,,,,,,,,,,,5,1.552999735,5,0.170999765,1,0,1200,560,1,1199,spurn,11129,2019-10-22_14h36.16.526,SurveyExpMetaMem,3.2.3,Win32,60
,,,,,,,,,,,,,,,,,,,,3,3.790999889,3,1.170999765,1,0,1200,470,1,1199,cynical,11129,2019-10-22_14h36.16.526,SurveyExpMetaMem,3.2.3,Win32,60
,,,,,,,,,,,,,,,,,,,,5,2.604999781,5,0.179999828,1,0,1200,327,1,1199,misfortune,11129,2019-10-22_14h36.16.526,SurveyExpMetaMem,3.2.3,Win32,60
,,,,,,,,,,,,,,,,,,,,7,3.602999926,1,1.172999859,1,0,1200,976,1,1199,tumor,11129,2019-10-22_14h36.16.526,SurveyExpMetaMem,3.2.3,Win32,60
,,,,,,,,,,,,,,,,,,,,8,4.267999887,8,4.558999777,1,0,1200,1,1,1199,fuck,11129,2019-10-22_14h36.16.526,SurveyExpMetaMem,3.2.3,Win32,60
,,,,,,,,,,,,,,,,,,,,5,1.944999933,5,0.154999971,1,0,1200,730,1,1199,slogan,11129,2019-10-22_14h36.16.526,SurveyExpMetaMem,3.2.3,Win32,60
,,,,,,,,,,,,,,,,,,,,5,1.07799983,5,0.230000019,1,0,1200,509,1,1199,ash,11129,2019-10-22_14h36.16.526,SurveyExpMetaMem,3.2.3,Win32,60
,,,,,,,,,,,,,,,,,,,,7,1.954999924,7,0.372999907,1,0,1200,162,1,1199,royalty,11129,2019-10-22_14h36.16.526,SurveyExpMetaMem,3.2.3,Win32,60
,,,,,,,,,,,,,,,,,,,,5,3.296999693,5,0.162999868,1,0,1200,723,1,1199,cinnamon,11129,2019-10-22_14h36.16.526,SurveyExpMetaMem,3.2.3,Win32,60
,,,,,,,,,,,,,,,,,,,,7,1.411999941,7,0.170999765,1,0,1200,245,1,1199,beach,11129,2019-10-22_14h36.16.526,SurveyExpMetaMem,3.2.3,Win32,60
,,,,,,,,,,,,,,,,,,,,6,2.847999811,2,0.573999882,1,0,1200,485,1,1199,pinch,11129,2019-10-22_14h36.16.526,SurveyExpMetaMem,3.2.3,Win32,60
,,,,,,,,,,,,,,,,,,,,5,1.647999763,5,0.178999662,1,0,1200,241,1,1199,car,11129,2019-10-22_14h36.16.526,SurveyExpMetaMem,3.2.3,Win32,60
,,,,,,,,,,,,,,,,,,,,7,4.102999687,1,0.830999851,1,0,1200,1076,1,1199,embarrassed,11129,2019-10-22_14h36.16.526,SurveyExpMetaMem,3.2.3,Win32,60
,,,,,,,,,,,,,,,,,,,,5,3.186999798,5,0.193999767,1,0,1200,625,1,1199,hat,11129,2019-10-22_14h36.16.526,SurveyExpMetaMem,3.2.3,Win32,60
,,,,,,,,,,,,,,,,,,,,5,2.086999893,5,0.220999956,1,0,1200,843,1,1199,garden,11129,2019-10-22_14h36.16.526,SurveyExpMetaMem,3.2.3,Win32,60
,,,,,,,,,,,,,,,,,,,,8,1.920999765,8,2.108999729,1,0,1200,49,1,1199,ecstatic,11129,2019-10-22_14h36.16.526,SurveyExpMetaMem,3.2.3,Win32,60
,,,,,,,,,,,,,,,,,,,,7,3.106999874,8,0.755999804,1,0,1200,170,1,1199,entertainment,11129,2019-10-22_14h36.16.526,SurveyExpMetaMem,3.2.3,Win32,60
,,,,,,,,,,,,,,,,,,,,5,3.747999907,5,1.096999884,1,0,1200,822,1,1199,clearer,11129,2019-10-22_14h36.16.526,SurveyExpMetaMem,3.2.3,Win32,60
,,,,,,,,,,,,,,,,,,,,5,2.694999695,5,0.324999809,1,0,1200,251,1,1199,meteor,11129,2019-10-22_14h36.16.526,SurveyExpMetaMem,3.2.3,Win32,60
,,,,,,,,,,,,,,,,,,,,7,1.878999949,7,1.217000008,1,0,1200,278,1,1199,king,11129,2019-10-22_14h36.16.526,SurveyExpMetaMem,3.2.3,Win32,60
,,,,,,,,,,,,,,,,,,,,7,4.440999746,3,1.430999756,1,0,1200,458,1,1199,refuse,11129,2019-10-22_14h36.16.526,SurveyExpMetaMem,3.2.3,Win32,60
,,,,,,,,,,,,,,,,,,,,8,2.257999897,7,2.106999874,1,0,1200,568,1,1199,therapy,11129,2019-10-22_14h36.16.526,SurveyExpMetaMem,3.2.3,Win32,60
,,,,,,,,,,,,,,,,,,,,5,1.526999712,5,0.337999821,1,0,1200,1165,1,1199,revolt,11129,2019-10-22_14h36.16.526,SurveyExpMetaMem,3.2.3,Win32,60
,,,,,,,,,,,,,,,,,,,,7,1.456999779,7,1.006000042,1,0,1200,792,1,1199,moral,11129,2019-10-22_14h36.16.526,SurveyExpMetaMem,3.2.3,Win32,60
,,,,,,,,,,,,,,,,,,,,8,3.989999771,1,0.512999773,1,0,1200,938,1,1199,seasick,11129,2019-10-22_14h36.16.526,SurveyExpMetaMem,3.2.3,Win32,60
,,,,,,,,,,,,,,,,,,,,8,1.71999979,1,1.595999718,1,0,1200,39,1,1199,birth,11129,2019-10-22_14h36.16.526,SurveyExpMetaMem,3.2.3,Win32,60
,,,,,,,,,,,,,,,,,,,,5,5.757999897,5,0.172999859,1,0,1200,590,1,1199,stool,11129,2019-10-22_14h36.16.526,SurveyExpMetaMem,3.2.3,Win32,60
,,,,,,,,,,,,,,,,,,,,7,2.082000017,3,0.628000021,1,0,1200,459,1,1199,heavy,11129,2019-10-22_14h36.16.526,SurveyExpMetaMem,3.2.3,Win32,60
,,,,,,,,,,,,,,,,,,,,5,1.653999805,5,0.372999907,1,0,1200,757,1,1199,sentiment,11129,2019-10-22_14h36.16.526,SurveyExpMetaMem,3.2.3,Win32,60
,,,,,,,,,,,,,,,,,,,,5,0.248999834,2,3.930999756,1,0,1200,1081,1,1199,damage,11129,2019-10-22_14h36.16.526,SurveyExpMetaMem,3.2.3,Win32,60
,,,,,,,,,,,,,,,,,,,,5,5.374999762,2,1.064999819,1,0,1200,370,1,1199,rodent,11129,2019-10-22_14h36.16.526,SurveyExpMetaMem,3.2.3,Win32,60
,,,,,,,,,,,,,,,,,,,,5,2.329999924,3,0.638000011,1,0,1200,527,1,1199,passive,11129,2019-10-22_14h36.16.526,SurveyExpMetaMem,3.2.3,Win32,60
,,,,,,,,,,,,,,,,,,,,7,3.306999683,2,1.397999763,1,0,1200,967,1,1199,horrible,11129,2019-10-22_14h36.16.526,SurveyExpMetaMem,3.2.3,Win32,60
,,,,,,,,,,,,,,,,,,,,5,1.29399991,5,0.189999819,1,0,1200,511,1,1199,slouch,11129,2019-10-22_14h36.16.526,SurveyExpMetaMem,3.2.3,Win32,60
,,,,,,,,,,,,,,,,,,,,7,1.387999773,2,0.187999725,1,0,1200,1157,1,1199,slayer,11129,2019-10-22_14h36.16.526,SurveyExpMetaMem,3.2.3,Win32,60
,,,,,,,,,,,,,,,,,,,,6,3.660999775,2,0.166999817,1,0,1200,547,1,1199,cellar,11129,2019-10-22_14h36.16.526,SurveyExpMetaMem,3.2.3,Win32,60
,,,,,,,,,,,,,,,,,,,,8,1.774999857,2,0.383999825,1,0,1200,1004,1,1199,burglar,11129,2019-10-22_14h36.16.526,SurveyExpMetaMem,3.2.3,Win32,60
,,,,,,,,,,,,,,,,,,,,8,3.14199996,8,0.847999811,1,0,1200,187,1,1199,excite,11129,2019-10-22_14h36.16.526,SurveyExpMetaMem,3.2.3,Win32,60
,,,,,,,,,,,,,,,,,,,,5,1.412999868,5,0.247999907,1,0,1200,850,1,1199,lake,11129,2019-10-22_14h36.16.526,SurveyExpMetaMem,3.2.3,Win32,60
,,,,,,,,,,,,,,,,,,,,5,1.342000008,5,0.177999973,1,0,1200,205,1,1199,outspoken,11129,2019-10-22_14h36.16.526,SurveyExpMetaMem,3.2.3,Win32,60
,,,,,,,,,,,,,,,,,,,,7,1.746999741,2,2.203999758,1,0,1200,441,1,1199,prohibit,11129,2019-10-22_14h36.16.526,SurveyExpMetaMem,3.2.3,Win32,60
,,,,,,,,,,,,,,,,,,,,5,2.471999884,5,0.137999773,1,0,1200,816,1,1199,hippotamus,11129,2019-10-22_14h36.16.526,SurveyExpMetaMem,3.2.3,Win32,60
,,,,,,,,,,,,,,,,,,,,6,2.537999868,6,0.167999983,1,0,1200,566,1,1199,obscure,11129,2019-10-22_14h36.16.526,SurveyExpMetaMem,3.2.3,Win32,60
,,,,,,,,,,,,,,,,,,,,5,4.70299983,5,0.163999796,1,0,1200,735,1,1199,tea,11129,2019-10-22_14h36.16.526,SurveyExpMetaMem,3.2.3,Win32,60
,,,,,,,,,,,,,,,,,,,,8,2.886999846,8,0.180999756,1,0,1200,96,1,1199,joke,11129,2019-10-22_14h36.16.526,SurveyExpMetaMem,3.2.3,Win32,60
,,,,,,,,,,,,,,,,,,,,7,2.187999725,4,1.246999741,1,0,1200,1199,1,1199,expensive,11129,2019-10-22_14h36.16.526,SurveyExpMetaMem,3.2.3,Win32,60
,,,,,,,,,,,,,,,,,,,,7,1.845999718,7,0.177999973,1,0,1200,614,1,1199,crossword,11129,2019-10-22_14h36.16.526,SurveyExpMetaMem,3.2.3,Win32,60
,,,,,,,,,,,,,,,,,,,,5,4.17599988,5,0.130999804,1,0,1200,474,1,1199,weary,11129,2019-10-22_14h36.16.526,SurveyExpMetaMem,3.2.3,Win32,60
,,,,,,,,,,,,,,,,,,,,5,1.256999731,5,0.196999788,1,0,1200,662,1,1199,bib,11129,2019-10-22_14h36.16.526,SurveyExpMetaMem,3.2.3,Win32,60
,,,,,,,,,,,,,,,,,,,,8,1.720999956,2,0.221999884,1,0,1200,950,1,1199,murder,11129,2019-10-22_14h36.16.526,SurveyExpMetaMem,3.2.3,Win32,60
,,,,,,,,,,,,,,,,,,,,5,1.260999918,5,0.144999743,1,0,1200,760,1,1199,shrimp,11129,2019-10-22_14h36.16.526,SurveyExpMetaMem,3.2.3,Win32,60
,,,,,,,,,,,,,,,,,,,,5,0.956999779,5,0.182999849,1,0,1200,554,1,1199,label,11129,2019-10-22_14h36.16.526,SurveyExpMetaMem,3.2.3,Win32,60
,,,,,,,,,,,,,,,,,,,,4,3.804999828,1,0.638999939,1,0,1200,301,1,1199,sad,11129,2019-10-22_14h36.16.526,SurveyExpMetaMem,3.2.3,Win32,60
,,,,,,,,,,,,,,,,,,,,1,0.126999855,1,3.490999699,1,0,1200,972,1,1199,homicide,11129,2019-10-22_14h36.16.526,SurveyExpMetaMem,3.2.3,Win32,60
,,,,,,,,,,,,,,,,,,,,7,5.410999775,7,2.046000004,1,0,1200,94,1,1199,engaged,11129,2019-10-22_14h36.16.526,SurveyExpMetaMem,3.2.3,Win32,60
,,,,,,,,,,,,,,,,,,,,5,2.855999947,5,0.147999763,1,0,1200,655,1,1199,name,11129,2019-10-22_14h36.16.526,SurveyExpMetaMem,3.2.3,Win32,60
,,,,,,,,,,,,,,,,,,,,6,5.251999855,6,0.372999907,1,0,1200,227,1,1199,musician,11129,2019-10-22_14h36.16.526,SurveyExpMetaMem,3.2.3,Win32,60
,,,,,,,,,,,,,,,,,,,,5,5.366999865,5,0.355999708,1,0,1200,798,1,1199,crystal,11129,2019-10-22_14h36.16.526,SurveyExpMetaMem,3.2.3,Win32,60
,,,,,,,,,,,,,,,,,,,,5,1.903999805,5,0.221999884,1,0,1200,1177,1,1199,pang,11129,2019-10-22_14h36.16.526,SurveyExpMetaMem,3.2.3,Win32,60
,,,,,,,,,,,,,,,,,,,,5,1.13599968,5,0.203999758,1,0,1200,119,1,1199,stereo,11129,2019-10-22_14h36.16.526,SurveyExpMetaMem,3.2.3,Win32,60
,,,,,,,,,,,,,,,,,,,,3,2.354999781,3,0.194000006,1,0,1200,329,1,1199,worse,11129,2019-10-22_14h36.16.526,SurveyExpMetaMem,3.2.3,Win32,60
,,,,,,,,,,,,,,,,,,,,5,3.710999966,5,0.224999905,1,0,1200,668,1,1199,unit,11129,2019-10-22_14h36.16.526,SurveyExpMetaMem,3.2.3,Win32,60
,,,,,,,,,,,,,,,,,,,,7,5.801999807,2,0.872999907,1,0,1200,932,1,1199,bankrupt,11129,2019-10-22_14h36.16.526,SurveyExpMetaMem,3.2.3,Win32,60
,,,,,,,,,,,,,,,,,,,,5,2.296999931,5,0.167999744,1,0,1200,576,1,1199,policy,11129,2019-10-22_14h36.16.526,SurveyExpMetaMem,3.2.3,Win32,60
,,,,,,,,,,,,,,,,,,,,6,3.136999846,2,0.23699975,1,0,1200,317,1,1199,cry,11129,2019-10-22_14h36.16.526,SurveyExpMetaMem,3.2.3,Win32,60
,,,,,,,,,,,,,,,,,,,,7,2.686999798,7,0.2099998,1,0,1200,146,1,1199,congratulations,11129,2019-10-22_14h36.16.526,SurveyExpMetaMem,3.2.3,Win32,60
,,,,,,,,,,,,,,,,,,,,5,1.904999971,5,0.18599987,1,0,1200,431,1,1199,itch,11129,2019-10-22_14h36.16.526,SurveyExpMetaMem,3.2.3,Win32,60
,,,,,,,,,,,,,,,,,,,,5,1.286999941,5,0.194000006,1,0,1200,866,1,1199,haven,11129,2019-10-22_14h36.16.526,SurveyExpMetaMem,3.2.3,Win32,60
,,,,,,,,,,,,,,,,,,,,7,1.399999857,7,0.191999912,1,0,1200,139,1,1199,generosity,11129,2019-10-22_14h36.16.526,SurveyExpMetaMem,3.2.3,Win32,60
,,,,,,,,,,,,,,,,,,,,5,3.858999729,5,0.173999786,1,0,1200,1023,1,1199,disorder,11129,2019-10-22_14h36.16.526,SurveyExpMetaMem,3.2.3,Win32,60
,,,,,,,,,,,,,,,,,,,,7,1.983999968,7,0.206999779,1,0,1200,217,1,1199,bravery,11129,2019-10-22_14h36.16.526,SurveyExpMetaMem,3.2.3,Win32,60
,,,,,,,,,,,,,,,,,,,,2,1.945999861,2,0.237999916,1,0,1200,347,1,1199,unpleasant,11129,2019-10-22_14h36.16.526,SurveyExpMetaMem,3.2.3,Win32,60
,,,,,,,,,,,,,,,,,,,,5,5.605999947,5,0.191999912,1,0,1200,858,1,1199,donate,11129,2019-10-22_14h36.16.526,SurveyExpMetaMem,3.2.3,Win32,60
,,,,,,,,,,,,,,,,,,,,4,4.455999851,7,1.318999767,1,0,1200,237,1,1199,beautiful,11129,2019-10-22_14h36.16.526,SurveyExpMetaMem,3.2.3,Win32,60
,,,,,,,,,,,,,,,,,,,,5,2.107999802,5,0.155999899,1,0,1200,356,1,1199,mucous,11129,2019-10-22_14h36.16.526,SurveyExpMetaMem,3.2.3,Win32,60
,,,,,,,,,,,,,,,,,,,,4,3.024999857,8,0.912999868,1,0,1200,221,1,1199,sparkle,11129,2019-10-22_14h36.16.526,SurveyExpMetaMem,3.2.3,Win32,60
,,,,,,,,,,,,,,,,,,,,3,2.651999712,8,0.839999914,1,0,1200,874,1,1199,butterfly,11129,2019-10-22_14h36.16.526,SurveyExpMetaMem,3.2.3,Win32,60
,,,,,,,,,,,,,,,,,,,,5,1.193999767,5,0.145999908,1,0,1200,65,1,1199,restaurant,11129,2019-10-22_14h36.16.526,SurveyExpMetaMem,3.2.3,Win32,60
,,,,,,,,,,,,,,,,,,,,7,3.652999878,2,0.29399991,1,0,1200,970,1,1199,worry,11129,2019-10-22_14h36.16.526,SurveyExpMetaMem,3.2.3,Win32,60
,,,,,,,,,,,,,,,,,,,,5,2.036999941,5,0.146999836,1,0,1200,542,1,1199,loose,11129,2019-10-22_14h36.16.526,SurveyExpMetaMem,3.2.3,Win32,60
,,,,,,,,,,,,,,,,,,,,5,1.421999693,5,0.188999891,1,0,1200,380,1,1199,expire,11129,2019-10-22_14h36.16.526,SurveyExpMetaMem,3.2.3,Win32,60
,,,,,,,,,,,,,,,,,,,,7,4.539999723,3,1.614999771,1,0,1200,1175,1,1199,prostitute,11129,2019-10-22_14h36.16.526,SurveyExpMetaMem,3.2.3,Win32,60
,,,,,,,,,,,,,,,,,,,,5,1.45299983,5,0.155999899,1,0,1200,461,1,1199,ail,11129,2019-10-22_14h36.16.526,SurveyExpMetaMem,3.2.3,Win32,60
,,,,,,,,,,,,,,,,,,,,5,0.954999924,5,0.167000055,1,0,1200,996,1,1199,sting,11129,2019-10-22_14h36.16.526,SurveyExpMetaMem,3.2.3,Win32,60
,,,,,,,,,,,,,,,,,,,,7,1.431999683,2,0.521999836,1,0,1200,918,1,1199,gunpoint,11129,2019-10-22_14h36.16.526,SurveyExpMetaMem,3.2.3,Win32,60
,,,,,,,,,,,,,,,,,,,,5,2.369999886,5,0.151999712,1,0,1200,1067,1,1199,wicked,11129,2019-10-22_14h36.16.526,SurveyExpMetaMem,3.2.3,Win32,60
,,,,,,,,,,,,,,,,,,,,5,1.330999851,5,0.172999859,1,0,1200,122,1,1199,prince,11129,2019-10-22_14h36.16.526,SurveyExpMetaMem,3.2.3,Win32,60
,,,,,,,,,,,,,,,,,,,,5,3.885999918,5,0.2099998,1,0,1200,57,1,1199,important,11129,2019-10-22_14h36.16.526,SurveyExpMetaMem,3.2.3,Win32,60
,,,,,,,,,,,,,,,,,,,,5,1.84499979,5,0.181999683,1,0,1200,640,1,1199,cabin,11129,2019-10-22_14h36.16.526,SurveyExpMetaMem,3.2.3,Win32,60
,,,,,,,,,,,,,,,,,,,,6,3.654999733,2,0.162999868,1,0,1200,1119,1,1199,confusion,11129,2019-10-22_14h36.16.526,SurveyExpMetaMem,3.2.3,Win32,60
,,,,,,,,,,,,,,,,,,,,5,1.918999672,5,0.180000067,1,0,1200,604,1,1199,lamp,11129,2019-10-22_14h36.16.526,SurveyExpMetaMem,3.2.3,Win32,60
,,,,,,,,,,,,,,,,,,,,7,2.758999825,7,1.075999975,1,0,1200,38,1,1199,cheeseburger,11129,2019-10-22_14h36.16.526,SurveyExpMetaMem,3.2.3,Win32,60
,,,,,,,,,,,,,,,,,,,,5,2.379999876,5,0.228999853,1,0,1200,594,1,1199,moss,11129,2019-10-22_14h36.16.526,SurveyExpMetaMem,3.2.3,Win32,60
,,,,,,,,,,,,,,,,,,,,6,2.18599987,2,0.389999866,1,0,1200,313,1,1199,rotten,11129,2019-10-22_14h36.16.526,SurveyExpMetaMem,3.2.3,Win32,60
,,,,,,,,,,,,,,,,,,,,5,1.229999781,5,0.264999866,1,0,1200,539,1,1199,novice,11129,2019-10-22_14h36.16.526,SurveyExpMetaMem,3.2.3,Win32,60
,,,,,,,,,,,,,,,,,,,,7,17.40199995,5,1.404999733,1,0,1200,1183,1,1199,emotional,11129,2019-10-22_14h36.16.526,SurveyExpMetaMem,3.2.3,Win32,60
,,,,,,,,,,,,,,,,,,,,7,2.372999907,7,0.25999999,1,0,1200,239,1,1199,compassionate,11129,2019-10-22_14h36.16.526,SurveyExpMetaMem,3.2.3,Win32,60
,,,,,,,,,,,,,,,,,,,,5,1.635999918,5,0.173999786,1,0,1200,860,1,1199,silk,11129,2019-10-22_14h36.16.526,SurveyExpMetaMem,3.2.3,Win32,60
,,,,,,,,,,,,,,,,,,,,8,1.778999805,2,0.190000057,1,0,1200,961,1,1199,crucify,11129,2019-10-22_14h36.16.526,SurveyExpMetaMem,3.2.3,Win32,60
,,,,,,,,,,,,,,,,,,,,5,5.394999981,5,0.361999989,1,0,1200,482,1,1199,cell,11129,2019-10-22_14h36.16.526,SurveyExpMetaMem,3.2.3,Win32,60
,,,,,,,,,,,,,,,,,,,,5,2.998999834,5,0.288999796,1,0,1200,639,1,1199,outlet,11129,2019-10-22_14h36.16.526,SurveyExpMetaMem,3.2.3,Win32,60
,,,,,,,,,,,,,,,,,,,,5,1.391000032,5,0.237999678,1,0,1200,156,1,1199,gym,11129,2019-10-22_14h36.16.526,SurveyExpMetaMem,3.2.3,Win32,60
,,,,,,,,,,,,,,,,,,,,7,3.355999708,3,0.504999876,1,0,1200,962,1,1199,poisonous,11129,2019-10-22_14h36.16.526,SurveyExpMetaMem,3.2.3,Win32,60
,,,,,,,,,,,,,,,,,,,,6,2.789999723,2,0.774999857,1,0,1200,957,1,1199,debt,11129,2019-10-22_14h36.16.526,SurveyExpMetaMem,3.2.3,Win32,60
,,,,,,,,,,,,,,,,,,,,7,1.875,7,0.197000027,1,0,1200,19,1,1199,firefighter,11129,2019-10-22_14h36.16.526,SurveyExpMetaMem,3.2.3,Win32,60
,,,,,,,,,,,,,,,,,,,,5,1.909999847,5,0.157999992,1,0,1200,386,1,1199,pale,11129,2019-10-22_14h36.16.526,SurveyExpMetaMem,3.2.3,Win32,60
,,,,,,,,,,,,,,,,,,,,5,1.128999949,5,0.195999861,1,0,1200,472,1,1199,bald,11129,2019-10-22_14h36.16.526,SurveyExpMetaMem,3.2.3,Win32,60
,,,,,,,,,,,,,,,,,,,,5,3.671000004,5,0.158999681,1,0,1200,777,1,1199,casual,11129,2019-10-22_14h36.16.526,SurveyExpMetaMem,3.2.3,Win32,60
,,,,,,,,,,,,,,,,,,,,5,1.558999777,5,0.187000036,1,0,1200,813,1,1199,walking,11129,2019-10-22_14h36.16.526,SurveyExpMetaMem,3.2.3,Win32,60
,,,,,,,,,,,,,,,,,,,,5,2.359999657,2,0.320999861,1,0,1200,376,1,1199,incompetent,11129,2019-10-22_14h36.16.526,SurveyExpMetaMem,3.2.3,Win32,60
,,,,,,,,,,,,,,,,,,,,7,4.985999823,2,0.519999743,1,0,1200,1141,1,1199,shark,11129,2019-10-22_14h36.16.526,SurveyExpMetaMem,3.2.3,Win32,60
,,,,,,,,,,,,,,,,,,,,7,2.076999903,2,0.190999746,1,0,1200,975,1,1199,insecure,11129,2019-10-22_14h36.16.526,SurveyExpMetaMem,3.2.3,Win32,60
,,,,,,,,,,,,,,,,,,,,5,1.212999821,5,0.157999992,1,0,1200,3,1,1199,nudist,11129,2019-10-22_14h36.16.526,SurveyExpMetaMem,3.2.3,Win32,60
,,,,,,,,,,,,,,,,,,,,5,1.68599987,5,0.149999857,1,0,1200,402,1,1199,dismissive,11129,2019-10-22_14h36.16.526,SurveyExpMetaMem,3.2.3,Win32,60
,,,,,,,,,,,,,,,,,,,,7,1.774999857,7,0.163999796,1,0,1200,90,1,1199,satisfaction,11129,2019-10-22_14h36.16.526,SurveyExpMetaMem,3.2.3,Win32,60
,,,,,,,,,,,,,,,,,,,,5,2.137999773,5,0.148999929,1,0,1200,581,1,1199,dork,11129,2019-10-22_14h36.16.526,SurveyExpMetaMem,3.2.3,Win32,60
,,,,,,,,,,,,,,,,,,,,6,2.045999765,6,0.161999702,1,0,1200,191,1,1199,compassion,11129,2019-10-22_14h36.16.526,SurveyExpMetaMem,3.2.3,Win32,60
,,,,,,,,,,,,,,,,,,,,5,2.580999851,5,0.161999702,1,0,1200,1050,1,1199,scorn,11129,2019-10-22_14h36.16.526,SurveyExpMetaMem,3.2.3,Win32,60
,,,,,,,,,,,,,,,,,,,,6,2.001999855,6,0.514999866,1,0,1200,766,1,1199,flag,11129,2019-10-22_14h36.16.526,SurveyExpMetaMem,3.2.3,Win32,60
,,,,,,,,,,,,,,,,,,,,7,5.32799983,6,1.123999834,1,0,1200,10,1,1199,cheerleader,11129,2019-10-22_14h36.16.526,SurveyExpMetaMem,3.2.3,Win32,60
,,,,,,,,,,,,,,,,,,,,8,2.391999722,8,0.222999811,1,0,1200,805,1,1199,autumn,11129,2019-10-22_14h36.16.526,SurveyExpMetaMem,3.2.3,Win32,60
,,,,,,,,,,,,,,,,,,,,5,2.691999912,5,0.148999691,1,0,1200,740,1,1199,groceries,11129,2019-10-22_14h36.16.526,SurveyExpMetaMem,3.2.3,Win32,60
,,,,,,,,,,,,,,,,,,,,6,1.863999844,3,0.307999849,1,0,1200,1088,1,1199,forbid,11129,2019-10-22_14h36.16.526,SurveyExpMetaMem,3.2.3,Win32,60
,,,,,,,,,,,,,,,,,,,,8,4.295000076,8,0.230999947,1,0,1200,185,1,1199,flirt,11129,2019-10-22_14h36.16.526,SurveyExpMetaMem,3.2.3,Win32,60
,,,,,,,,,,,,,,,,,,,,5,8.939999819,5,0.205999851,1,0,1200,806,1,1199,tree,11129,2019-10-22_14h36.16.526,SurveyExpMetaMem,3.2.3,Win32,60
,,,,,,,,,,,,,,,,,,,,5,1.297999859,5,0.2099998,1,0,1200,188,1,1199,profit,11129,2019-10-22_14h36.16.526,SurveyExpMetaMem,3.2.3,Win32,60
,,,,,,,,,,,,,,,,,,,,4,8.384999752,2,2.595999956,1,0,1200,1016,1,1199,awful,11129,2019-10-22_14h36.16.526,SurveyExpMetaMem,3.2.3,Win32,60
,,,,,,,,,,,,,,,,,,,,7,4.18599987,2,0.540999889,1,0,1200,912,1,1199,rabies,11129,2019-10-22_14h36.16.526,SurveyExpMetaMem,3.2.3,Win32,60
,,,,,,,,,,,,,,,,,,,,5,6.019999981,5,0.155999899,1,0,1200,58,1,1199,boost,11129,2019-10-22_14h36.16.526,SurveyExpMetaMem,3.2.3,Win32,60
,,,,,,,,,,,,,,,,,,,,6,4.296000004,2,0.424999714,1,0,1200,1131,1,1199,envious,11129,2019-10-22_14h36.16.526,SurveyExpMetaMem,3.2.3,Win32,60
,,,,,,,,,,,,,,,,,,,,5,1.185999632,5,0.139999866,1,0,1200,480,1,1199,hinder,11129,2019-10-22_14h36.16.526,SurveyExpMetaMem,3.2.3,Win32,60
,,,,,,,,,,,,,,,,,,,,5,1.748999834,5,0.152999878,1,0,1200,877,1,1199,bless,11129,2019-10-22_14h36.16.526,SurveyExpMetaMem,3.2.3,Win32,60
,,,,,,,,,,,,,,,,,,,,6,1.585000038,2,0.174999952,1,0,1200,1002,1,1199,wounds,11129,2019-10-22_14h36.16.526,SurveyExpMetaMem,3.2.3,Win32,60
,,,,,,,,,,,,,,,,,,,,7,1.614999771,7,0.197999716,1,0,1200,87,1,1199,cookie,11129,2019-10-22_14h36.16.526,SurveyExpMetaMem,3.2.3,Win32,60
,,,,,,,,,,,,,,,,,,,,5,1.585999966,5,0.153999805,1,0,1200,821,1,1199,cottage,11129,2019-10-22_14h36.16.526,SurveyExpMetaMem,3.2.3,Win32,60
,,,,,,,,,,,,,,,,,,,,8,2.516000032,8,0.320999861,1,0,1200,45,1,1199,sex,11129,2019-10-22_14h36.16.526,SurveyExpMetaMem,3.2.3,Win32,60
,,,,,,,,,,,,,,,,,,,,5,1.227999687,5,0.180999994,1,0,1200,772,1,1199,ornament,11129,2019-10-22_14h36.16.526,SurveyExpMetaMem,3.2.3,Win32,60
,,,,,,,,,,,,,,,,,,,,6,1.586999893,6,0.154999971,1,0,1200,131,1,1199,treat,11129,2019-10-22_14h36.16.526,SurveyExpMetaMem,3.2.3,Win32,60
,,,,,,,,,,,,,,,,,,,,6,2.210999966,6,0.172999859,1,0,1200,238,1,1199,sunshine,11129,2019-10-22_14h36.16.526,SurveyExpMetaMem,3.2.3,Win32,60
,,,,,,,,,,,,,,,,,,,,5,3.06799984,5,0.163999796,1,0,1200,417,1,1199,dummy,11129,2019-10-22_14h36.16.526,SurveyExpMetaMem,3.2.3,Win32,60
,,,,,,,,,,,,,,,,,,,,5,1.256999731,5,0.189999819,1,0,1200,746,1,1199,proper,11129,2019-10-22_14h36.16.526,SurveyExpMetaMem,3.2.3,Win32,60
,,,,,,,,,,,,,,,,,,,,7,2.22300005,7,0.186999798,1,0,1200,240,1,1199,giggles,11129,2019-10-22_14h36.16.526,SurveyExpMetaMem,3.2.3,Win32,60
,,,,,,,,,,,,,,,,,,,,5,3.062999964,5,0.171999931,1,0,1200,256,1,1199,galaxy,11129,2019-10-22_14h36.16.526,SurveyExpMetaMem,3.2.3,Win32,60
,,,,,,,,,,,,,,,,,,,,5,2.508999825,5,0.429999828,1,0,1200,565,1,1199,frozen,11129,2019-10-22_14h36.16.526,SurveyExpMetaMem,3.2.3,Win32,60
,,,,,,,,,,,,,,,,,,,,5,2.257999897,5,0.174000025,1,0,1200,1011,1,1199,robber,11129,2019-10-22_14h36.16.526,SurveyExpMetaMem,3.2.3,Win32,60
,,,,,,,,,,,,,,,,,,,,5,7.147999763,5,0.171999693,1,0,1200,733,1,1199,poetry,11129,2019-10-22_14h36.16.526,SurveyExpMetaMem,3.2.3,Win32,60
,,,,,,,,,,,,,,,,,,,,6,2.878999949,3,0.424000025,1,0,1200,1176,1,1199,vampire,11129,2019-10-22_14h36.16.526,SurveyExpMetaMem,3.2.3,Win32,60
,,,,,,,,,,,,,,,,,,,,4,2.893999815,4,0.620999813,1,0,1200,1077,1,1199,unsure,11129,2019-10-22_14h36.16.526,SurveyExpMetaMem,3.2.3,Win32,60
,,,,,,,,,,,,,,,,,,,,7,2.426999807,1,1.102999926,1,0,1200,906,1,1199,syphilis,11129,2019-10-22_14h36.16.526,SurveyExpMetaMem,3.2.3,Win32,60
,,,,,,,,,,,,,,,,,,,,7,3.073999882,7,0.204999685,1,0,1200,43,1,1199,diamond,11129,2019-10-22_14h36.16.526,SurveyExpMetaMem,3.2.3,Win32,60
,,,,,,,,,,,,,,,,,,,,7,1.369999886,7,0.187999725,1,0,1200,223,1,1199,fashion,11129,2019-10-22_14h36.16.526,SurveyExpMetaMem,3.2.3,Win32,60
,,,,,,,,,,,,,,,,,,,,5,1.376999855,5,0.171999931,1,0,1200,428,1,1199,end,11129,2019-10-22_14h36.16.526,SurveyExpMetaMem,3.2.3,Win32,60
,,,,,,,,,,,,,,,,,,,,5,1.637999773,5,0.205999851,1,0,1200,577,1,1199,retreat,11129,2019-10-22_14h36.16.526,SurveyExpMetaMem,3.2.3,Win32,60
,,,,,,,,,,,,,,,,,,,,5,1.120999813,5,0.424999952,1,0,1200,1187,1,1199,drill,11129,2019-10-22_14h36.16.526,SurveyExpMetaMem,3.2.3,Win32,60
,,,,,,,,,,,,,,,,,,,,7,3.507999659,3,2.073999882,1,0,1200,1122,1,1199,gossip,11129,2019-10-22_14h36.16.526,SurveyExpMetaMem,3.2.3,Win32,60
,,,,,,,,,,,,,,,,,,,,5,1.771999836,5,0.180999756,1,0,1200,326,1,1199,scam,11129,2019-10-22_14h36.16.526,SurveyExpMetaMem,3.2.3,Win32,60
,,,,,,,,,,,,,,,,,,,,5,1.871999741,5,0.154999971,1,0,1200,637,1,1199,flock,11129,2019-10-22_14h36.16.526,SurveyExpMetaMem,3.2.3,Win32,60
,,,,,,,,,,,,,,,,,,,,7,4.556999922,6,0.885999918,1,0,1200,243,1,1199,fame,11129,2019-10-22_14h36.16.526,SurveyExpMetaMem,3.2.3,Win32,60
,,,,,,,,,,,,,,,,,,,,5,2.720999718,5,0.148999929,1,0,1200,665,1,1199,read,11129,2019-10-22_14h36.16.526,SurveyExpMetaMem,3.2.3,Win32,60
,,,,,,,,,,,,,,,,,,,,8,2.360999823,4,1.282999754,1,0,1200,1179,1,1199,nerves,11129,2019-10-22_14h36.16.526,SurveyExpMetaMem,3.2.3,Win32,60
,,,,,,,,,,,,,,,,,,,,5,3.99399972,5,0.19299984,1,0,1200,1085,1,1199,sever,11129,2019-10-22_14h36.16.526,SurveyExpMetaMem,3.2.3,Win32,60
,,,,,,,,,,,,,,,,,,,,5,2.638000011,5,0.138999701,1,0,1200,818,1,1199,priest,11129,2019-10-22_14h36.16.526,SurveyExpMetaMem,3.2.3,Win32,60
,,,,,,,,,,,,,,,,,,,,6,4.06099987,2,1.387999773,1,0,1200,1130,1,1199,slut,11129,2019-10-22_14h36.16.526,SurveyExpMetaMem,3.2.3,Win32,60
,,,,,,,,,,,,,,,,,,,,5,4.126999855,5,0.227999926,1,0,1200,246,1,1199,complete,11129,2019-10-22_14h36.16.526,SurveyExpMetaMem,3.2.3,Win32,60
,,,,,,,,,,,,,,,,,,,,5,0.156999826,1,3.377999783,1,0,1200,1000,1,1199,threat,11129,2019-10-22_14h36.16.526,SurveyExpMetaMem,3.2.3,Win32,60
,,,,,,,,,,,,,,,,,,,,7,4.246999741,1,1.47300005,1,0,1200,1022,1,1199,creepy,11129,2019-10-22_14h36.16.526,SurveyExpMetaMem,3.2.3,Win32,60
,,,,,,,,,,,,,,,,,,,,5,3.553999901,5,0.174999952,1,0,1200,75,1,1199,actor,11129,2019-10-22_14h36.16.526,SurveyExpMetaMem,3.2.3,Win32,60
,,,,,,,,,,,,,,,,,,,,7,1.68599987,3,0.427000046,1,0,1200,924,1,1199,terrible,11129,2019-10-22_14h36.16.526,SurveyExpMetaMem,3.2.3,Win32,60
,,,,,,,,,,,,,,,,,,,,5,1.572000027,5,0.223999977,1,0,1200,528,1,1199,dirt,11129,2019-10-22_14h36.16.526,SurveyExpMetaMem,3.2.3,Win32,60
,,,,,,,,,,,,,,,,,,,,4,3.169999838,4,0.28399992,1,0,1200,552,1,1199,shadow,11129,2019-10-22_14h36.16.526,SurveyExpMetaMem,3.2.3,Win32,60
,,,,,,,,,,,,,,,,,,,,5,4.603999853,5,0.171999931,1,0,1200,1192,1,1199,startled,11129,2019-10-22_14h36.16.526,SurveyExpMetaMem,3.2.3,Win32,60
,,,,,,,,,,,,,,,,,,,,5,0.881999969,5,0.194999933,1,0,1200,686,1,1199,phone,11129,2019-10-22_14h36.16.526,SurveyExpMetaMem,3.2.3,Win32,60
,,,,,,,,,,,,,,,,,,,,5,1.855999947,5,0.224999905,1,0,1200,500,1,1199,nosey,11129,2019-10-22_14h36.16.526,SurveyExpMetaMem,3.2.3,Win32,60
,,,,,,,,,,,,,,,,,,,,5,1.549999714,5,0.186999798,1,0,1200,692,1,1199,medicine,11129,2019-10-22_14h36.16.526,SurveyExpMetaMem,3.2.3,Win32,60
,,,,,,,,,,,,,,,,,,,,6,3.788999796,2,0.710999966,1,0,1200,966,1,1199,regretful,11129,2019-10-22_14h36.16.526,SurveyExpMetaMem,3.2.3,Win32,60
,,,,,,,,,,,,,,,,,,,,5,1.888999701,5,0.142999887,1,0,1200,1089,1,1199,ridicule,11129,2019-10-22_14h36.16.526,SurveyExpMetaMem,3.2.3,Win32,60
,,,,,,,,,,,,,,,,,,,,6,1.527999878,3,0.438999891,1,0,1200,1018,1,1199,distress,11129,2019-10-22_14h36.16.526,SurveyExpMetaMem,3.2.3,Win32,60
,,,,,,,,,,,,,,,,,,,,7,1.618999958,6,1.363999844,1,0,1200,37,1,1199,magnificence,11129,2019-10-22_14h36.16.526,SurveyExpMetaMem,3.2.3,Win32,60
,,,,,,,,,,,,,,,,,,,,5,1.992999792,5,0.19299984,1,0,1200,1164,1,1199,battle,11129,2019-10-22_14h36.16.526,SurveyExpMetaMem,3.2.3,Win32,60
,,,,,,,,,,,,,,,,,,,,7,3.286999702,7,0.499999762,1,0,1200,357,1,1199,whine,11129,2019-10-22_14h36.16.526,SurveyExpMetaMem,3.2.3,Win32,60
,,,,,,,,,,,,,,,,,,,,7,2.085999727,2,0.455999851,1,0,1200,484,1,1199,leave,11129,2019-10-22_14h36.16.526,SurveyExpMetaMem,3.2.3,Win32,60
,,,,,,,,,,,,,,,,,,,,5,3.028999805,5,0.170999765,1,0,1200,887,1,1199,elegant,11129,2019-10-22_14h36.16.526,SurveyExpMetaMem,3.2.3,Win32,60
,,,,,,,,,,,,,,,,,,,,6,2.349999666,6,0.223999977,1,0,1200,230,1,1199,eager,11129,2019-10-22_14h36.16.526,SurveyExpMetaMem,3.2.3,Win32,60
,,,,,,,,,,,,,,,,,,,,5,1.72300005,5,0.190999746,1,0,1200,650,1,1199,native,11129,2019-10-22_14h36.16.526,SurveyExpMetaMem,3.2.3,Win32,60
,,,,,,,,,,,,,,,,,,,,5,1.720999956,5,0.348999739,1,0,1200,564,1,1199,wane,11129,2019-10-22_14h36.16.526,SurveyExpMetaMem,3.2.3,Win32,60
,,,,,,,,,,,,,,,,,,,,5,1.470000029,5,0.14599967,1,0,1200,166,1,1199,unite,11129,2019-10-22_14h36.16.526,SurveyExpMetaMem,3.2.3,Win32,60
,,,,,,,,,,,,,,,,,,,,7,2.751999855,2,0.382999897,1,0,1200,1151,1,1199,drama,11129,2019-10-22_14h36.16.526,SurveyExpMetaMem,3.2.3,Win32,60
,,,,,,,,,,,,,,,,,,,,5,1.137999773,5,0.89199996,1,0,1200,844,1,1199,soul,11129,2019-10-22_14h36.16.526,SurveyExpMetaMem,3.2.3,Win32,60
,,,,,,,,,,,,,,,,,,,,5,0.775999784,5,0.15899992,1,0,1200,454,1,1199,damp,11129,2019-10-22_14h36.16.526,SurveyExpMetaMem,3.2.3,Win32,60
,,,,,,,,,,,,,,,,,,,,6,1.771999836,6,0.155999899,1,0,1200,1191,1,1199,evade,11129,2019-10-22_14h36.16.526,SurveyExpMetaMem,3.2.3,Win32,60
,,,,,,,,,,,,,,,,,,,,4,1.68599987,4,0.162999868,1,0,1200,781,1,1199,emerald,11129,2019-10-22_14h36.16.526,SurveyExpMetaMem,3.2.3,Win32,60
,,,,,,,,,,,,,,,,,,,,5,1.112999916,5,0.154999733,1,0,1200,79,1,1199,dazzle,11129,2019-10-22_14h36.16.526,SurveyExpMetaMem,3.2.3,Win32,60
,,,,,,,,,,,,,,,,,,,,7,2.38499999,4,0.725999832,1,0,1200,0,1,1199,dragon,11129,2019-10-22_14h36.16.526,SurveyExpMetaMem,3.2.3,Win32,60
,,,,,,,,,,,,,,,,,,,,8,1.757999897,5,1.042000055,1,0,1200,5,1,1199,drunk,11129,2019-10-22_14h36.16.526,SurveyExpMetaMem,3.2.3,Win32,60
,,,,,,,,,,,,,,,,,,,,8,3.940999746,3,0.945999861,1,0,1200,1005,1,1199,pissed,11129,2019-10-22_14h36.16.526,SurveyExpMetaMem,3.2.3,Win32,60
,,,,,,,,,,,,,,,,,,,,5,1.46999979,5,0.169999838,1,0,1200,582,1,1199,cling,11129,2019-10-22_14h36.16.526,SurveyExpMetaMem,3.2.3,Win32,60
,,,,,,,,,,,,,,,,,,,,5,0.756000042,5,0.162999868,1,0,1200,807,1,1199,person,11129,2019-10-22_14h36.16.526,SurveyExpMetaMem,3.2.3,Win32,60
,,,,,,,,,,,,,,,,,,,,7,2.014999866,1,0.729999781,1,0,1200,1036,1,1199,anxiety,11129,2019-10-22_14h36.16.526,SurveyExpMetaMem,3.2.3,Win32,60
,,,,,,,,,,,,,,,,,,,,5,1.48699975,5,0.141000032,1,0,1200,497,1,1199,pungent,11129,2019-10-22_14h36.16.526,SurveyExpMetaMem,3.2.3,Win32,60
,,,,,,,,,,,,,,,,,,,,7,1.754999876,1,0.569999695,1,0,1200,1039,1,1199,stalk,11129,2019-10-22_14h36.16.526,SurveyExpMetaMem,3.2.3,Win32,60
,,,,,,,,,,,,,,,,,,,,5,1.232999802,5,0.982999802,1,0,1200,249,1,1199,award,11129,2019-10-22_14h36.16.526,SurveyExpMetaMem,3.2.3,Win32,60
,,,,,,,,,,,,,,,,,,,,5,0.905999899,5,0.322999954,1,0,1200,466,1,1199,gnaw,11129,2019-10-22_14h36.16.526,SurveyExpMetaMem,3.2.3,Win32,60
,,,,,,,,,,,,,,,,,,,,5,1.020999908,5,0.146999836,1,0,1200,691,1,1199,circle,11129,2019-10-22_14h36.16.526,SurveyExpMetaMem,3.2.3,Win32,60
,,,,,,,,,,,,,,,,,,,,5,1.373999834,5,0.155999899,1,0,1200,690,1,1199,similar,11129,2019-10-22_14h36.16.526,SurveyExpMetaMem,3.2.3,Win32,60
,,,,,,,,,,,,,,,,,,,,5,0.994999647,5,0.173999786,1,0,1200,1044,1,1199,lost,11129,2019-10-22_14h36.16.526,SurveyExpMetaMem,3.2.3,Win32,60
,,,,,,,,,,,,,,,,,,,,5,1.133999825,5,0.155999899,1,0,1200,33,1,1199,sister,11129,2019-10-22_14h36.16.526,SurveyExpMetaMem,3.2.3,Win32,60
,,,,,,,,,,,,,,,,,,,,7,1.937999725,3,1.312999964,1,0,1200,1149,1,1199,fight,11129,2019-10-22_14h36.16.526,SurveyExpMetaMem,3.2.3,Win32,60
,,,,,,,,,,,,,,,,,,,,5,2.153999805,5,0.304999828,1,0,1200,1181,1,1199,blade,11129,2019-10-22_14h36.16.526,SurveyExpMetaMem,3.2.3,Win32,60
,,,,,,,,,,,,,,,,,,,,5,1.447999954,5,0.172999859,1,0,1200,610,1,1199,miniature,11129,2019-10-22_14h36.16.526,SurveyExpMetaMem,3.2.3,Win32,60
,,,,,,,,,,,,,,,,,,,,5,1.047999859,5,0.203999758,1,0,1200,51,1,1199,body,11129,2019-10-22_14h36.16.526,SurveyExpMetaMem,3.2.3,Win32,60
,,,,,,,,,,,,,,,,,,,,5,3.366999626,5,0.159999847,1,0,1200,157,1,1199,reveal,11129,2019-10-22_14h36.16.526,SurveyExpMetaMem,3.2.3,Win32,60
,,,,,,,,,,,,,,,,,,,,7,1.71999979,7,0.157000065,1,0,1200,236,1,1199,amaze,11129,2019-10-22_14h36.16.526,SurveyExpMetaMem,3.2.3,Win32,60
,,,,,,,,,,,,,,,,,,,,5,1.788999796,5,0.196999788,1,0,1200,546,1,1199,solemn,11129,2019-10-22_14h36.16.526,SurveyExpMetaMem,3.2.3,Win32,60
,,,,,,,,,,,,,,,,,,,,7,1.989000082,2,0.125999928,1,0,1200,378,1,1199,dislike,11129,2019-10-22_14h36.16.526,SurveyExpMetaMem,3.2.3,Win32,60
,,,,,,,,,,,,,,,,,,,,5,1.144999743,5,0.170000076,1,0,1200,555,1,1199,school,11129,2019-10-22_14h36.16.526,SurveyExpMetaMem,3.2.3,Win32,60
,,,,,,,,,,,,,,,,,,,,5,1.073999882,5,0.182999849,1,0,1200,1055,1,1199,alarm,11129,2019-10-22_14h36.16.526,SurveyExpMetaMem,3.2.3,Win32,60
,,,,,,,,,,,,,,,,,,,,5,1.431999922,5,0.174999952,1,0,1200,783,1,1199,sprinkle,11129,2019-10-22_14h36.16.526,SurveyExpMetaMem,3.2.3,Win32,60
,,,,,,,,,,,,,,,,,,,,6,1.786999941,2,1.505999804,1,0,1200,949,1,1199,thief,11129,2019-10-22_14h36.16.526,SurveyExpMetaMem,3.2.3,Win32,60
,,,,,,,,,,,,,,,,,,,,6,2.303999662,6,0.220999718,1,0,1200,731,1,1199,decency,11129,2019-10-22_14h36.16.526,SurveyExpMetaMem,3.2.3,Win32,60
,,,,,,,,,,,,,,,,,,,,4,7.020999908,2,0.182999849,1,0,1200,341,1,1199,stinky,11129,2019-10-22_14h36.16.526,SurveyExpMetaMem,3.2.3,Win32,60
,,,,,,,,,,,,,,,,,,,,4,6.217999935,4,0.25,1,0,1200,255,1,1199,ass,11129,2019-10-22_14h36.16.526,SurveyExpMetaMem,3.2.3,Win32,60
,,,,,,,,,,,,,,,,,,,,5,1.533999681,5,0.161999941,1,0,1200,359,1,1199,bored,11129,2019-10-22_14h36.16.526,SurveyExpMetaMem,3.2.3,Win32,60
,,,,,,,,,,,,,,,,,,,,7,3.757999897,7,0.222999811,1,0,1200,275,1,1199,brilliant,11129,2019-10-22_14h36.16.526,SurveyExpMetaMem,3.2.3,Win32,60
,,,,,,,,,,,,,,,,,,,,8,2.129999876,5,0.546999931,1,0,1200,1134,1,1199,obsessed,11129,2019-10-22_14h36.16.526,SurveyExpMetaMem,3.2.3,Win32,60
,,,,,,,,,,,,,,,,,,,,5,4.457999945,5,0.144999743,1,0,1200,562,1,1199,average,11129,2019-10-22_14h36.16.526,SurveyExpMetaMem,3.2.3,Win32,60
,,,,,,,,,,,,,,,,,,,,5,1.95299983,5,0.210999727,1,0,1200,56,1,1199,spice,11129,2019-10-22_14h36.16.526,SurveyExpMetaMem,3.2.3,Win32,60
,,,,,,,,,,,,,,,,,,,,6,2.886999846,4,0.258999825,1,0,1200,363,1,1199,dumb,11129,2019-10-22_14h36.16.526,SurveyExpMetaMem,3.2.3,Win32,60
,,,,,,,,,,,,,,,,,,,,7,3.085999966,5,0.598999977,1,0,1200,1032,1,1199,exam,11129,2019-10-22_14h36.16.526,SurveyExpMetaMem,3.2.3,Win32,60
,,,,,,,,,,,,,,,,,,,,6,7.235999823,5,2.019999743,1,0,1200,802,1,1199,familiar,11129,2019-10-22_14h36.16.526,SurveyExpMetaMem,3.2.3,Win32,60
,,,,,,,,,,,,,,,,,,,,6,3.701999664,6,0.186999798,1,0,1200,17,1,1199,outgoing,11129,2019-10-22_14h36.16.526,SurveyExpMetaMem,3.2.3,Win32,60
,,,,,,,,,,,,,,,,,,,,5,1.619999886,5,0.144999743,1,0,1200,438,1,1199,dull,11129,2019-10-22_14h36.16.526,SurveyExpMetaMem,3.2.3,Win32,60
,,,,,,,,,,,,,,,,,,,,4,2.420999765,4,0.204999924,1,0,1200,524,1,1199,sigh,11129,2019-10-22_14h36.16.526,SurveyExpMetaMem,3.2.3,Win32,60
,,,,,,,,,,,,,,,,,,,,5,6.546999931,5,0.17599988,1,0,1200,211,1,1199,surfer,11129,2019-10-22_14h36.16.526,SurveyExpMetaMem,3.2.3,Win32,60
,,,,,,,,,,,,,,,,,,,,6,2.404999733,6,0.222999811,1,0,1200,1108,1,1199,spider,11129,2019-10-22_14h36.16.526,SurveyExpMetaMem,3.2.3,Win32,60
,,,,,,,,,,,,,,,,,,,,5,4.221999884,3,0.455999851,1,0,1200,956,1,1199,crushed,11129,2019-10-22_14h36.16.526,SurveyExpMetaMem,3.2.3,Win32,60
,,,,,,,,,,,,,,,,,,,,5,1.454999924,5,0.187999964,1,0,1200,693,1,1199,key,11129,2019-10-22_14h36.16.526,SurveyExpMetaMem,3.2.3,Win32,60
,,,,,,,,,,,,,,,,,,,,7,1.506000042,2,0.451999903,1,0,1200,969,1,1199,whore,11129,2019-10-22_14h36.16.526,SurveyExpMetaMem,3.2.3,Win32,60
,,,,,,,,,,,,,,,,,,,,5,2.320999861,5,0.164999962,1,0,1200,1124,1,1199,seize,11129,2019-10-22_14h36.16.526,SurveyExpMetaMem,3.2.3,Win32,60
,,,,,,,,,,,,,,,,,,,,5,1.398999691,5,0.220999956,1,0,1200,464,1,1199,tick,11129,2019-10-22_14h36.16.526,SurveyExpMetaMem,3.2.3,Win32,60
,,,,,,,,,,,,,,,,,,,,4,1.57799983,4,0.191999674,1,0,1200,427,1,1199,doubt,11129,2019-10-22_14h36.16.526,SurveyExpMetaMem,3.2.3,Win32,60
,,,,,,,,,,,,,,,,,,,,5,1.07799983,5,0.166999817,1,0,1200,815,1,1199,apple,11129,2019-10-22_14h36.16.526,SurveyExpMetaMem,3.2.3,Win32,60
,,,,,,,,,,,,,,,,,,,,4,2.388999939,5,1.228999853,1,0,1200,400,1,1199,urine,11129,2019-10-22_14h36.16.526,SurveyExpMetaMem,3.2.3,Win32,60
,,,,,,,,,,,,,,,,,,,,5,1.898000002,5,0.188999891,1,0,1200,652,1,1199,tend,11129,2019-10-22_14h36.16.526,SurveyExpMetaMem,3.2.3,Win32,60
,,,,,,,,,,,,,,,,,,,,5,0.875999928,5,0.183999777,1,0,1200,444,1,1199,mold,11129,2019-10-22_14h36.16.526,SurveyExpMetaMem,3.2.3,Win32,60
,,,,,,,,,,,,,,,,,,,,4,1.655999899,4,0.188999891,1,0,1200,488,1,1199,rusty,11129,2019-10-22_14h36.16.526,SurveyExpMetaMem,3.2.3,Win32,60
,,,,,,,,,,,,,,,,,,,,5,4.519999743,5,0.172999859,1,0,1200,395,1,1199,lack,11129,2019-10-22_14h36.16.526,SurveyExpMetaMem,3.2.3,Win32,60
,,,,,,,,,,,,,,,,,,,,5,1.268999815,5,0.148000002,1,0,1200,168,1,1199,mate,11129,2019-10-22_14h36.16.526,SurveyExpMetaMem,3.2.3,Win32,60
,,,,,,,,,,,,,,,,,,,,5,0.924999714,5,0.162999868,1,0,1200,1043,1,1199,scold,11129,2019-10-22_14h36.16.526,SurveyExpMetaMem,3.2.3,Win32,60
,,,,,,,,,,,,,,,,,,,,5,0.892999887,5,0.189999819,1,0,1200,368,1,1199,dreary,11129,2019-10-22_14h36.16.526,SurveyExpMetaMem,3.2.3,Win32,60
,,,,,,,,,,,,,,,,,,,,5,2.255999804,5,0.143999815,1,0,1200,460,1,1199,rag,11129,2019-10-22_14h36.16.526,SurveyExpMetaMem,3.2.3,Win32,60
,,,,,,,,,,,,,,,,,,,,7,2.374999762,6,0.605999708,1,0,1200,136,1,1199,dog,11129,2019-10-22_14h36.16.526,SurveyExpMetaMem,3.2.3,Win32,60
,,,,,,,,,,,,,,,,,,,,6,4.502999783,7,0.381999969,1,0,1200,841,1,1199,bathtub,11129,2019-10-22_14h36.16.526,SurveyExpMetaMem,3.2.3,Win32,60
,,,,,,,,,,,,,,,,,,,,5,1.40199995,5,0.190999985,1,0,1200,545,1,1199,tar,11129,2019-10-22_14h36.16.526,SurveyExpMetaMem,3.2.3,Win32,60
,,,,,,,,,,,,,,,,,,,,5,1.231999874,5,0.149999857,1,0,1200,660,1,1199,rock,11129,2019-10-22_14h36.16.526,SurveyExpMetaMem,3.2.3,Win32,60
,,,,,,,,,,,,,,,,,,,,5,1.07799983,5,0.172999859,1,0,1200,612,1,1199,propeller,11129,2019-10-22_14h36.16.526,SurveyExpMetaMem,3.2.3,Win32,60
,,,,,,,,,,,,,,,,,,,,5,2.385999918,5,0.12899971,1,0,1200,247,1,1199,graduate,11129,2019-10-22_14h36.16.526,SurveyExpMetaMem,3.2.3,Win32,60
,,,,,,,,,,,,,,,,,,,,5,4.722999811,5,0.189999819,1,0,1200,595,1,1199,vacuum,11129,2019-10-22_14h36.16.526,SurveyExpMetaMem,3.2.3,Win32,60
,,,,,,,,,,,,,,,,,,,,5,4.337999821,5,0.152999878,1,0,1200,916,1,1199,starvation,11129,2019-10-22_14h36.16.526,SurveyExpMetaMem,3.2.3,Win32,60
,,,,,,,,,,,,,,,,,,,,7,3.754999876,7,0.255999804,1,0,1200,81,1,1199,best,11129,2019-10-22_14h36.16.526,SurveyExpMetaMem,3.2.3,Win32,60
,,,,,,,,,,,,,,,,,,,,5,1.109999657,5,0.148999929,1,0,1200,63,1,1199,clothes,11129,2019-10-22_14h36.16.526,SurveyExpMetaMem,3.2.3,Win32,60
,,,,,,,,,,,,,,,,,,,,5,1.205999851,5,0.210999727,1,0,1200,414,1,1199,pity,11129,2019-10-22_14h36.16.526,SurveyExpMetaMem,3.2.3,Win32,60
,,,,,,,,,,,,,,,,,,,,5,1.854999781,5,0.190999746,1,0,1200,355,1,1199,graveyard,11129,2019-10-22_14h36.16.526,SurveyExpMetaMem,3.2.3,Win32,60
,,,,,,,,,,,,,,,,,,,,5,1.781999826,5,0.203999996,1,0,1200,669,1,1199,plaza,11129,2019-10-22_14h36.16.526,SurveyExpMetaMem,3.2.3,Win32,60
,,,,,,,,,,,,,,,,,,,,5,12.74299979,5,0.190999985,1,0,1200,649,1,1199,donkey,11129,2019-10-22_14h36.16.526,SurveyExpMetaMem,3.2.3,Win32,60
,,,,,,,,,,,,,,,,,,,,5,0.690999746,5,0.214999676,1,0,1200,421,1,1199,stale,11129,2019-10-22_14h36.16.526,SurveyExpMetaMem,3.2.3,Win32,60
,,,,,,,,,,,,,,,,,,,,6,1.558999777,2,0.195999861,1,0,1200,1111,1,1199,bruise,11129,2019-10-22_14h36.16.526,SurveyExpMetaMem,3.2.3,Win32,60
,,,,,,,,,,,,,,,,,,,,7,3.427999973,8,0.407999754,1,0,1200,97,1,1199,enthusiastic,11129,2019-10-22_14h36.16.526,SurveyExpMetaMem,3.2.3,Win32,60
,,,,,,,,,,,,,,,,,,,,7,4.518999815,2,0.539999723,1,0,1200,1046,1,1199,unsafe,11129,2019-10-22_14h36.16.526,SurveyExpMetaMem,3.2.3,Win32,60
,,,,,,,,,,,,,,,,,,,,6,13.68499994,4,2.909999847,1,0,1200,352,1,1199,negligent,11129,2019-10-22_14h36.16.526,SurveyExpMetaMem,3.2.3,Win32,60
,,,,,,,,,,,,,,,,,,,,8,2.390999794,5,1.378999949,1,0,1200,54,1,1199,alcohol,11129,2019-10-22_14h36.16.526,SurveyExpMetaMem,3.2.3,Win32,60
,,,,,,,,,,,,,,,,,,,,5,1.237999916,5,0.156999826,1,0,1200,495,1,1199,dust,11129,2019-10-22_14h36.16.526,SurveyExpMetaMem,3.2.3,Win32,60
,,,,,,,,,,,,,,,,,,,,6,1.700999975,2,0.504999876,1,0,1200,939,1,1199,vomit,11129,2019-10-22_14h36.16.526,SurveyExpMetaMem,3.2.3,Win32,60
,,,,,,,,,,,,,,,,,,,,5,1.450999975,5,0.148999929,1,0,1200,333,1,1199,weak,11129,2019-10-22_14h36.16.526,SurveyExpMetaMem,3.2.3,Win32,60
,,,,,,,,,,,,,,,,,,,,3,2.851999998,3,0.194000006,1,0,1200,310,1,1199,lonely,11129,2019-10-22_14h36.16.526,SurveyExpMetaMem,3.2.3,Win32,60
,,,,,,,,,,,,,,,,,,,,5,2.023999929,5,0.173999786,1,0,1200,413,1,1199,deficient,11129,2019-10-22_14h36.16.526,SurveyExpMetaMem,3.2.3,Win32,60
,,,,,,,,,,,,,,,,,,,,5,1.197999716,5,0.154999733,1,0,1200,134,1,1199,dollar,11129,2019-10-22_14h36.16.526,SurveyExpMetaMem,3.2.3,Win32,60
,,,,,,,,,,,,,,,,,,,,5,0.998999834,5,0.15899992,1,0,1200,819,1,1199,sheep,11129,2019-10-22_14h36.16.526,SurveyExpMetaMem,3.2.3,Win32,60
,,,,,,,,,,,,,,,,,,,,7,2.164999723,7,0.71999979,1,0,1200,287,1,1199,optimistic,11129,2019-10-22_14h36.16.526,SurveyExpMetaMem,3.2.3,Win32,60
,,,,,,,,,,,,,,,,,,,,5,1.52699995,5,0.14199996,1,0,1200,608,1,1199,carrot,11129,2019-10-22_14h36.16.526,SurveyExpMetaMem,3.2.3,Win32,60
,,,,,,,,,,,,,,,,,,,,6,4.42599988,3,0.757999897,1,0,1200,1107,1,1199,snake,11129,2019-10-22_14h36.16.526,SurveyExpMetaMem,3.2.3,Win32,60
,,,,,,,,,,,,,,,,,,,,8,1.953999996,1,0.870999813,1,0,1200,1062,1,1199,shoplifter,11129,2019-10-22_14h36.16.526,SurveyExpMetaMem,3.2.3,Win32,60
,,,,,,,,,,,,,,,,,,,,7,2.528999805,2,0.503999949,1,0,1200,985,1,1199,pollution,11129,2019-10-22_14h36.16.526,SurveyExpMetaMem,3.2.3,Win32,60
,,,,,,,,,,,,,,,,,,,,5,1.631999731,5,0.144999743,1,0,1200,1017,1,1199,aggravated,11129,2019-10-22_14h36.16.526,SurveyExpMetaMem,3.2.3,Win32,60
,,,,,,,,,,,,,,,,,,,,5,1.203999996,5,0.144999743,1,0,1200,252,1,1199,infatuated,11129,2019-10-22_14h36.16.526,SurveyExpMetaMem,3.2.3,Win32,60
,,,,,,,,,,,,,,,,,,,,5,2.819000006,5,0.313999891,1,0,1200,84,1,1199,eat,11129,2019-10-22_14h36.16.526,SurveyExpMetaMem,3.2.3,Win32,60
,,,,,,,,,,,,,,,,,,,,5,0.856999874,5,0.212999821,1,0,1200,425,1,1199,crutch,11129,2019-10-22_14h36.16.526,SurveyExpMetaMem,3.2.3,Win32,60
,,,,,,,,,,,,,,,,,,,,5,1.753999949,5,0.372999668,1,0,1200,280,1,1199,cookout,11129,2019-10-22_14h36.16.526,SurveyExpMetaMem,3.2.3,Win32,60
,,,,,,,,,,,,,,,,,,,,6,2.693999767,2,0.539000034,1,0,1200,905,1,1199,suffocate,11129,2019-10-22_14h36.16.526,SurveyExpMetaMem,3.2.3,Win32,60
,,,,,,,,,,,,,,,,,,,,7,2.029999733,2,1.006999969,1,0,1200,502,1,1199,crap,11129,2019-10-22_14h36.16.526,SurveyExpMetaMem,3.2.3,Win32,60
,,,,,,,,,,,,,,,,,,,,7,2.575999737,3,0.743000031,1,0,1200,1025,1,1199,deadly,11129,2019-10-22_14h36.16.526,SurveyExpMetaMem,3.2.3,Win32,60
,,,,,,,,,,,,,,,,,,,,5,2.542000055,5,0.210000038,1,0,1200,765,1,1199,candid,11129,2019-10-22_14h36.16.526,SurveyExpMetaMem,3.2.3,Win32,60
,,,,,,,,,,,,,,,,,,,,7,3.051999807,1,0.846999884,1,0,1200,926,1,1199,dead,11129,2019-10-22_14h36.16.526,SurveyExpMetaMem,3.2.3,Win32,60
,,,,,,,,,,,,,,,,,,,,5,4.336999893,5,0.13499999,1,0,1200,154,1,1199,race,11129,2019-10-22_14h36.16.526,SurveyExpMetaMem,3.2.3,Win32,60
,,,,,,,,,,,,,,,,,,,,5,1.42299962,5,0.179999828,1,0,1200,638,1,1199,quench,11129,2019-10-22_14h36.16.526,SurveyExpMetaMem,3.2.3,Win32,60
,,,,,,,,,,,,,,,,,,,,5,0.980999947,5,0.178999662,1,0,1200,1178,1,1199,weight,11129,2019-10-22_14h36.16.526,SurveyExpMetaMem,3.2.3,Win32,60
,,,,,,,,,,,,,,,,,,,,5,1.187999964,5,0.125999928,1,0,1200,271,1,1199,applaud,11129,2019-10-22_14h36.16.526,SurveyExpMetaMem,3.2.3,Win32,60
,,,,,,,,,,,,,,,,,,,,5,0.818999767,5,0.345999956,1,0,1200,786,1,1199,afternoon,11129,2019-10-22_14h36.16.526,SurveyExpMetaMem,3.2.3,Win32,60
,,,,,,,,,,,,,,,,,,,,5,0.940999985,5,0.182999849,1,0,1200,761,1,1199,corn,11129,2019-10-22_14h36.16.526,SurveyExpMetaMem,3.2.3,Win32,60
,,,,,,,,,,,,,,,,,,,,5,0.842999697,5,0.178999662,1,0,1200,770,1,1199,buffalo,11129,2019-10-22_14h36.16.526,SurveyExpMetaMem,3.2.3,Win32,60
,,,,,,,,,,,,,,,,,,,,5,1.526999712,5,0.158999681,1,0,1200,52,1,1199,dare,11129,2019-10-22_14h36.16.526,SurveyExpMetaMem,3.2.3,Win32,60
,,,,,,,,,,,,,,,,,,,,5,1.004999876,5,0.205999851,1,0,1200,507,1,1199,smudge,11129,2019-10-22_14h36.16.526,SurveyExpMetaMem,3.2.3,Win32,60
,,,,,,,,,,,,,,,,,,,,7,1.523999929,3,0.880999804,1,0,1200,364,1,1199,stink,11129,2019-10-22_14h36.16.526,SurveyExpMetaMem,3.2.3,Win32,60
,,,,,,,,,,,,,,,,,,,,5,1.615999937,5,0.169999838,1,0,1200,782,1,1199,open,11129,2019-10-22_14h36.16.526,SurveyExpMetaMem,3.2.3,Win32,60
,,,,,,,,,,,,,,,,,,,,5,2.075999975,5,0.174999714,1,0,1200,720,1,1199,stable,11129,2019-10-22_14h36.16.526,SurveyExpMetaMem,3.2.3,Win32,60
,,,,,,,,,,,,,,,,,,,,5,1.443999767,5,0.199999809,1,0,1200,350,1,1199,inadequate,11129,2019-10-22_14h36.16.526,SurveyExpMetaMem,3.2.3,Win32,60
,,,,,,,,,,,,,,,,,,,,5,1.582000017,5,0.171999931,1,0,1200,429,1,1199,cough,11129,2019-10-22_14h36.16.526,SurveyExpMetaMem,3.2.3,Win32,60
,,,,,,,,,,,,,,,,,,,,5,3.161000013,5,0.174999714,1,0,1200,110,1,1199,animal,11129,2019-10-22_14h36.16.526,SurveyExpMetaMem,3.2.3,Win32,60
,,,,,,,,,,,,,,,,,,,,6,1.512999773,6,0.206999779,1,0,1200,898,1,1199,kindness,11129,2019-10-22_14h36.16.526,SurveyExpMetaMem,3.2.3,Win32,60
,,,,,,,,,,,,,,,,,,,,5,1.521999836,5,0.155999899,1,0,1200,840,1,1199,cuisine,11129,2019-10-22_14h36.16.526,SurveyExpMetaMem,3.2.3,Win32,60
,,,,,,,,,,,,,,,,,,,,6,2.4599998,6,0.191999912,1,0,1200,1169,1,1199,enforcement,11129,2019-10-22_14h36.16.526,SurveyExpMetaMem,3.2.3,Win32,60
,,,,,,,,,,,,,,,,,,,,5,2.259999752,5,0.214999676,1,0,1200,1153,1,1199,mangle,11129,2019-10-22_14h36.16.526,SurveyExpMetaMem,3.2.3,Win32,60
,,,,,,,,,,,,,,,,,,,,7,1.604999781,7,1.595999956,1,0,1200,253,1,1199,soldier,11129,2019-10-22_14h36.16.526,SurveyExpMetaMem,3.2.3,Win32,60
,,,,,,,,,,,,,,,,,,,,5,1.561999798,5,0.141999722,1,0,1200,697,1,1199,clarinet,11129,2019-10-22_14h36.16.526,SurveyExpMetaMem,3.2.3,Win32,60
,,,,,,,,,,,,,,,,,,,,5,4.638000011,5,0.138999939,1,0,1200,620,1,1199,spray,11129,2019-10-22_14h36.16.526,SurveyExpMetaMem,3.2.3,Win32,60
,,,,,,,,,,,,,,,,,,,,7,1.542999744,7,0.161999702,1,0,1200,99,1,1199,funny,11129,2019-10-22_14h36.16.526,SurveyExpMetaMem,3.2.3,Win32,60
,,,,,,,,,,,,,,,,,,,,6,1.36500001,6,0.170999765,1,0,1200,98,1,1199,affection,11129,2019-10-22_14h36.16.526,SurveyExpMetaMem,3.2.3,Win32,60
,,,,,,,,,,,,,,,,,,,,5,2.561999798,5,0.245999813,1,0,1200,315,1,1199,zit,11129,2019-10-22_14h36.16.526,SurveyExpMetaMem,3.2.3,Win32,60
,,,,,,,,,,,,,,,,,,,,5,0.453999758,7,2.329999924,1,0,1200,116,1,1199,carnival,11129,2019-10-22_14h36.16.526,SurveyExpMetaMem,3.2.3,Win32,60
,,,,,,,,,,,,,,,,,,,,5,7.639999866,5,0.145999908,1,0,1200,888,1,1199,refreshment,11129,2019-10-22_14h36.16.526,SurveyExpMetaMem,3.2.3,Win32,60
,,,,,,,,,,,,,,,,,,,,5,0.982999802,5,0.188999891,1,0,1200,544,1,1199,snail,11129,2019-10-22_14h36.16.526,SurveyExpMetaMem,3.2.3,Win32,60
,,,,,,,,,,,,,,,,,,,,5,1.088999987,5,0.149999857,1,0,1200,354,1,1199,cowardice,11129,2019-10-22_14h36.16.526,SurveyExpMetaMem,3.2.3,Win32,60
,,,,,,,,,,,,,,,,,,,,6,2.413999796,3,0.547999859,1,0,1200,1061,1,1199,difficult,11129,2019-10-22_14h36.16.526,SurveyExpMetaMem,3.2.3,Win32,60
,,,,,,,,,,,,,,,,,,,,5,3.627999783,5,0.172999859,1,0,1200,767,1,1199,civil,11129,2019-10-22_14h36.16.526,SurveyExpMetaMem,3.2.3,Win32,60
,,,,,,,,,,,,,,,,,,,,7,2.536000013,3,0.55099988,1,0,1200,1120,1,1199,gun,11129,2019-10-22_14h36.16.526,SurveyExpMetaMem,3.2.3,Win32,60
,,,,,,,,,,,,,,,,,,,,8,1.758999825,2,0.556999922,1,0,1200,1102,1,1199,nuclear,11129,2019-10-22_14h36.16.526,SurveyExpMetaMem,3.2.3,Win32,60
,,,,,,,,,,,,,,,,,,,,5,1.053999901,5,0.115999937,1,0,1200,679,1,1199,yellow,11129,2019-10-22_14h36.16.526,SurveyExpMetaMem,3.2.3,Win32,60
,,,,,,,,,,,,,,,,,,,,7,1.888000011,2,0.653999805,1,0,1200,1087,1,1199,affair,11129,2019-10-22_14h36.16.526,SurveyExpMetaMem,3.2.3,Win32,60
,,,,,,,,,,,,,,,,,,,,6,2.088999748,6,0.172999859,1,0,1200,685,1,1199,makeup,11129,2019-10-22_14h36.16.526,SurveyExpMetaMem,3.2.3,Win32,60
,,,,,,,,,,,,,,,,,,,,5,2.353999853,5,0.178999901,1,0,1200,817,1,1199,countryside,11129,2019-10-22_14h36.16.526,SurveyExpMetaMem,3.2.3,Win32,60
,,,,,,,,,,,,,,,,,,,,5,1.031999826,5,0.172999859,1,0,1200,571,1,1199,marrow,11129,2019-10-22_14h36.16.526,SurveyExpMetaMem,3.2.3,Win32,60
,,,,,,,,,,,,,,,,,,,,5,1.77799964,5,0.188999891,1,0,1200,387,1,1199,tax,11129,2019-10-22_14h36.16.526,SurveyExpMetaMem,3.2.3,Win32,60
,,,,,,,,,,,,,,,,,,,,5,1.322999954,5,0.167999744,1,0,1200,794,1,1199,pray,11129,2019-10-22_14h36.16.526,SurveyExpMetaMem,3.2.3,Win32,60
,,,,,,,,,,,,,,,,,,,,7,4.856999874,3,0.528999805,1,0,1200,1027,1,1199,criticism,11129,2019-10-22_14h36.16.526,SurveyExpMetaMem,3.2.3,Win32,60
,,,,,,,,,,,,,,,,,,,,5,1.523999929,5,0.160000086,1,0,1200,220,1,1199,reef,11129,2019-10-22_14h36.16.526,SurveyExpMetaMem,3.2.3,Win32,60
,,,,,,,,,,,,,,,,,,,,5,1.242999792,5,0.189999819,1,0,1200,736,1,1199,hawk,11129,2019-10-22_14h36.16.526,SurveyExpMetaMem,3.2.3,Win32,60
,,,,,,,,,,,,,,,,,,,,3,2.092000008,3,1.126999855,1,0,1200,670,1,1199,urinate,11129,2019-10-22_14h36.16.526,SurveyExpMetaMem,3.2.3,Win32,60
,,,,,,,,,,,,,,,,,,,,5,1.138000011,5,0.145999908,1,0,1200,490,1,1199,detached,11129,2019-10-22_14h36.16.526,SurveyExpMetaMem,3.2.3,Win32,60
,,,,,,,,,,,,,,,,,,,,7,33.41999984,3,0.686999798,1,0,1200,537,1,1199,absurd,11129,2019-10-22_14h36.16.526,SurveyExpMetaMem,3.2.3,Win32,60
,,,,,,,,,,,,,,,,,,,,5,3.471999645,5,0.140999794,1,0,1200,602,1,1199,vegetable,11129,2019-10-22_14h36.16.526,SurveyExpMetaMem,3.2.3,Win32,60
,,,,,,,,,,,,,,,,,,,,2,3.66899991,7,1.554999828,1,0,1200,870,1,1199,safe,11129,2019-10-22_14h36.16.526,SurveyExpMetaMem,3.2.3,Win32,60
,,,,,,,,,,,,,,,,,,,,5,1.484999895,5,0.152999878,1,0,1200,619,1,1199,pulpit,11129,2019-10-22_14h36.16.526,SurveyExpMetaMem,3.2.3,Win32,60
,,,,,,,,,,,,,,,,,,,,3,3.220999718,5,1.424999952,1,0,1200,381,1,1199,sloppy,11129,2019-10-22_14h36.16.526,SurveyExpMetaMem,3.2.3,Win32,60
,,,,,,,,,,,,,,,,,,,,7,3.794999838,2,1.504999876,1,0,1200,309,1,1199,homeless,11129,2019-10-22_14h36.16.526,SurveyExpMetaMem,3.2.3,Win32,60
,,,,,,,,,,,,,,,,,,,,5,1.501999855,5,0.128000021,1,0,1200,838,1,1199,nestle,11129,2019-10-22_14h36.16.526,SurveyExpMetaMem,3.2.3,Win32,60
,,,,,,,,,,,,,,,,,,,,5,1.17599988,5,0.134999752,1,0,1200,1109,1,1199,germ,11129,2019-10-22_14h36.16.526,SurveyExpMetaMem,3.2.3,Win32,60
,,,,,,,,,,,,,,,,,,,,5,1.65199995,5,0.13599968,1,0,1200,213,1,1199,fair,11129,2019-10-22_14h36.16.526,SurveyExpMetaMem,3.2.3,Win32,60
,,,,,,,,,,,,,,,,,,,,5,1.003999949,5,0.133999825,1,0,1200,680,1,1199,candle,11129,2019-10-22_14h36.16.526,SurveyExpMetaMem,3.2.3,Win32,60
,,,,,,,,,,,,,,,,,,,,6,2.525999784,3,0.703999758,1,0,1200,1159,1,1199,rifle,11129,2019-10-22_14h36.16.526,SurveyExpMetaMem,3.2.3,Win32,60
,,,,,,,,,,,,,,,,,,,,6,1.853999853,3,0.358999968,1,0,1200,1048,1,1199,paranoid,11129,2019-10-22_14h36.16.526,SurveyExpMetaMem,3.2.3,Win32,60
,,,,,,,,,,,,,,,,,,,,7,3.725999832,2,0.913999796,1,0,1200,152,1,1199,hire,11129,2019-10-22_14h36.16.526,SurveyExpMetaMem,3.2.3,Win32,60
,,,,,,,,,,,,,,,,,,,,7,7.284999847,6,2.49000001,1,0,1200,286,1,1199,superstar,11129,2019-10-22_14h36.16.526,SurveyExpMetaMem,3.2.3,Win32,60
,,,,,,,,,,,,,,,,,,,,5,3.534999847,5,0.135999918,1,0,1200,114,1,1199,raise,11129,2019-10-22_14h36.16.526,SurveyExpMetaMem,3.2.3,Win32,60
,,,,,,,,,,,,,,,,,,,,8,2.513999939,8,0.608999968,1,0,1200,125,1,1199,dancing,11129,2019-10-22_14h36.16.526,SurveyExpMetaMem,3.2.3,Win32,60
,,,,,,,,,,,,,,,,,,,,3,2.086999893,7,1.126999855,1,0,1200,811,1,1199,tenderness,11129,2019-10-22_14h36.16.526,SurveyExpMetaMem,3.2.3,Win32,60
,,,,,,,,,,,,,,,,,,,,2,6.111000061,7,1.404000044,1,0,1200,829,1,1199,innocent,11129,2019-10-22_14h36.16.526,SurveyExpMetaMem,3.2.3,Win32,60
,,,,,,,,,,,,,,,,,,,,5,1.088999748,5,0.149999857,1,0,1200,128,1,1199,supper,11129,2019-10-22_14h36.16.526,SurveyExpMetaMem,3.2.3,Win32,60
,,,,,,,,,,,,,,,,,,,,7,1.981999874,7,0.186999798,1,0,1200,130,1,1199,great,11129,2019-10-22_14h36.16.526,SurveyExpMetaMem,3.2.3,Win32,60
,,,,,,,,,,,,,,,,,,,,3,3.924999714,3,1.343999863,1,0,1200,451,1,1199,lame,11129,2019-10-22_14h36.16.526,SurveyExpMetaMem,3.2.3,Win32,60
,,,,,,,,,,,,,,,,,,,,6,2.984999895,3,0.713999987,1,0,1200,348,1,1199,impotent,11129,2019-10-22_14h36.16.526,SurveyExpMetaMem,3.2.3,Win32,60
,,,,,,,,,,,,,,,,,,,,5,1.178999662,5,0.155999899,1,0,1200,856,1,1199,leisurely,11129,2019-10-22_14h36.16.526,SurveyExpMetaMem,3.2.3,Win32,60
,,,,,,,,,,,,,,,,,,,,6,2.069000006,2,0.622999907,1,0,1200,446,1,1199,greedy,11129,2019-10-22_14h36.16.526,SurveyExpMetaMem,3.2.3,Win32,60
,,,,,,,,,,,,,,,,,,,,5,9.003999949,5,0.170999765,1,0,1200,338,1,1199,obesity,11129,2019-10-22_14h36.16.526,SurveyExpMetaMem,3.2.3,Win32,60
,,,,,,,,,,,,,,,,,,,,5,6.585999966,5,0.145999908,1,0,1200,171,1,1199,imagination,11129,2019-10-22_14h36.16.526,SurveyExpMetaMem,3.2.3,Win32,60
,,,,,,,,,,,,,,,,,,,,2,3.904999733,3,0.77699995,1,0,1200,408,1,1199,bore,11129,2019-10-22_14h36.16.526,SurveyExpMetaMem,3.2.3,Win32,60
,,,,,,,,,,,,,,,,,,,,5,1.796999693,5,0.205999851,1,0,1200,137,1,1199,money,11129,2019-10-22_14h36.16.526,SurveyExpMetaMem,3.2.3,Win32,60
,,,,,,,,,,,,,,,,,,,,6,4.372999907,6,0.186999798,1,0,1200,48,1,1199,excellence,11129,2019-10-22_14h36.16.526,SurveyExpMetaMem,3.2.3,Win32,60
,,,,,,,,,,,,,,,,,,,,5,1.305999994,5,0.122999907,1,0,1200,676,1,1199,straighten,11129,2019-10-22_14h36.16.526,SurveyExpMetaMem,3.2.3,Win32,60
,,,,,,,,,,,,,,,,,,,,5,6.596999884,5,0.242999792,1,0,1200,1082,1,1199,hazard,11129,2019-10-22_14h36.16.526,SurveyExpMetaMem,3.2.3,Win32,60
,,,,,,,,,,,,,,,,,,,,6,4.835999727,2,0.506000042,1,0,1200,987,1,1199,disgusted,11129,2019-10-22_14h36.16.526,SurveyExpMetaMem,3.2.3,Win32,60
,,,,,,,,,,,,,,,,,,,,6,1.815999985,2,0.118000031,1,0,1200,1146,1,1199,bug,11129,2019-10-22_14h36.16.526,SurveyExpMetaMem,3.2.3,Win32,60
,,,,,,,,,,,,,,,,,,,,5,1.026999712,5,0.155999899,1,0,1200,764,1,1199,coin,11129,2019-10-22_14h36.16.526,SurveyExpMetaMem,3.2.3,Win32,60
,,,,,,,,,,,,,,,,,,,,5,0.941999912,5,0.153999805,1,0,1200,791,1,1199,shoes,11129,2019-10-22_14h36.16.526,SurveyExpMetaMem,3.2.3,Win32,60
,,,,,,,,,,,,,,,,,,,,4,2.21999979,2,0.338999748,1,0,1200,320,1,1199,deformed,11129,2019-10-22_14h36.16.526,SurveyExpMetaMem,3.2.3,Win32,60
,,,,,,,,,,,,,,,,,,,,6,2.645999908,7,1.04399991,1,0,1200,95,1,1199,giggle,11129,2019-10-22_14h36.16.526,SurveyExpMetaMem,3.2.3,Win32,60
,,,,,,,,,,,,,,,,,,,,3,5.640999794,7,2.412999868,1,0,1200,884,1,1199,grateful,11129,2019-10-22_14h36.16.526,SurveyExpMetaMem,3.2.3,Win32,60
,,,,,,,,,,,,,,,,,,,,6,4.89199996,5,1.563999653,1,0,1200,837,1,1199,responsible,11129,2019-10-22_14h36.16.526,SurveyExpMetaMem,3.2.3,Win32,60
,,,,,,,,,,,,,,,,,,,,5,7.039999962,5,0.240999699,1,0,1200,177,1,1199,frosting,11129,2019-10-22_14h36.16.526,SurveyExpMetaMem,3.2.3,Win32,60
,,,,,,,,,,,,,,,,,,,,4,7.855999947,3,1.17299962,1,0,1200,931,1,1199,overweight,11129,2019-10-22_14h36.16.526,SurveyExpMetaMem,3.2.3,Win32,60
,,,,,,,,,,,,,,,,,,,,8,8.004999876,3,2.323999882,1,0,1200,982,1,1199,robbery,11129,2019-10-22_14h36.16.526,SurveyExpMetaMem,3.2.3,Win32,60
,,,,,,,,,,,,,,,,,,,,7,3.16899991,2,0.314999819,1,0,1200,1189,1,1199,lava,11129,2019-10-22_14h36.16.526,SurveyExpMetaMem,3.2.3,Win32,60
,,,,,,,,,,,,,,,,,,,,7,4.36899972,4,1.206999779,1,0,1200,1148,1,1199,suspicious,11129,2019-10-22_14h36.16.526,SurveyExpMetaMem,3.2.3,Win32,60
,,,,,,,,,,,,,,,,,,,,5,3.941999674,5,0.221999884,1,0,1200,1170,1,1199,police,11129,2019-10-22_14h36.16.526,SurveyExpMetaMem,3.2.3,Win32,60
,,,,,,,,,,,,,,,,,,,,5,1.013999939,5,0.187999725,1,0,1200,589,1,1199,coarse,11129,2019-10-22_14h36.16.526,SurveyExpMetaMem,3.2.3,Win32,60
,,,,,,,,,,,,,,,,,,,,5,1.032999992,5,0.189999819,1,0,1200,155,1,1199,ignite,11129,2019-10-22_14h36.16.526,SurveyExpMetaMem,3.2.3,Win32,60
,,,,,,,,,,,,,,,,,,,,6,9.391999722,7,1.127999783,1,0,1200,272,1,1199,confidence,11129,2019-10-22_14h36.16.526,SurveyExpMetaMem,3.2.3,Win32,60
,,,,,,,,,,,,,,,,,,,,3,2.468999863,3,1.304999828,1,0,1200,322,1,1199,widow,11129,2019-10-22_14h36.16.526,SurveyExpMetaMem,3.2.3,Win32,60
,,,,,,,,,,,,,,,,,,,,7,2.467000008,4,1.173999786,1,0,1200,505,1,1199,exhaust,11129,2019-10-22_14h36.16.526,SurveyExpMetaMem,3.2.3,Win32,60
,,,,,,,,,,,,,,,,,,,,5,1.424999952,5,0.162999868,1,0,1200,758,1,1199,camera,11129,2019-10-22_14h36.16.526,SurveyExpMetaMem,3.2.3,Win32,60
,,,,,,,,,,,,,,,,,,,,5,8.382999897,5,0.225999832,1,0,1200,526,1,1199,dry,11129,2019-10-22_14h36.16.526,SurveyExpMetaMem,3.2.3,Win32,60
,,,,,,,,,,,,,,,,,,,,5,1.304999828,5,0.165999889,1,0,1200,1097,1,1199,bees,11129,2019-10-22_14h36.16.526,SurveyExpMetaMem,3.2.3,Win32,60
,,,,,,,,,,,,,,,,,,,,5,2.904999733,5,0.16899991,1,0,1200,133,1,1199,prosperous,11129,2019-10-22_14h36.16.526,SurveyExpMetaMem,3.2.3,Win32,60
,,,,,,,,,,,,,,,,,,,,5,0.967999697,5,0.174999952,1,0,1200,1010,1,1199,arson,11129,2019-10-22_14h36.16.526,SurveyExpMetaMem,3.2.3,Win32,60
,,,,,,,,,,,,,,,,,,,,5,4.253000021,5,0.152999878,1,0,1200,203,1,1199,seal,11129,2019-10-22_14h36.16.526,SurveyExpMetaMem,3.2.3,Win32,60
,,,,,,,,,,,,,,,,,,,,6,3.073999882,7,0.261999846,1,0,1200,86,1,1199,talent,11129,2019-10-22_14h36.16.526,SurveyExpMetaMem,3.2.3,Win32,60
,,,,,,,,,,,,,,,,,,,,5,1.277999878,5,0.207999706,1,0,1200,1060,1,1199,dent,11129,2019-10-22_14h36.16.526,SurveyExpMetaMem,3.2.3,Win32,60
,,,,,,,,,,,,,,,,,,,,5,3.504999876,5,0.170999765,1,0,1200,212,1,1199,belief,11129,2019-10-22_14h36.16.526,SurveyExpMetaMem,3.2.3,Win32,60
,,,,,,,,,,,,,,,,,,,,2,4.375,2,1.266999722,1,0,1200,307,1,1199,sick,11129,2019-10-22_14h36.16.526,SurveyExpMetaMem,3.2.3,Win32,60
,,,,,,,,,,,,,,,,,,,,7,2.001999855,2,0.279999733,1,0,1200,1051,1,1199,insane,11129,2019-10-22_14h36.16.526,SurveyExpMetaMem,3.2.3,Win32,60
,,,,,,,,,,,,,,,,,,,,6,4.006999969,5,11.46599984,1,0,1200,202,1,1199,mercy,11129,2019-10-22_14h36.16.526,SurveyExpMetaMem,3.2.3,Win32,60
,,,,,,,,,,,,,,,,,,,,4,2.218999863,2,0.81099987,1,0,1200,302,1,1199,loneliness,11129,2019-10-22_14h36.16.526,SurveyExpMetaMem,3.2.3,Win32,60
,,,,,,,,,,,,,,,,,,,,4,5.253999949,2,0.295999765,1,0,1200,422,1,1199,doubtful,11129,2019-10-22_14h36.16.526,SurveyExpMetaMem,3.2.3,Win32,60
,,,,,,,,,,,,,,,,,,,,6,3.390999794,4,1.746999741,1,0,1200,1072,1,1199,bothered,11129,2019-10-22_14h36.16.526,SurveyExpMetaMem,3.2.3,Win32,60
,,,,,,,,,,,,,,,,,,,,8,3.138999939,2,0.574999809,1,0,1200,981,1,1199,rage,11129,2019-10-22_14h36.16.526,SurveyExpMetaMem,3.2.3,Win32,60
,,,,,,,,,,,,,,,,,,,,6,3.771999836,2,0.537999868,1,0,1200,1137,1,1199,knife,11129,2019-10-22_14h36.16.526,SurveyExpMetaMem,3.2.3,Win32,60
,,,,,,,,,,,,,,,,,,,,5,3.059000015,5,0.140999794,1,0,1200,778,1,1199,adorn,11129,2019-10-22_14h36.16.526,SurveyExpMetaMem,3.2.3,Win32,60
,,,,,,,,,,,,,,,,,,,,5,2.319999933,5,0.172999859,1,0,1200,538,1,1199,crumbs,11129,2019-10-22_14h36.16.526,SurveyExpMetaMem,3.2.3,Win32,60
,,,,,,,,,,,,,,,,,,,,5,1.944999695,5,0.190999985,1,0,1200,339,1,1199,chore,11129,2019-10-22_14h36.16.526,SurveyExpMetaMem,3.2.3,Win32,60
,,,,,,,,,,,,,,,,,,,,5,0.867999792,5,0.198999643,1,0,1200,543,1,1199,gloat,11129,2019-10-22_14h36.16.526,SurveyExpMetaMem,3.2.3,Win32,60
,,,,,,,,,,,,,,,,,,,,5,1.704999685,5,0.35800004,1,0,1200,853,1,1199,breeze,11129,2019-10-22_14h36.16.526,SurveyExpMetaMem,3.2.3,Win32,60
,,,,,,,,,,,,,,,,,,,,5,1.740999937,5,0.222999811,1,0,1200,1106,1,1199,pushy,11129,2019-10-22_14h36.16.526,SurveyExpMetaMem,3.2.3,Win32,60
,,,,,,,,,,,,,,,,,,,,7,2.441999912,7,0.304999828,1,0,1200,186,1,1199,holiday,11129,2019-10-22_14h36.16.526,SurveyExpMetaMem,3.2.3,Win32,60
,,,,,,,,,,,,,,,,,,,,7,0.230999947,5,2.333999872,1,0,1200,647,1,1199,accord,11129,2019-10-22_14h36.16.526,SurveyExpMetaMem,3.2.3,Win32,60
,,,,,,,,,,,,,,,,,,,,7,5.421999693,7,0.208999872,1,0,1200,297,1,1199,pleasure,11129,2019-10-22_14h36.16.526,SurveyExpMetaMem,3.2.3,Win32,60
,,,,,,,,,,,,,,,,,,,,5,1.483999729,5,0.164000034,1,0,1200,1160,1,1199,enlist,11129,2019-10-22_14h36.16.526,SurveyExpMetaMem,3.2.3,Win32,60
,,,,,,,,,,,,,,,,,,,,4,3.819999933,2,0.72300005,1,0,1200,925,1,1199,disloyal,11129,2019-10-22_14h36.16.526,SurveyExpMetaMem,3.2.3,Win32,60
,,,,,,,,,,,,,,,,,,,,5,3.919999838,5,0.215999842,1,0,1200,21,1,1199,game,11129,2019-10-22_14h36.16.526,SurveyExpMetaMem,3.2.3,Win32,60
,,,,,,,,,,,,,,,,,,,,7,3.326999903,1,0.789999962,1,0,1200,922,1,1199,nightmare,11129,2019-10-22_14h36.16.526,SurveyExpMetaMem,3.2.3,Win32,60
,,,,,,,,,,,,,,,,,,,,5,1.269999743,5,0.145999908,1,0,1200,270,1,1199,toddler,11129,2019-10-22_14h36.16.526,SurveyExpMetaMem,3.2.3,Win32,60
,,,,,,,,,,,,,,,,,,,,6,6.430999756,6,0.621999741,1,0,1200,293,1,1199,succeed,11129,2019-10-22_14h36.16.526,SurveyExpMetaMem,3.2.3,Win32,60
,,,,,,,,,,,,,,,,,,,,5,12.28999972,5,0.142999887,1,0,1200,664,1,1199,quiet,11129,2019-10-22_14h36.16.526,SurveyExpMetaMem,3.2.3,Win32,60
,,,,,,,,,,,,,,,,,,,,5,1.337999821,5,0.172999859,1,0,1200,12,1,1199,mountain,11129,2019-10-22_14h36.16.526,SurveyExpMetaMem,3.2.3,Win32,60
,,,,,,,,,,,,,,,,,,,,5,1.656999826,5,0.165999889,1,0,1200,826,1,1199,poem,11129,2019-10-22_14h36.16.526,SurveyExpMetaMem,3.2.3,Win32,60
,,,,,,,,,,,,,,,,,,,,5,1.111999989,5,0.352999687,1,0,1200,789,1,1199,green,11129,2019-10-22_14h36.16.526,SurveyExpMetaMem,3.2.3,Win32,60
,,,,,,,,,,,,,,,,,,,,5,1.246999741,5,0.19299984,1,0,1200,598,1,1199,feet,11129,2019-10-22_14h36.16.526,SurveyExpMetaMem,3.2.3,Win32,60
,,,,,,,,,,,,,,,,,,,,8,1.888999701,8,0.19299984,1,0,1200,164,1,1199,marry,11129,2019-10-22_14h36.16.526,SurveyExpMetaMem,3.2.3,Win32,60
,,,,,,,,,,,,,,,,,,,,5,2.360999823,5,0.165999889,1,0,1200,656,1,1199,number,11129,2019-10-22_14h36.16.526,SurveyExpMetaMem,3.2.3,Win32,60
,,,,,,,,,,,,,,,,,,,,5,1.422999859,5,0.171999931,1,0,1200,7,1,1199,duet,11129,2019-10-22_14h36.16.526,SurveyExpMetaMem,3.2.3,Win32,60
,,,,,,,,,,,,,,,,,,,,5,1.172999859,5,0.156999826,1,0,1200,532,1,1199,recede,11129,2019-10-22_14h36.16.526,SurveyExpMetaMem,3.2.3,Win32,60
,,,,,,,,,,,,,,,,,,,,5,1.492999792,5,0.191999912,1,0,1200,2,1,1199,zealous,11129,2019-10-22_14h36.16.526,SurveyExpMetaMem,3.2.3,Win32,60
,,,,,,,,,,,,,,,,,,,,5,9.68599987,5,0.15899992,1,0,1200,708,1,1199,nursery,11129,2019-10-22_14h36.16.526,SurveyExpMetaMem,3.2.3,Win32,60
,,,,,,,,,,,,,,,,,,,,5,1.143999815,5,0.190999746,1,0,1200,710,1,1199,gender,11129,2019-10-22_14h36.16.526,SurveyExpMetaMem,3.2.3,Win32,60
,,,,,,,,,,,,,,,,,,,,5,2.871999979,5,0.191999912,1,0,1200,722,1,1199,consoled,11129,2019-10-22_14h36.16.526,SurveyExpMetaMem,3.2.3,Win32,60
,,,,,,,,,,,,,,,,,,,,6,1.597999811,6,0.193999767,1,0,1200,22,1,1199,doughnut,11129,2019-10-22_14h36.16.526,SurveyExpMetaMem,3.2.3,Win32,60
,,,,,,,,,,,,,,,,,,,,5,1.356999874,5,0.204999924,1,0,1200,501,1,1199,dustpan,11129,2019-10-22_14h36.16.526,SurveyExpMetaMem,3.2.3,Win32,60
,,,,,,,,,,,,,,,,,,,,5,1.539999723,5,0.143999815,1,0,1200,467,1,1199,FALSE,11129,2019-10-22_14h36.16.526,SurveyExpMetaMem,3.2.3,Win32,60
,,,,,,,,,,,,,,,,,,,,7,2.225999832,2,0.547999859,1,0,1200,917,1,1199,slave,11129,2019-10-22_14h36.16.526,SurveyExpMetaMem,3.2.3,Win32,60
,,,,,,,,,,,,,,,,,,,,6,2.200999975,2,0.575999737,1,0,1200,1083,1,1199,delayed,11129,2019-10-22_14h36.16.526,SurveyExpMetaMem,3.2.3,Win32,60
,,,,,,,,,,,,,,,,,,,,7,4.931999683,7,0.203999996,1,0,1200,295,1,1199,passion,11129,2019-10-22_14h36.16.526,SurveyExpMetaMem,3.2.3,Win32,60
,,,,,,,,,,,,,,,,,,,,5,1.228999853,5,0.154999733,1,0,1200,1074,1,1199,detain,11129,2019-10-22_14h36.16.526,SurveyExpMetaMem,3.2.3,Win32,60
,,,,,,,,,,,,,,,,,,,,5,3.3349998,5,0.176999807,1,0,1200,120,1,1199,imaginative,11129,2019-10-22_14h36.16.526,SurveyExpMetaMem,3.2.3,Win32,60
,,,,,,,,,,,,,,,,,,,,5,2.728999853,5,0.388000011,1,0,1200,487,1,1199,junk,11129,2019-10-22_14h36.16.526,SurveyExpMetaMem,3.2.3,Win32,60
,,,,,,,,,,,,,,,,,,,,7,2.031999826,7,0.200999975,1,0,1200,148,1,1199,victory,11129,2019-10-22_14h36.16.526,SurveyExpMetaMem,3.2.3,Win32,60
,,,,,,,,,,,,,,,,,,,,5,1.221999884,5,0.17599988,1,0,1200,593,1,1199,errand,11129,2019-10-22_14h36.16.526,SurveyExpMetaMem,3.2.3,Win32,60
,,,,,,,,,,,,,,,,,,,,5,9.454999924,5,0.164999723,1,0,1200,55,1,1199,rare,11129,2019-10-22_14h36.16.526,SurveyExpMetaMem,3.2.3,Win32,60
,,,,,,,,,,,,,,,,,,,,5,1.458999872,5,0.157999992,1,0,1200,206,1,1199,comet,11129,2019-10-22_14h36.16.526,SurveyExpMetaMem,3.2.3,Win32,60
,,,,,,,,,,,,,,,,,,,,5,6.358999729,5,0.214999914,1,0,1200,479,1,1199,period,11129,2019-10-22_14h36.16.526,SurveyExpMetaMem,3.2.3,Win32,60
,,,,,,,,,,,,,,,,,,,,5,2.838999987,5,0.157999754,1,0,1200,801,1,1199,noon,11129,2019-10-22_14h36.16.526,SurveyExpMetaMem,3.2.3,Win32,60
,,,,,,,,,,,,,,,,,,,,6,2.989999771,3,0.946999788,1,0,1200,1186,1,1199,goddamn,11129,2019-10-22_14h36.16.526,SurveyExpMetaMem,3.2.3,Win32,60
,,,,,,,,,,,,,,,,,,,,5,6.945999861,5,0.210999966,1,0,1200,759,1,1199,prefer,11129,2019-10-22_14h36.16.526,SurveyExpMetaMem,3.2.3,Win32,60
,,,,,,,,,,,,,,,,,,,,5,0.944999933,5,0.225999832,1,0,1200,724,1,1199,owl,11129,2019-10-22_14h36.16.526,SurveyExpMetaMem,3.2.3,Win32,60
,,,,,,,,,,,,,,,,,,,,5,1.127999783,5,0.221999884,1,0,1200,859,1,1199,serene,11129,2019-10-22_14h36.16.526,SurveyExpMetaMem,3.2.3,Win32,60
,,,,,,,,,,,,,,,,,,,,7,2.119999886,7,0.23699975,1,0,1200,269,1,1199,extravagant,11129,2019-10-22_14h36.16.526,SurveyExpMetaMem,3.2.3,Win32,60
,,,,,,,,,,,,,,,,,,,,5,1.235999823,5,0.15899992,1,0,1200,412,1,1199,mucus,11129,2019-10-22_14h36.16.526,SurveyExpMetaMem,3.2.3,Win32,60
,,,,,,,,,,,,,,,,,,,,5,1.395999908,5,0.176999807,1,0,1200,750,1,1199,porpoise,11129,2019-10-22_14h36.16.526,SurveyExpMetaMem,3.2.3,Win32,60
,,,,,,,,,,,,,,,,,,,,5,1.065999746,5,0.229999781,1,0,1200,279,1,1199,bargain,11129,2019-10-22_14h36.16.526,SurveyExpMetaMem,3.2.3,Win32,60
,,,,,,,,,,,,,,,,,,,,7,2.05099988,7,0.228999853,1,0,1200,218,1,1199,charming,11129,2019-10-22_14h36.16.526,SurveyExpMetaMem,3.2.3,Win32,60
,,,,,,,,,,,,,,,,,,,,7,1.205999851,7,0.184000015,1,0,1200,59,1,1199,sports,11129,2019-10-22_14h36.16.526,SurveyExpMetaMem,3.2.3,Win32,60
,,,,,,,,,,,,,,,,,,,,5,9.057999849,5,0.207999706,1,0,1200,632,1,1199,avenue,11129,2019-10-22_14h36.16.526,SurveyExpMetaMem,3.2.3,Win32,60
,,,,,,,,,,,,,,,,,,,,4,2.307999849,2,0.489999771,1,0,1200,574,1,1199,distracted,11129,2019-10-22_14h36.16.526,SurveyExpMetaMem,3.2.3,Win32,60
,,,,,,,,,,,,,,,,,,,,7,17.06299973,7,0.184999704,1,0,1200,262,1,1199,athletics,11129,2019-10-22_14h36.16.526,SurveyExpMetaMem,3.2.3,Win32,60
,,,,,,,,,,,,,,,,,,,,5,1.845999956,5,0.250999689,1,0,1200,498,1,1199,alimony,11129,2019-10-22_14h36.16.526,SurveyExpMetaMem,3.2.3,Win32,60
,,,,,,,,,,,,,,,,,,,,6,2.976000071,3,1.161999941,1,0,1200,1008,1,1199,gang,11129,2019-10-22_14h36.16.526,SurveyExpMetaMem,3.2.3,Win32,60
,,,,,,,,,,,,,,,,,,,,5,1.303999901,5,0.193999767,1,0,1200,210,1,1199,elephant,11129,2019-10-22_14h36.16.526,SurveyExpMetaMem,3.2.3,Win32,60
,,,,,,,,,,,,,,,,,,,,7,18.36799979,3,0.994999647,1,0,1200,1021,1,1199,attack,11129,2019-10-22_14h36.16.526,SurveyExpMetaMem,3.2.3,Win32,60
,,,,,,,,,,,,,,,,,,,,4,2.683999777,4,1.951999903,1,0,1200,550,1,1199,fart,11129,2019-10-22_14h36.16.526,SurveyExpMetaMem,3.2.3,Win32,60
,,,,,,,,,,,,,,,,,,,,5,1.302000046,5,0.240999937,1,0,1200,694,1,1199,pecan,11129,2019-10-22_14h36.16.526,SurveyExpMetaMem,3.2.3,Win32,60
,,,,,,,,,,,,,,,,,,,,7,2.954999924,4,0.917999744,1,0,1200,1150,1,1199,forceful,11129,2019-10-22_14h36.16.526,SurveyExpMetaMem,3.2.3,Win32,60
,,,,,,,,,,,,,,,,,,,,5,1.250999928,5,0.22300005,1,0,1200,994,1,1199,repulsed,11129,2019-10-22_14h36.16.526,SurveyExpMetaMem,3.2.3,Win32,60
,,,,,,,,,,,,,,,,,,,,5,2.193999767,5,0.158999681,1,0,1200,439,1,1199,spit,11129,2019-10-22_14h36.16.526,SurveyExpMetaMem,3.2.3,Win32,60
,,,,,,,,,,,,,,,,,,,,6,3.375,4,0.882999897,1,0,1200,492,1,1199,naive,11129,2019-10-22_14h36.16.526,SurveyExpMetaMem,3.2.3,Win32,60
,,,,,,,,,,,,,,,,,,,,8,3.247999907,6,1.870999813,1,0,1200,1064,1,1199,sinful,11129,2019-10-22_14h36.16.526,SurveyExpMetaMem,3.2.3,Win32,60
,,,,,,,,,,,,,,,,,,,,5,1.725999832,5,0.514999866,1,0,1200,1136,1,1199,appall,11129,2019-10-22_14h36.16.526,SurveyExpMetaMem,3.2.3,Win32,60
,,,,,,,,,,,,,,,,,,,,5,1.309999943,5,0.244999886,1,0,1200,445,1,1199,bleak,11129,2019-10-22_14h36.16.526,SurveyExpMetaMem,3.2.3,Win32,60
,,,,,,,,,,,,,,,,,,,,4,6.402999878,4,0.696999788,1,0,1200,336,1,1199,wasteful,11129,2019-10-22_14h36.16.526,SurveyExpMetaMem,3.2.3,Win32,60
,,,,,,,,,,,,,,,,,,,,5,4.838999748,7,0.707999706,1,0,1200,192,1,1199,pleased,11129,2019-10-22_14h36.16.526,SurveyExpMetaMem,3.2.3,Win32,60
,,,,,,,,,,,,,,,,,,,,5,3.221999884,5,0.52699995,1,0,1200,111,1,1199,band,11129,2019-10-22_14h36.16.526,SurveyExpMetaMem,3.2.3,Win32,60
,,,,,,,,,,,,,,,,,,,,5,5.188999891,5,0.24000001,1,0,1200,642,1,1199,newspaper,11129,2019-10-22_14h36.16.526,SurveyExpMetaMem,3.2.3,Win32,60
,,,,,,,,,,,,,,,,,,,,5,1.203999758,5,0.244999886,1,0,1200,321,1,1199,wart,11129,2019-10-22_14h36.16.526,SurveyExpMetaMem,3.2.3,Win32,60
,,,,,,,,,,,,,,,,,,,,5,1.671999931,5,0.182999849,1,0,1200,654,1,1199,brief,11129,2019-10-22_14h36.16.526,SurveyExpMetaMem,3.2.3,Win32,60
,,,,,,,,,,,,,,,,,,,,5,6.927999973,5,0.21999979,1,0,1200,677,1,1199,handwriting,11129,2019-10-22_14h36.16.526,SurveyExpMetaMem,3.2.3,Win32,60
,,,,,,,,,,,,,,,,,,,,5,1.24000001,5,0.27099967,1,0,1200,1180,1,1199,heat,11129,2019-10-22_14h36.16.526,SurveyExpMetaMem,3.2.3,Win32,60
,,,,,,,,,,,,,,,,,,,,5,0.856999874,5,0.840999842,1,0,1200,1006,1,1199,rash,11129,2019-10-22_14h36.16.526,SurveyExpMetaMem,3.2.3,Win32,60
,,,,,,,,,,,,,,,,,,,,5,12.41999984,5,0.187999964,1,0,1200,800,1,1199,authentic,11129,2019-10-22_14h36.16.526,SurveyExpMetaMem,3.2.3,Win32,60
,,,,,,,,,,,,,,,,,,,,5,1.137999773,5,0.262999773,1,0,1200,430,1,1199,cancel,11129,2019-10-22_14h36.16.526,SurveyExpMetaMem,3.2.3,Win32,60
,,,,,,,,,,,,,,,,,,,,5,1.51699996,5,1.5,1,0,1200,160,1,1199,reunion,11129,2019-10-22_14h36.16.526,SurveyExpMetaMem,3.2.3,Win32,60
,,,,,,,,,,,,,,,,,,,,5,1.426999807,5,0.189999819,1,0,1200,209,1,1199,husband,11129,2019-10-22_14h36.16.526,SurveyExpMetaMem,3.2.3,Win32,60
,,,,,,,,,,,,,,,,,,,,6,2.836999893,3,1.058000088,1,0,1200,1193,1,1199,damn,11129,2019-10-22_14h36.16.526,SurveyExpMetaMem,3.2.3,Win32,60
,,,,,,,,,,,,,,,,,,,,5,9.338999748,5,0.245999813,1,0,1200,103,1,1199,conquest,11129,2019-10-22_14h36.16.526,SurveyExpMetaMem,3.2.3,Win32,60
,,,,,,,,,,,,,,,,,,,,5,1.026999712,5,0.19299984,1,0,1200,579,1,1199,bus,11129,2019-10-22_14h36.16.526,SurveyExpMetaMem,3.2.3,Win32,60
,,,,,,,,,,,,,,,,,,,,6,1.803999901,6,0.203999758,1,0,1200,294,1,1199,confident,11129,2019-10-22_14h36.16.526,SurveyExpMetaMem,3.2.3,Win32,60
,,,,,,,,,,,,,,,,,,,,5,1.505999804,5,0.259999752,1,0,1200,588,1,1199,bandage,11129,2019-10-22_14h36.16.526,SurveyExpMetaMem,3.2.3,Win32,60
,,,,,,,,,,,,,,,,,,,,5,1.368999958,5,0.207999945,1,0,1200,784,1,1199,logical,11129,2019-10-22_14h36.16.526,SurveyExpMetaMem,3.2.3,Win32,60
,,,,,,,,,,,,,,,,,,,,7,2.387999773,6,1.189999819,1,0,1200,264,1,1199,thong,11129,2019-10-22_14h36.16.526,SurveyExpMetaMem,3.2.3,Win32,60
,,,,,,,,,,,,,,,,,,,,7,5.659999847,2,0.875999928,1,0,1200,323,1,1199,ungrateful,11129,2019-10-22_14h36.16.526,SurveyExpMetaMem,3.2.3,Win32,60
,,,,,,,,,,,,,,,,,,,,7,2.338000059,3,0.903999805,1,0,1200,934,1,1199,sob,11129,2019-10-22_14h36.16.526,SurveyExpMetaMem,3.2.3,Win32,60
,,,,,,,,,,,,,,,,,,,,6,5.958999872,6,0.458999872,1,0,1200,68,1,1199,perfect,11129,2019-10-22_14h36.16.526,SurveyExpMetaMem,3.2.3,Win32,60
,,,,,,,,,,,,,,,,,,,,6,2.102999926,6,0.247999668,1,0,1200,868,1,1199,grace,11129,2019-10-22_14h36.16.526,SurveyExpMetaMem,3.2.3,Win32,60
,,,,,,,,,,,,,,,,,,,,6,6.093999863,6,0.217999697,1,0,1200,231,1,1199,cherish,11129,2019-10-22_14h36.16.526,SurveyExpMetaMem,3.2.3,Win32,60
,,,,,,,,,,,,,,,,,,,,5,11.46700001,5,0.151000023,1,0,1200,517,1,1199,habit,11129,2019-10-22_14h36.16.526,SurveyExpMetaMem,3.2.3,Win32,60
,,,,,,,,,,,,,,,,,,,,5,1.025999784,5,0.243999958,1,0,1200,569,1,1199,onion,11129,2019-10-22_14h36.16.526,SurveyExpMetaMem,3.2.3,Win32,60
,,,,,,,,,,,,,,,,,,,,5,1.296999693,5,0.222999811,1,0,1200,391,1,1199,detach,11129,2019-10-22_14h36.16.526,SurveyExpMetaMem,3.2.3,Win32,60
,,,,,,,,,,,,,,,,,,,,5,1.036999941,5,0.220999956,1,0,1200,603,1,1199,mane,11129,2019-10-22_14h36.16.526,SurveyExpMetaMem,3.2.3,Win32,60
,,,,,,,,,,,,,,,,,,,,3,7.772999763,9,1.355999708,1,0,1200,896,1,1199,cuddle,11129,2019-10-22_14h36.16.526,SurveyExpMetaMem,3.2.3,Win32,60
,,,,,,,,,,,,,,,,,,,,5,4.17599988,5,0.210999727,1,0,1200,102,1,1199,motorcycle,11129,2019-10-22_14h36.16.526,SurveyExpMetaMem,3.2.3,Win32,60
,,,,,,,,,,,,,,,,,,,,5,1.45299983,5,0.247999668,1,0,1200,1020,1,1199,malice,11129,2019-10-22_14h36.16.526,SurveyExpMetaMem,3.2.3,Win32,60
,,,,,,,,,,,,,,,,,,,,6,2.271999836,2,0.84499979,1,0,1200,928,1,1199,cruel,11129,2019-10-22_14h36.16.526,SurveyExpMetaMem,3.2.3,Win32,60
,,,,,,,,,,,,,,,,,,,,5,1.306999922,5,0.233999968,1,0,1200,889,1,1199,wise,11129,2019-10-22_14h36.16.526,SurveyExpMetaMem,3.2.3,Win32,60
,,,,,,,,,,,,,,,,,,,,5,1.845999956,5,2.497999668,1,0,1200,369,1,1199,blind,11129,2019-10-22_14h36.16.526,SurveyExpMetaMem,3.2.3,Win32,60
,,,,,,,,,,,,,,,,,,,,6,3.251999855,6,1.49000001,1,0,1200,282,1,1199,luck,11129,2019-10-22_14h36.16.526,SurveyExpMetaMem,3.2.3,Win32,60
,,,,,,,,,,,,,,,,,,,,5,6.989999771,5,0.538999796,1,0,1200,636,1,1199,refine,11129,2019-10-22_14h36.16.526,SurveyExpMetaMem,3.2.3,Win32,60
,,,,,,,,,,,,,,,,,,,,5,6.427999973,5,0.194999695,1,0,1200,434,1,1199,frail,11129,2019-10-22_14h36.16.526,SurveyExpMetaMem,3.2.3,Win32,60
,,,,,,,,,,,,,,,,,,,,7,1.904000044,2,0.904999971,1,0,1200,907,1,1199,terrorist,11129,2019-10-22_14h36.16.526,SurveyExpMetaMem,3.2.3,Win32,60
,,,,,,,,,,,,,,,,,,,,5,1.556999922,5,0.167999744,1,0,1200,747,1,1199,furniture,11129,2019-10-22_14h36.16.526,SurveyExpMetaMem,3.2.3,Win32,60
,,,,,,,,,,,,,,,,,,,,5,0.90199995,5,0.182999849,1,0,1200,780,1,1199,grass,11129,2019-10-22_14h36.16.526,SurveyExpMetaMem,3.2.3,Win32,60
,,,,,,,,,,,,,,,,,,,,5,1.297999859,5,0.56099987,1,0,1200,169,1,1199,aid,11129,2019-10-22_14h36.16.526,SurveyExpMetaMem,3.2.3,Win32,60
,,,,,,,,,,,,,,,,,,,,6,3.491999865,3,0.779999971,1,0,1200,394,1,1199,dump,11129,2019-10-22_14h36.16.526,SurveyExpMetaMem,3.2.3,Win32,60
,,,,,,,,,,,,,,,,,,,,5,1.421000004,5,0.196999788,1,0,1200,563,1,1199,stupor,11129,2019-10-22_14h36.16.526,SurveyExpMetaMem,3.2.3,Win32,60
,,,,,,,,,,,,,,,,,,,,5,1.205999851,5,0.181999922,1,0,1200,687,1,1199,skinny,11129,2019-10-22_14h36.16.526,SurveyExpMetaMem,3.2.3,Win32,60
,,,,,,,,,,,,,,,,,,,,6,2.218999863,3,0.536999941,1,0,1200,1099,1,1199,fire,11129,2019-10-22_14h36.16.526,SurveyExpMetaMem,3.2.3,Win32,60
,,,,,,,,,,,,,,,,,,,,5,1.386999846,5,0.218999863,1,0,1200,599,1,1199,obstinate,11129,2019-10-22_14h36.16.526,SurveyExpMetaMem,3.2.3,Win32,60
,,,,,,,,,,,,,,,,,,,,4,2.554999828,3,1.143999815,1,0,1200,583,1,1199,obey,11129,2019-10-22_14h36.16.526,SurveyExpMetaMem,3.2.3,Win32,60
,,,,,,,,,,,,,,,,,,,,5,1.195999861,5,0.190999985,1,0,1200,257,1,1199,cockpit,11129,2019-10-22_14h36.16.526,SurveyExpMetaMem,3.2.3,Win32,60
,,,,,,,,,,,,,,,,,,,,5,1.023999929,5,0.191999912,1,0,1200,531,1,1199,omit,11129,2019-10-22_14h36.16.526,SurveyExpMetaMem,3.2.3,Win32,60
,,,,,,,,,,,,,,,,,,,,5,0.789999723,5,0.190999746,1,0,1200,702,1,1199,den,11129,2019-10-22_14h36.16.526,SurveyExpMetaMem,3.2.3,Win32,60
,,,,,,,,,,,,,,,,,,,,7,1.780999899,7,0.183999777,1,0,1200,183,1,1199,congratulate,11129,2019-10-22_14h36.16.526,SurveyExpMetaMem,3.2.3,Win32,60
,,,,,,,,,,,,,,,,,,,,5,1.287999868,5,0.159999847,1,0,1200,684,1,1199,send,11129,2019-10-22_14h36.16.526,SurveyExpMetaMem,3.2.3,Win32,60
,,,,,,,,,,,,,,,,,,,,7,1.778999805,2,0.830999851,1,0,1200,959,1,1199,divorce,11129,2019-10-22_14h36.16.526,SurveyExpMetaMem,3.2.3,Win32,60
,,,,,,,,,,,,,,,,,,,,5,1.056999683,5,0.154000044,1,0,1200,842,1,1199,breathe,11129,2019-10-22_14h36.16.526,SurveyExpMetaMem,3.2.3,Win32,60
,,,,,,,,,,,,,,,,,,,,8,2.205999851,1,1.029999733,1,0,1200,903,1,1199,cancer,11129,2019-10-22_14h36.16.526,SurveyExpMetaMem,3.2.3,Win32,60
,,,,,,,,,,,,,,,,,,,,5,1.427999973,5,0.164999962,1,0,1200,260,1,1199,control,11129,2019-10-22_14h36.16.526,SurveyExpMetaMem,3.2.3,Win32,60
,,,,,,,,,,,,,,,,,,,,7,2.492999792,7,1.105999947,1,0,1200,1172,1,1199,overwhelmed,11129,2019-10-22_14h36.16.526,SurveyExpMetaMem,3.2.3,Win32,60
,,,,,,,,,,,,,,,,,,,,5,3.087999821,5,0.225999832,1,0,1200,613,1,1199,cup,11129,2019-10-22_14h36.16.526,SurveyExpMetaMem,3.2.3,Win32,60
,,,,,,,,,,,,,,,,,,,,5,1.137999773,5,0.226999998,1,0,1200,23,1,1199,earn,11129,2019-10-22_14h36.16.526,SurveyExpMetaMem,3.2.3,Win32,60
,,,,,,,,,,,,,,,,,,,,5,0.940999746,5,0.239999771,1,0,1200,621,1,1199,chew,11129,2019-10-22_14h36.16.526,SurveyExpMetaMem,3.2.3,Win32,60
,,,,,,,,,,,,,,,,,,,,5,0.923999786,5,0.193999767,1,0,1200,831,1,1199,sofa,11129,2019-10-22_14h36.16.526,SurveyExpMetaMem,3.2.3,Win32,60
,,,,,,,,,,,,,,,,,,,,6,2.515999794,6,0.253999949,1,0,1200,77,1,1199,adore,11129,2019-10-22_14h36.16.526,SurveyExpMetaMem,3.2.3,Win32,60
,,,,,,,,,,,,,,,,,,,,6,2.750999928,6,0.186999798,1,0,1200,69,1,1199,special,11129,2019-10-22_14h36.16.526,SurveyExpMetaMem,3.2.3,Win32,60
,,,,,,,,,,,,,,,,,,,,5,3.487999916,5,0.24000001,1,0,1200,1138,1,1199,wail,11129,2019-10-22_14h36.16.526,SurveyExpMetaMem,3.2.3,Win32,60
,,,,,,,,,,,,,,,,,,,,7,5.682999849,1,0.911000013,1,0,1200,1037,1,1199,scared,11129,2019-10-22_14h36.16.526,SurveyExpMetaMem,3.2.3,Win32,60
,,,,,,,,,,,,,,,,,,,,5,1.290999889,5,0.205999851,1,0,1200,401,1,1199,feeble,11129,2019-10-22_14h36.16.526,SurveyExpMetaMem,3.2.3,Win32,60
,,,,,,,,,,,,,,,,,,,,5,1.018999815,5,0.170000076,1,0,1200,567,1,1199,folly,11129,2019-10-22_14h36.16.526,SurveyExpMetaMem,3.2.3,Win32,60
,,,,,,,,,,,,,,,,,,,,5,0.936999798,5,0.174999952,1,0,1200,703,1,1199,book,11129,2019-10-22_14h36.16.526,SurveyExpMetaMem,3.2.3,Win32,60
,,,,,,,,,,,,,,,,,,,,5,1.806999922,3,1.555999994,1,0,1200,311,1,1199,discomfort,11129,2019-10-22_14h36.16.526,SurveyExpMetaMem,3.2.3,Win32,60
,,,,,,,,,,,,,,,,,,,,4,3.620999813,2,0.592999935,1,0,1200,1056,1,1199,crime,11129,2019-10-22_14h36.16.526,SurveyExpMetaMem,3.2.3,Win32,60
,,,,,,,,,,,,,,,,,,,,5,6.057999849,5,0.204999924,1,0,1200,989,1,1199,banish,11129,2019-10-22_14h36.16.526,SurveyExpMetaMem,3.2.3,Win32,60
,,,,,,,,,,,,,,,,,,,,7,2.353999853,2,1.095999956,1,0,1200,951,1,1199,castrate,11129,2019-10-22_14h36.16.526,SurveyExpMetaMem,3.2.3,Win32,60
,,,,,,,,,,,,,,,,,,,,9,2.721999884,1,1.007999897,1,0,1200,944,1,1199,kill,11129,2019-10-22_14h36.16.526,SurveyExpMetaMem,3.2.3,Win32,60
,,,,,,,,,,,,,,,,,,,,5,3.31099987,5,0.279999971,1,0,1200,189,1,1199,thoughtful,11129,2019-10-22_14h36.16.526,SurveyExpMetaMem,3.2.3,Win32,60
,,,,,,,,,,,,,,,,,,,,5,1.453999758,4,1.382999897,1,0,1200,377,1,1199,complain,11129,2019-10-22_14h36.16.526,SurveyExpMetaMem,3.2.3,Win32,60
,,,,,,,,,,,,,,,,,,,,5,2.637999773,5,0.253999949,1,0,1200,787,1,1199,dawn,11129,2019-10-22_14h36.16.526,SurveyExpMetaMem,3.2.3,Win32,60
,,,,,,,,,,,,,,,,,,,,8,2.684999704,3,1.525999784,1,0,1200,190,1,1199,rescue,11129,2019-10-22_14h36.16.526,SurveyExpMetaMem,3.2.3,Win32,60
,,,,,,,,,,,,,,,,,,,,8,2.230999708,2,0.912999868,1,0,1200,1104,1,1199,avalanche,11129,2019-10-22_14h36.16.526,SurveyExpMetaMem,3.2.3,Win32,60
,,,,,,,,,,,,,,,,,,,,7,3.938999653,3,1.488999844,1,0,1200,1030,1,1199,offend,11129,2019-10-22_14h36.16.526,SurveyExpMetaMem,3.2.3,Win32,60
,,,,,,,,,,,,,,,,,,,,5,4.318999767,5,0.222999811,1,0,1200,1123,1,1199,haunt,11129,2019-10-22_14h36.16.526,SurveyExpMetaMem,3.2.3,Win32,60
,,,,,,,,,,,,,,,,,,,,5,2.940999985,5,0.25999999,1,0,1200,688,1,1199,jelly,11129,2019-10-22_14h36.16.526,SurveyExpMetaMem,3.2.3,Win32,60
,,,,,,,,,,,,,,,,,,,,5,4.582999945,5,0.222999811,1,0,1200,18,1,1199,mail,11129,2019-10-22_14h36.16.526,SurveyExpMetaMem,3.2.3,Win32,60
,,,,,,,,,,,,,,,,,,,,6,3.257999897,3,1.022999763,1,0,1200,1069,1,1199,defeat,11129,2019-10-22_14h36.16.526,SurveyExpMetaMem,3.2.3,Win32,60
,,,,,,,,,,,,,,,,,,,,5,1.227999687,5,0.184999704,1,0,1200,178,1,1199,alive,11129,2019-10-22_14h36.16.526,SurveyExpMetaMem,3.2.3,Win32,60
,,,,,,,,,,,,,,,,,,,,5,2.805999756,5,0.223999739,1,0,1200,1009,1,1199,frightened,11129,2019-10-22_14h36.16.526,SurveyExpMetaMem,3.2.3,Win32,60
,,,,,,,,,,,,,,,,,,,,4,3.099999905,2,0.638999701,1,0,1200,300,1,1199,unhappy,11129,2019-10-22_14h36.16.526,SurveyExpMetaMem,3.2.3,Win32,60
,,,,,,,,,,,,,,,,,,,,5,1.156999826,5,0.207999945,1,0,1200,796,1,1199,rose,11129,2019-10-22_14h36.16.526,SurveyExpMetaMem,3.2.3,Win32,60
,,,,,,,,,,,,,,,,,,,,5,9.786999941,5,0.203999758,1,0,1200,673,1,1199,bedspread,11129,2019-10-22_14h36.16.526,SurveyExpMetaMem,3.2.3,Win32,60
,,,,,,,,,,,,,,,,,,,,5,3.536000013,5,0.162999868,1,0,1200,845,1,1199,honey,11129,2019-10-22_14h36.16.526,SurveyExpMetaMem,3.2.3,Win32,60
,,,,,,,,,,,,,,,,,,,,5,1.708999872,5,0.732999802,1,0,1200,328,1,1199,disgrace,11129,2019-10-22_14h36.16.526,SurveyExpMetaMem,3.2.3,Win32,60
,,,,,,,,,,,,,,,,,,,,5,0.180999756,6,2.592999697,1,0,1200,229,1,1199,heaven,11129,2019-10-22_14h36.16.526,SurveyExpMetaMem,3.2.3,Win32,60
,,,,,,,,,,,,,,,,,,,,6,4.600999832,2,0.722999811,1,0,1200,204,1,1199,crazy,11129,2019-10-22_14h36.16.526,SurveyExpMetaMem,3.2.3,Win32,60
,,,,,,,,,,,,,,,,,,,,6,16.7559998,2,1.007999659,1,0,1200,946,1,1199,amputate,11129,2019-10-22_14h36.16.526,SurveyExpMetaMem,3.2.3,Win32,60
,,,,,,,,,,,,,,,,,,,,6,1.370999813,2,0.632999897,1,0,1200,971,1,1199,crash,11129,2019-10-22_14h36.16.526,SurveyExpMetaMem,3.2.3,Win32,60
,,,,,,,,,,,,,,,,,,,,5,3.194999933,5,0.249999762,1,0,1200,436,1,1199,mediocre,11129,2019-10-22_14h36.16.526,SurveyExpMetaMem,3.2.3,Win32,60
,,,,,,,,,,,,,,,,,,,,5,0.875999928,5,0.225999832,1,0,1200,14,1,1199,attain,11129,2019-10-22_14h36.16.526,SurveyExpMetaMem,3.2.3,Win32,60
,,,,,,,,,,,,,,,,,,,,5,0.761999846,7,1.276000023,1,0,1200,267,1,1199,bold,11129,2019-10-22_14h36.16.526,SurveyExpMetaMem,3.2.3,Win32,60
,,,,,,,,,,,,,,,,,,,,5,1.839999914,5,0.181999922,1,0,1200,913,1,1199,ulcer,11129,2019-10-22_14h36.16.526,SurveyExpMetaMem,3.2.3,Win32,60
,,,,,,,,,,,,,,,,,,,,5,2.326999903,5,0.198999882,1,0,1200,462,1,1199,shallow,11129,2019-10-22_14h36.16.526,SurveyExpMetaMem,3.2.3,Win32,60
,,,,,,,,,,,,,,,,,,,,5,0.8349998,5,0.188999891,1,0,1200,1118,1,1199,frantic,11129,2019-10-22_14h36.16.526,SurveyExpMetaMem,3.2.3,Win32,60
,,,,,,,,,,,,,,,,,,,,7,1.61899972,2,0.667999744,1,0,1200,1174,1,1199,beast,11129,2019-10-22_14h36.16.526,SurveyExpMetaMem,3.2.3,Win32,60
,,,,,,,,,,,,,,,,,,,,5,3.889999866,5,0.228999853,1,0,1200,435,1,1199,grovel,11129,2019-10-22_14h36.16.526,SurveyExpMetaMem,3.2.3,Win32,60
,,,,,,,,,,,,,,,,,,,,5,4.938999891,5,0.194999933,1,0,1200,409,1,1199,old,11129,2019-10-22_14h36.16.526,SurveyExpMetaMem,3.2.3,Win32,60
,,,,,,,,,,,,,,,,,,,,5,9.056999683,5,0.174999952,1,0,1200,469,1,1199,resent,11129,2019-10-22_14h36.16.526,SurveyExpMetaMem,3.2.3,Win32,60
,,,,,,,,,,,,,,,,,,,,8,1.723999977,1,0.758999825,1,0,1200,901,1,1199,rape,11129,2019-10-22_14h36.16.526,SurveyExpMetaMem,3.2.3,Win32,60
,,,,,,,,,,,,,,,,,,,,7,1.888000011,1,0.71999979,1,0,1200,1070,1,1199,bleed,11129,2019-10-22_14h36.16.526,SurveyExpMetaMem,3.2.3,Win32,60
,,,,,,,,,,,,,,,,,,,,6,2.143999815,4,1.188999891,1,0,1200,423,1,1199,stain,11129,2019-10-22_14h36.16.526,SurveyExpMetaMem,3.2.3,Win32,60
,,,,,,,,,,,,,,,,,,,,5,1.588999748,5,0.172999859,1,0,1200,147,1,1199,cure,11129,2019-10-22_14h36.16.526,SurveyExpMetaMem,3.2.3,Win32,60
,,,,,,,,,,,,,,,,,,,,7,1.66899991,7,0.105999947,1,0,1200,138,1,1199,blessings,11129,2019-10-22_14h36.16.526,SurveyExpMetaMem,3.2.3,Win32,60
,,,,,,,,,,,,,,,,,,,,7,2.246999979,2,0.761999846,1,0,1200,397,1,1199,complaint,11129,2019-10-22_14h36.16.526,SurveyExpMetaMem,3.2.3,Win32,60
,,,,,,,,,,,,,,,,,,,,5,1.076999903,5,0.218999863,1,0,1200,624,1,1199,tower,11129,2019-10-22_14h36.16.526,SurveyExpMetaMem,3.2.3,Win32,60
,,,,,,,,,,,,,,,,,,,,6,2.350999832,2,0.674999714,1,0,1200,908,1,1199,suffer,11129,2019-10-22_14h36.16.526,SurveyExpMetaMem,3.2.3,Win32,60
,,,,,,,,,,,,,,,,,,,,5,2.406999826,6,0.17599988,1,0,1200,852,1,1199,caring,11129,2019-10-22_14h36.16.526,SurveyExpMetaMem,3.2.3,Win32,60
,,,,,,,,,,,,,,,,,,,,7,3.90299964,3,0.954999685,1,0,1200,1126,1,1199,offensive,11129,2019-10-22_14h36.16.526,SurveyExpMetaMem,3.2.3,Win32,60
,,,,,,,,,,,,,,,,,,,,5,1.743000031,5,0.361999989,1,0,1200,721,1,1199,contemporary,11129,2019-10-22_14h36.16.526,SurveyExpMetaMem,3.2.3,Win32,60
,,,,,,,,,,,,,,,,,,,,5,3.306999922,5,0.262999773,1,0,1200,1184,1,1199,reckless,11129,2019-10-22_14h36.16.526,SurveyExpMetaMem,3.2.3,Win32,60
,,,,,,,,,,,,,,,,,,,,5,8.792999983,5,0.2099998,1,0,1200,1145,1,1199,officer,11129,2019-10-22_14h36.16.526,SurveyExpMetaMem,3.2.3,Win32,60
,,,,,,,,,,,,,,,,,,,,4,11.32099986,2,0.767999887,1,0,1200,1019,1,1199,fraud,11129,2019-10-22_14h36.16.526,SurveyExpMetaMem,3.2.3,Win32,60
,,,,,,,,,,,,,,,,,,,,5,2.644999743,5,0.205999851,1,0,1200,70,1,1199,cartoon,11129,2019-10-22_14h36.16.526,SurveyExpMetaMem,3.2.3,Win32,60
,,,,,,,,,,,,,,,,,,,,5,5.806999922,5,0.20299983,1,0,1200,553,1,1199,corner,11129,2019-10-22_14h36.16.526,SurveyExpMetaMem,3.2.3,Win32,60
,,,,,,,,,,,,,,,,,,,,6,2.177999973,2,0.765999794,1,0,1200,920,1,1199,hurt,11129,2019-10-22_14h36.16.526,SurveyExpMetaMem,3.2.3,Win32,60
,,,,,,,,,,,,,,,,,,,,5,14.46999979,5,0.176999807,1,0,1200,825,1,1199,swan,11129,2019-10-22_14h36.16.526,SurveyExpMetaMem,3.2.3,Win32,60
,,,,,,,,,,,,,,,,,,,,5,1.148000002,5,0.163999796,1,0,1200,1113,1,1199,dagger,11129,2019-10-22_14h36.16.526,SurveyExpMetaMem,3.2.3,Win32,60
,,,,,,,,,,,,,,,,,,,,6,1.375999689,2,0.804999828,1,0,1200,881,1,1199,protected,11129,2019-10-22_14h36.16.526,SurveyExpMetaMem,3.2.3,Win32,60
,,,,,,,,,,,,,,,,,,,,6,3.120999813,3,0.608999968,1,0,1200,1090,1,1199,destruction,11129,2019-10-22_14h36.16.526,SurveyExpMetaMem,3.2.3,Win32,60
,,,,,,,,,,,,,,,,,,,,5,2.085999966,5,0.153999805,1,0,1200,46,1,1199,god,11129,2019-10-22_14h36.16.526,SurveyExpMetaMem,3.2.3,Win32,60
,,,,,,,,,,,,,,,,,,,,6,13.28999972,4,0.782999992,1,0,1200,254,1,1199,crush,11129,2019-10-22_14h36.16.526,SurveyExpMetaMem,3.2.3,Win32,60
,,,,,,,,,,,,,,,,,,,,6,2.518999815,4,0.527999878,1,0,1200,384,1,1199,idiot,11129,2019-10-22_14h36.16.526,SurveyExpMetaMem,3.2.3,Win32,60
,,,,,,,,,,,,,,,,,,,,3,3.467999935,5,0.621999741,1,0,1200,584,1,1199,anus,11129,2019-10-22_14h36.16.526,SurveyExpMetaMem,3.2.3,Win32,60
,,,,,,,,,,,,,,,,,,,,5,1.504999638,5,0.200999975,1,0,1200,44,1,1199,diploma,11129,2019-10-22_14h36.16.526,SurveyExpMetaMem,3.2.3,Win32,60
,,,,,,,,,,,,,,,,,,,,5,2.766999722,5,0.213999987,1,0,1200,586,1,1199,cab,11129,2019-10-22_14h36.16.526,SurveyExpMetaMem,3.2.3,Win32,60
,,,,,,,,,,,,,,,,,,,,7,2.224999905,7,1.455999851,1,0,1200,242,1,1199,triumph,11129,2019-10-22_14h36.16.526,SurveyExpMetaMem,3.2.3,Win32,60
,,,,,,,,,,,,,,,,,,,,7,3.569999695,2,1.246999979,1,0,1200,1028,1,1199,terror,11129,2019-10-22_14h36.16.526,SurveyExpMetaMem,3.2.3,Win32,60
,,,,,,,,,,,,,,,,,,,,4,13.52499986,4,0.662999868,1,0,1200,473,1,1199,senseless,11129,2019-10-22_14h36.16.526,SurveyExpMetaMem,3.2.3,Win32,60
,,,,,,,,,,,,,,,,,,,,5,1.606999636,5,0.221999884,1,0,1200,1168,1,1199,financial,11129,2019-10-22_14h36.16.526,SurveyExpMetaMem,3.2.3,Win32,60
,,,,,,,,,,,,,,,,,,,,4,2.182999849,4,0.449999809,1,0,1200,367,1,1199,pathetic,11129,2019-10-22_14h36.16.526,SurveyExpMetaMem,3.2.3,Win32,60
,,,,,,,,,,,,,,,,,,,,4,1.256999969,4,0.243999958,1,0,1200,1114,1,1199,foe,11129,2019-10-22_14h36.16.526,SurveyExpMetaMem,3.2.3,Win32,60
,,,,,,,,,,,,,,,,,,,,3,2.988999844,4,0.739999771,1,0,1200,455,1,1199,chubby,11129,2019-10-22_14h36.16.526,SurveyExpMetaMem,3.2.3,Win32,60
,,,,,,,,,,,,,,,,,,,,5,2.838999748,2,3.463999987,1,0,1200,940,1,1199,war,11129,2019-10-22_14h36.16.526,SurveyExpMetaMem,3.2.3,Win32,60
,,,,,,,,,,,,,,,,,,,,4,2.034999847,2,0.653999805,1,0,1200,1071,1,1199,uncomfortable,11129,2019-10-22_14h36.16.526,SurveyExpMetaMem,3.2.3,Win32,60
,,,,,,,,,,,,,,,,,,,,5,1.943999767,5,0.260999918,1,0,1200,263,1,1199,answer,11129,2019-10-22_14h36.16.526,SurveyExpMetaMem,3.2.3,Win32,60
,,,,,,,,,,,,,,,,,,,,5,1.973999977,5,0.238999844,1,0,1200,1045,1,1199,scalding,11129,2019-10-22_14h36.16.526,SurveyExpMetaMem,3.2.3,Win32,60
,,,,,,,,,,,,,,,,,,,,8,2.235999823,4,1.256999731,1,0,1200,268,1,1199,tickle,11129,2019-10-22_14h36.16.526,SurveyExpMetaMem,3.2.3,Win32,60
,,,,,,,,,,,,,,,,,,,,5,1.653999805,5,0.355000019,1,0,1200,667,1,1199,dew,11129,2019-10-22_14h36.16.526,SurveyExpMetaMem,3.2.3,Win32,60
,,,,,,,,,,,,,,,,,,,,5,2.708999872,5,0.243999958,1,0,1200,830,1,1199,pear,11129,2019-10-22_14h36.16.526,SurveyExpMetaMem,3.2.3,Win32,60
,,,,,,,,,,,,,,,,,,,,5,1.240999699,5,0.258999825,1,0,1200,607,1,1199,greyhound,11129,2019-10-22_14h36.16.526,SurveyExpMetaMem,3.2.3,Win32,60
,,,,,,,,,,,,,,,,,,,,5,1.128999949,5,0.28399992,1,0,1200,729,1,1199,velvet,11129,2019-10-22_14h36.16.526,SurveyExpMetaMem,3.2.3,Win32,60
,,,,,,,,,,,,,,,,,,,,5,0.684999943,5,0.23300004,1,0,1200,738,1,1199,horse,11129,2019-10-22_14h36.16.526,SurveyExpMetaMem,3.2.3,Win32,60
,,,,,,,,,,,,,,,,,,,,6,2.065999746,4,0.653999805,1,0,1200,958,1,1199,traitor,11129,2019-10-22_14h36.16.526,SurveyExpMetaMem,3.2.3,Win32,60
,,,,,,,,,,,,,,,,,,,,5,7.289999723,4,0.419999838,1,0,1200,947,1,1199,shame,11129,2019-10-22_14h36.16.526,SurveyExpMetaMem,3.2.3,Win32,60
,,,,,,,,,,,,,,,,,,,,5,1.560999632,5,0.223999739,1,0,1200,597,1,1199,drool,11129,2019-10-22_14h36.16.526,SurveyExpMetaMem,3.2.3,Win32,60
,,,,,,,,,,,,,,,,,,,,5,9.088999987,5,0.451999903,1,0,1200,172,1,1199,potential,11129,2019-10-22_14h36.16.526,SurveyExpMetaMem,3.2.3,Win32,60
,,,,,,,,,,,,,,,,,,,,5,7.402999878,5,0.263000011,1,0,1200,1084,1,1199,uneasy,11129,2019-10-22_14h36.16.526,SurveyExpMetaMem,3.2.3,Win32,60
,,,,,,,,,,,,,,,,,,,,5,1.269999743,5,0.223999739,1,0,1200,984,1,1199,despairing,11129,2019-10-22_14h36.16.526,SurveyExpMetaMem,3.2.3,Win32,60
,,,,,,,,,,,,,,,,,,,,5,1.078999758,5,0.218999863,1,0,1200,762,1,1199,orchestra,11129,2019-10-22_14h36.16.526,SurveyExpMetaMem,3.2.3,Win32,60
,,,,,,,,,,,,,,,,,,,,5,1.261999846,5,0.29399991,1,0,1200,743,1,1199,herbal,11129,2019-10-22_14h36.16.526,SurveyExpMetaMem,3.2.3,Win32,60
,,,,,,,,,,,,,,,,,,,,4,3.724999905,4,0.360999823,1,0,1200,835,1,1199,helpful,11129,2019-10-22_14h36.16.526,SurveyExpMetaMem,3.2.3,Win32,60
,,,,,,,,,,,,,,,,,,,,5,5.473999739,5,0.305999756,1,0,1200,711,1,1199,sympathetic,11129,2019-10-22_14h36.16.526,SurveyExpMetaMem,3.2.3,Win32,60
,,,,,,,,,,,,,,,,,,,,5,1.058999777,5,0.270999908,1,0,1200,274,1,1199,song,11129,2019-10-22_14h36.16.526,SurveyExpMetaMem,3.2.3,Win32,60
,,,,,,,,,,,,,,,,,,,,5,1.256000042,5,0.319000006,1,0,1200,4,1,1199,night,11129,2019-10-22_14h36.16.526,SurveyExpMetaMem,3.2.3,Win32,60
,,,,,,,,,,,,,,,,,,,,5,0.971999884,7,2.232999802,1,0,1200,124,1,1199,honeymoon,11129,2019-10-22_14h36.16.526,SurveyExpMetaMem,3.2.3,Win32,60
,,,,,,,,,,,,,,,,,,,,8,2.640999794,2,2.671999931,1,0,1200,1152,1,1199,scream,11129,2019-10-22_14h36.16.526,SurveyExpMetaMem,3.2.3,Win32,60
,,,,,,,,,,,,,,,,,,,,5,2.763999939,5,0.243999958,1,0,1200,388,1,1199,mildew,11129,2019-10-22_14h36.16.526,SurveyExpMetaMem,3.2.3,Win32,60
,,,,,,,,,,,,,,,,,,,,5,3.187999725,5,0.258999825,1,0,1200,1075,1,1199,apprehension,11129,2019-10-22_14h36.16.526,SurveyExpMetaMem,3.2.3,Win32,60
,,,,,,,,,,,,,,,,,,,,6,2.023999691,3,1.013000011,1,0,1200,1053,1,1199,surgery,11129,2019-10-22_14h36.16.526,SurveyExpMetaMem,3.2.3,Win32,60
,,,,,,,,,,,,,,,,,,,,5,3382.598,5,0.178999901,1,0,1200,6,1,1199,chest,11129,2019-10-22_14h36.16.526,SurveyExpMetaMem,3.2.3,Win32,60
,,,,,,,,,,,,,,,,,,,,5,0.992999792,5,0.189999819,1,0,1200,283,1,1199,elated,11129,2019-10-22_14h36.16.526,SurveyExpMetaMem,3.2.3,Win32,60
,,,,,,,,,,,,,,,,,,,,7,3.391000032,4,0.638000011,1,0,1200,1078,1,1199,trouble,11129,2019-10-22_14h36.16.526,SurveyExpMetaMem,3.2.3,Win32,60
,,,,,,,,,,,,,,,,,,,,6,2.912999868,6,0.194000006,1,0,1200,35,1,1199,bright,11129,2019-10-22_14h36.16.526,SurveyExpMetaMem,3.2.3,Win32,60
,,,,,,,,,,,,,,,,,,,,7,1.972999811,3,1.705999851,1,0,1200,319,1,1199,malaria,11129,2019-10-22_14h36.16.526,SurveyExpMetaMem,3.2.3,Win32,60
,,,,,,,,,,,,,,,,,,,,3,19.27299976,6,2.747999907,1,0,1200,885,1,1199,cozy,11129,2019-10-22_14h36.16.526,SurveyExpMetaMem,3.2.3,Win32,60
,,,,,,,,,,,,,,,,,,,,5,1.973999739,5,0.56099987,1,0,1200,804,1,1199,peach,11129,2019-10-22_14h36.16.526,SurveyExpMetaMem,3.2.3,Win32,60
,,,,,,,,,,,,,,,,,,,,7,2.74399972,7,0.212999821,1,0,1200,290,1,1199,enthusiasm,11129,2019-10-22_14h36.16.526,SurveyExpMetaMem,3.2.3,Win32,60
,,,,,,,,,,,,,,,,,,,,3,2.358999729,6,3.056999922,1,0,1200,875,1,1199,fluffy,11129,2019-10-22_14h36.16.526,SurveyExpMetaMem,3.2.3,Win32,60
,,,,,,,,,,,,,,,,,,,,5,2.201999903,5,0.553999901,1,0,1200,403,1,1199,wither,11129,2019-10-22_14h36.16.526,SurveyExpMetaMem,3.2.3,Win32,60
,,,,,,,,,,,,,,,,,,,,4,2.849999905,4,0.297999859,1,0,1200,303,1,1199,death,11129,2019-10-22_14h36.16.526,SurveyExpMetaMem,3.2.3,Win32,60
,,,,,,,,,,,,,,,,,,,,7,2.290999889,4,0.513999939,1,0,1200,1105,1,1199,flee,11129,2019-10-22_14h36.16.526,SurveyExpMetaMem,3.2.3,Win32,60
,,,,,,,,,,,,,,,,,,,,5,1.734999895,5,0.2099998,1,0,1200,834,1,1199,crown,11129,2019-10-22_14h36.16.526,SurveyExpMetaMem,3.2.3,Win32,60
,,,,,,,,,,,,,,,,,,,,5,1.020999908,5,0.184999704,1,0,1200,855,1,1199,girl,11129,2019-10-22_14h36.16.526,SurveyExpMetaMem,3.2.3,Win32,60
,,,,,,,,,,,,,,,,,,,,5,1.129999876,5,0.193999767,1,0,1200,990,1,1199,enraged,11129,2019-10-22_14h36.16.526,SurveyExpMetaMem,3.2.3,Win32,60
,,,,,,,,,,,,,,,,,,,,6,1.366999865,6,1.220000029,1,0,1200,40,1,1199,kissing,11129,2019-10-22_14h36.16.526,SurveyExpMetaMem,3.2.3,Win32,60
,,,,,,,,,,,,,,,,,,,,5,1.473999739,5,0.353999853,1,0,1200,717,1,1199,modest,11129,2019-10-22_14h36.16.526,SurveyExpMetaMem,3.2.3,Win32,60
,,,,,,,,,,,,,,,,,,,,4,14.1559999,7,1.16899991,1,0,1200,149,1,1199,loved,11129,2019-10-22_14h36.16.526,SurveyExpMetaMem,3.2.3,Win32,60
,,,,,,,,,,,,,,,,,,,,4,21.07099986,6,1.778999805,1,0,1200,848,1,1199,graceful,11129,2019-10-22_14h36.16.526,SurveyExpMetaMem,3.2.3,Win32,60
,,,,,,,,,,,,,,,,,,,,7,1.982999802,7,0.232999802,1,0,1200,28,1,1199,energy,11129,2019-10-22_14h36.16.526,SurveyExpMetaMem,3.2.3,Win32,60
,,,,,,,,,,,,,,,,,,,,5,4.03399992,5,0.178999901,1,0,1200,167,1,1199,casino,11129,2019-10-22_14h36.16.526,SurveyExpMetaMem,3.2.3,Win32,60
,,,,,,,,,,,,,,,,,,,,5,1.879999876,5,0.21999979,1,0,1200,330,1,1199,sunburn,11129,2019-10-22_14h36.16.526,SurveyExpMetaMem,3.2.3,Win32,60
,,,,,,,,,,,,,,,,,,,,5,2.233999968,5,0.196999788,1,0,1200,1144,1,1199,yelp,11129,2019-10-22_14h36.16.526,SurveyExpMetaMem,3.2.3,Win32,60
,,,,,,,,,,,,,,,,,,,,6,3.354999781,5,1.026999712,1,0,1200,611,1,1199,herring,11129,2019-10-22_14h36.16.526,SurveyExpMetaMem,3.2.3,Win32,60
,,,,,,,,,,,,,,,,,,,,5,1.70299983,5,0.276999712,1,0,1200,849,1,1199,blue,11129,2019-10-22_14h36.16.526,SurveyExpMetaMem,3.2.3,Win32,60
,,,,,,,,,,,,,,,,,,,,5,7.862999678,5,0.21999979,1,0,1200,810,1,1199,polite,11129,2019-10-22_14h36.16.526,SurveyExpMetaMem,3.2.3,Win32,60
,,,,,,,,,,,,,,,,,,,,5,0.847999811,5,0.738999844,1,0,1200,520,1,1199,gullible,11129,2019-10-22_14h36.16.526,SurveyExpMetaMem,3.2.3,Win32,60
,,,,,,,,,,,,,,,,,,,,3,2.555999994,6,1.19299984,1,0,1200,851,1,1199,cool,11129,2019-10-22_14h36.16.526,SurveyExpMetaMem,3.2.3,Win32,60
,,,,,,,,,,,,,,,,,,,,5,1.507999897,5,0.221999884,1,0,1200,179,1,1199,star,11129,2019-10-22_14h36.16.526,SurveyExpMetaMem,3.2.3,Win32,60
,,,,,,,,,,,,,,,,,,,,4,1.472999811,7,1.337999821,1,0,1200,857,1,1199,thankful,11129,2019-10-22_14h36.16.526,SurveyExpMetaMem,3.2.3,Win32,60
,,,,,,,,,,,,,,,,,,,,5,1.923999786,5,0.231999874,1,0,1200,1035,1,1199,expel,11129,2019-10-22_14h36.16.526,SurveyExpMetaMem,3.2.3,Win32,60
,,,,,,,,,,,,,,,,,,,,5,1.32799983,5,0.176999807,1,0,1200,89,1,1199,cruiseship,11129,2019-10-22_14h36.16.526,SurveyExpMetaMem,3.2.3,Win32,60
,,,,,,,,,,,,,,,,,,,,5,1.37899971,5,0.19299984,1,0,1200,64,1,1199,brain,11129,2019-10-22_14h36.16.526,SurveyExpMetaMem,3.2.3,Win32,60
,,,,,,,,,,,,,,,,,,,,5,1.4599998,5,0.208999872,1,0,1200,1173,1,1199,lurk,11129,2019-10-22_14h36.16.526,SurveyExpMetaMem,3.2.3,Win32,60
,,,,,,,,,,,,,,,,,,,,5,1.255999804,5,0.186999798,1,0,1200,600,1,1199,parlor,11129,2019-10-22_14h36.16.526,SurveyExpMetaMem,3.2.3,Win32,60
,,,,,,,,,,,,,,,,,,,,5,1.085999966,5,0.19299984,1,0,1200,864,1,1199,blanket,11129,2019-10-22_14h36.16.526,SurveyExpMetaMem,3.2.3,Win32,60
,,,,,,,,,,,,,,,,,,,,2,3.284999847,7,1.076999903,1,0,1200,481,1,1199,melancholy,11129,2019-10-22_14h36.16.526,SurveyExpMetaMem,3.2.3,Win32,60
,,,,,,,,,,,,,,,,,,,,5,2.890999794,5,0.382999897,1,0,1200,259,1,1199,thin,11129,2019-10-22_14h36.16.526,SurveyExpMetaMem,3.2.3,Win32,60
,,,,,,,,,,,,,,,,,,,,5,0.891000032,5,0.253999949,1,0,1200,763,1,1199,vegetables,11129,2019-10-22_14h36.16.526,SurveyExpMetaMem,3.2.3,Win32,60
,,,,,,,,,,,,,,,,,,,,5,1.640999794,5,0.261999846,1,0,1200,634,1,1199,glacier,11129,2019-10-22_14h36.16.526,SurveyExpMetaMem,3.2.3,Win32,60
,,,,,,,,,,,,,,,,,,,,5,1.270999908,5,0.25999999,1,0,1200,465,1,1199,void,11129,2019-10-22_14h36.16.526,SurveyExpMetaMem,3.2.3,Win32,60
,,,,,,,,,,,,,,,,,,,,7,2.296999931,2,2.563999891,1,0,1200,986,1,1199,mad,11129,2019-10-22_14h36.16.526,SurveyExpMetaMem,3.2.3,Win32,60
,,,,,,,,,,,,,,,,,,,,7,5.644999743,7,0.369999886,1,0,1200,195,1,1199,laughing,11129,2019-10-22_14h36.16.526,SurveyExpMetaMem,3.2.3,Win32,60
,,,,,,,,,,,,,,,,,,,,6,1.802999973,3,1.388999939,1,0,1200,1024,1,1199,burn,11129,2019-10-22_14h36.16.526,SurveyExpMetaMem,3.2.3,Win32,60
,,,,,,,,,,,,,,,,,,,,7,3.261999846,7,0.389999866,1,0,1200,292,1,1199,birthday,11129,2019-10-22_14h36.16.526,SurveyExpMetaMem,3.2.3,Win32,60
,,,,,,,,,,,,,,,,,,,,7,2.104999781,7,0.304999828,1,0,1200,11,1,1199,astonished,11129,2019-10-22_14h36.16.526,SurveyExpMetaMem,3.2.3,Win32,60
,,,,,,,,,,,,,,,,,,,,5,2.981999636,5,0.320999861,1,0,1200,493,1,1199,little,11129,2019-10-22_14h36.16.526,SurveyExpMetaMem,3.2.3,Win32,60
,,,,,,,,,,,,,,,,,,,,6,1.828999758,3,1.390999794,1,0,1200,1100,1,1199,evil,11129,2019-10-22_14h36.16.526,SurveyExpMetaMem,3.2.3,Win32,60
,,,,,,,,,,,,,,,,,,,,5,2.737999916,5,0.216999769,1,0,1200,265,1,1199,invent,11129,2019-10-22_14h36.16.526,SurveyExpMetaMem,3.2.3,Win32,60
,,,,,,,,,,,,,,,,,,,,7,2.226999998,2,1.226000071,1,0,1200,1101,1,1199,scary,11129,2019-10-22_14h36.16.526,SurveyExpMetaMem,3.2.3,Win32,60
,,,,,,,,,,,,,,,,,,,,4,5.407999754,4,0.470999718,1,0,1200,902,1,1199,rejected,11129,2019-10-22_14h36.16.526,SurveyExpMetaMem,3.2.3,Win32,60
