mouse_4.x,mouse_4.y,mouse_4.leftButton,mouse_4.midButton,mouse_4.rightButton,mouse.x,mouse.y,mouse.leftButton,mouse.midButton,mouse.rightButton,mouse_2.x,mouse_2.y,mouse_2.leftButton,mouse_2.midButton,mouse_2.rightButton,mouse_3.x,mouse_3.y,mouse_3.leftButton,mouse_3.midButton,mouse_3.rightButton,A_key_resp.keys,A_key_resp.rt,key_resp.keys,key_resp.rt,trials.thisRepN,trials.thisTrialN,trials.thisN,trials.thisIndex,trials.ran,trials.order,word,ParticipantID,date,expName,psychopyVersion,OS,frameRate
0.06,-0.083333333,1,0,0,0.06,-0.083333333,1,0,0,0.06,-0.083333333,1,0,0,0.06,-0.083333333,1,0,0,2,5.293000221,5,4.29399991,1,0,1200,677,1,1199,handwriting,11112,2019-10-21_17h08.30.181,SurveyExpMetaMem,3.2.3,MacIntel,60
,,,,,,,,,,,,,,,,,,,,6,4.826999903,3,3.840000153,1,0,1200,715,1,1199,sheltered,11112,2019-10-21_17h08.30.181,SurveyExpMetaMem,3.2.3,MacIntel,60
,,,,,,,,,,,,,,,,,,,,7,3.445000172,3,3.013999939,1,0,1200,312,1,1199,stench,11112,2019-10-21_17h08.30.181,SurveyExpMetaMem,3.2.3,MacIntel,60
,,,,,,,,,,,,,,,,,,,,3,3.261000156,7,2.703999996,1,0,1200,62,1,1199,interested,11112,2019-10-21_17h08.30.181,SurveyExpMetaMem,3.2.3,MacIntel,60
,,,,,,,,,,,,,,,,,,,,7,3.822000265,6,2.88800025,1,0,1200,64,1,1199,brain,11112,2019-10-21_17h08.30.181,SurveyExpMetaMem,3.2.3,MacIntel,60
,,,,,,,,,,,,,,,,,,,,8,3.213000059,1,1.904000044,1,0,1200,913,1,1199,ulcer,11112,2019-10-21_17h08.30.181,SurveyExpMetaMem,3.2.3,MacIntel,60
,,,,,,,,,,,,,,,,,,,,5,5.47300005,4,4.813000202,1,0,1200,1099,1,1199,fire,11112,2019-10-21_17h08.30.181,SurveyExpMetaMem,3.2.3,MacIntel,60
,,,,,,,,,,,,,,,,,,,,8,2.602999926,9,3.072000027,1,0,1200,281,1,1199,summer,11112,2019-10-21_17h08.30.181,SurveyExpMetaMem,3.2.3,MacIntel,60
,,,,,,,,,,,,,,,,,,,,3,1.948000193,5,3.205000162,1,0,1200,152,1,1199,hire,11112,2019-10-21_17h08.30.181,SurveyExpMetaMem,3.2.3,MacIntel,60
,,,,,,,,,,,,,,,,,,,,1,4.061000109,6,2.48300004,1,0,1200,718,1,1199,flow,11112,2019-10-21_17h08.30.181,SurveyExpMetaMem,3.2.3,MacIntel,60
,,,,,,,,,,,,,,,,,,,,6,2.911000013,8,1.992000103,1,0,1200,164,1,1199,marry,11112,2019-10-21_17h08.30.181,SurveyExpMetaMem,3.2.3,MacIntel,60
,,,,,,,,,,,,,,,,,,,,2,4.946000099,5,2.073999882,1,0,1200,679,1,1199,yellow,11112,2019-10-21_17h08.30.181,SurveyExpMetaMem,3.2.3,MacIntel,60
,,,,,,,,,,,,,,,,,,,,5,7.947999954,3,2.526000261,1,0,1200,345,1,1199,unfortunate,11112,2019-10-21_17h08.30.181,SurveyExpMetaMem,3.2.3,MacIntel,60
,,,,,,,,,,,,,,,,,,,,1,3.46600008,8,2.554000139,1,0,1200,894,1,1199,sunset,11112,2019-10-21_17h08.30.181,SurveyExpMetaMem,3.2.3,MacIntel,60
,,,,,,,,,,,,,,,,,,,,6,6.13800025,3,1.995000124,1,0,1200,1072,1,1199,bothered,11112,2019-10-21_17h08.30.181,SurveyExpMetaMem,3.2.3,MacIntel,60
,,,,,,,,,,,,,,,,,,,,3,5.213000059,8,2.522000074,1,0,1200,98,1,1199,affection,11112,2019-10-21_17h08.30.181,SurveyExpMetaMem,3.2.3,MacIntel,60
,,,,,,,,,,,,,,,,,,,,7,3.873000145,2,2.379000187,1,0,1200,314,1,1199,hopeless,11112,2019-10-21_17h08.30.181,SurveyExpMetaMem,3.2.3,MacIntel,60
,,,,,,,,,,,,,,,,,,,,5,3.739000082,5,0.312999964,1,0,1200,556,1,1199,allege,11112,2019-10-21_17h08.30.181,SurveyExpMetaMem,3.2.3,MacIntel,60
,,,,,,,,,,,,,,,,,,,,7,4.279000044,7,4.766000032,1,0,1200,182,1,1199,genius,11112,2019-10-21_17h08.30.181,SurveyExpMetaMem,3.2.3,MacIntel,60
,,,,,,,,,,,,,,,,,,,,3,4.493000031,3,1.611999989,1,0,1200,416,1,1199,boring,11112,2019-10-21_17h08.30.181,SurveyExpMetaMem,3.2.3,MacIntel,60
,,,,,,,,,,,,,,,,,,,,4,6.322999954,6,3.853000164,1,0,1200,147,1,1199,cure,11112,2019-10-21_17h08.30.181,SurveyExpMetaMem,3.2.3,MacIntel,60
,,,,,,,,,,,,,,,,,,,,6,9.172999859,9,1.554000139,1,0,1200,895,1,1199,peace,11112,2019-10-21_17h08.30.181,SurveyExpMetaMem,3.2.3,MacIntel,60
,,,,,,,,,,,,,,,,,,,,2,4.453999996,4,2.11400032,1,0,1200,428,1,1199,end,11112,2019-10-21_17h08.30.181,SurveyExpMetaMem,3.2.3,MacIntel,60
,,,,,,,,,,,,,,,,,,,,1,4.058000088,7,1.99600029,1,0,1200,855,1,1199,girl,11112,2019-10-21_17h08.30.181,SurveyExpMetaMem,3.2.3,MacIntel,60
,,,,,,,,,,,,,,,,,,,,7,4.556000233,2,1.828999996,1,0,1200,928,1,1199,cruel,11112,2019-10-21_17h08.30.181,SurveyExpMetaMem,3.2.3,MacIntel,60
,,,,,,,,,,,,,,,,,,,,4,4.546000242,9,1.18200016,1,0,1200,847,1,1199,moon,11112,2019-10-21_17h08.30.181,SurveyExpMetaMem,3.2.3,MacIntel,60
,,,,,,,,,,,,,,,,,,,,4,3.473000288,2,2.131000042,1,0,1200,453,1,1199,prude,11112,2019-10-21_17h08.30.181,SurveyExpMetaMem,3.2.3,MacIntel,60
,,,,,,,,,,,,,,,,,,,,1,1.95600009,5,1.688000202,1,0,1200,1195,1,1199,speech,11112,2019-10-21_17h08.30.181,SurveyExpMetaMem,3.2.3,MacIntel,60
,,,,,,,,,,,,,,,,,,,,5,4.822000027,7,3.745000124,1,0,1200,883,1,1199,sky,11112,2019-10-21_17h08.30.181,SurveyExpMetaMem,3.2.3,MacIntel,60
,,,,,,,,,,,,,,,,,,,,8,2.745000124,3,3.309000254,1,0,1200,1046,1,1199,unsafe,11112,2019-10-21_17h08.30.181,SurveyExpMetaMem,3.2.3,MacIntel,60
,,,,,,,,,,,,,,,,,,,,6,11.18200016,8,5.542000055,1,0,1200,16,1,1199,sing,11112,2019-10-21_17h08.30.181,SurveyExpMetaMem,3.2.3,MacIntel,60
,,,,,,,,,,,,,,,,,,,,8,4.17200017,1,0.849000216,1,0,1200,1178,1,1199,weight,11112,2019-10-21_17h08.30.181,SurveyExpMetaMem,3.2.3,MacIntel,60
,,,,,,,,,,,,,,,,,,,,7,4.355000019,2,1.328999996,1,0,1200,401,1,1199,feeble,11112,2019-10-21_17h08.30.181,SurveyExpMetaMem,3.2.3,MacIntel,60
,,,,,,,,,,,,,,,,,,,,8,2.446000099,2,1.962000132,1,0,1200,962,1,1199,poisonous,11112,2019-10-21_17h08.30.181,SurveyExpMetaMem,3.2.3,MacIntel,60
,,,,,,,,,,,,,,,,,,,,2,4.639000177,9,1.09800005,1,0,1200,93,1,1199,smiling,11112,2019-10-21_17h08.30.181,SurveyExpMetaMem,3.2.3,MacIntel,60
,,,,,,,,,,,,,,,,,,,,8,5.552999973,3,4.162000179,1,0,1200,1133,1,1199,slip,11112,2019-10-21_17h08.30.181,SurveyExpMetaMem,3.2.3,MacIntel,60
,,,,,,,,,,,,,,,,,,,,8,7.446000099,1,3.34100008,1,0,1200,909,1,1199,terrified,11112,2019-10-21_17h08.30.181,SurveyExpMetaMem,3.2.3,MacIntel,60
,,,,,,,,,,,,,,,,,,,,9,2.361000061,1,0.730999947,1,0,1200,1058,1,1199,bloody,11112,2019-10-21_17h08.30.181,SurveyExpMetaMem,3.2.3,MacIntel,60
,,,,,,,,,,,,,,,,,,,,3,2.853000164,5,1.737999916,1,0,1200,794,1,1199,pray,11112,2019-10-21_17h08.30.181,SurveyExpMetaMem,3.2.3,MacIntel,60
,,,,,,,,,,,,,,,,,,,,5,3.724999905,5,0.806000233,1,0,1200,555,1,1199,school,11112,2019-10-21_17h08.30.181,SurveyExpMetaMem,3.2.3,MacIntel,60
,,,,,,,,,,,,,,,,,,,,1,4.681999922,5,1.747000217,1,0,1200,625,1,1199,hat,11112,2019-10-21_17h08.30.181,SurveyExpMetaMem,3.2.3,MacIntel,60
,,,,,,,,,,,,,,,,,,,,6,4.232000113,4,2.131000042,1,0,1200,566,1,1199,obscure,11112,2019-10-21_17h08.30.181,SurveyExpMetaMem,3.2.3,MacIntel,60
,,,,,,,,,,,,,,,,,,,,7,9.480000019,7,4.779000044,1,0,1200,889,1,1199,wise,11112,2019-10-21_17h08.30.181,SurveyExpMetaMem,3.2.3,MacIntel,60
,,,,,,,,,,,,,,,,,,,,2,11.1420002,5,3.056999922,1,0,1200,836,1,1199,lounge,11112,2019-10-21_17h08.30.181,SurveyExpMetaMem,3.2.3,MacIntel,60
,,,,,,,,,,,,,,,,,,,,8,6.903000116,9,0.856000185,1,0,1200,735,1,1199,tea,11112,2019-10-21_17h08.30.181,SurveyExpMetaMem,3.2.3,MacIntel,60
,,,,,,,,,,,,,,,,,,,,6,3.86500001,8,1.052999973,1,0,1200,231,1,1199,cherish,11112,2019-10-21_17h08.30.181,SurveyExpMetaMem,3.2.3,MacIntel,60
,,,,,,,,,,,,,,,,,,,,7,5.525000095,4,1.996000051,1,0,1200,103,1,1199,conquest,11112,2019-10-21_17h08.30.181,SurveyExpMetaMem,3.2.3,MacIntel,60
,,,,,,,,,,,,,,,,,,,,9,3.644999981,7,2.941000223,1,0,1200,270,1,1199,toddler,11112,2019-10-21_17h08.30.181,SurveyExpMetaMem,3.2.3,MacIntel,60
,,,,,,,,,,,,,,,,,,,,5,3.001000166,7,2.14800024,1,0,1200,581,1,1199,dork,11112,2019-10-21_17h08.30.181,SurveyExpMetaMem,3.2.3,MacIntel,60
,,,,,,,,,,,,,,,,,,,,7,4.008000135,5,2.802999973,1,0,1200,159,1,1199,teenager,11112,2019-10-21_17h08.30.181,SurveyExpMetaMem,3.2.3,MacIntel,60
,,,,,,,,,,,,,,,,,,,,7,5.269999981,9,1.746000051,1,0,1200,175,1,1199,playground,11112,2019-10-21_17h08.30.181,SurveyExpMetaMem,3.2.3,MacIntel,60
,,,,,,,,,,,,,,,,,,,,3,5.55700016,8,1.210000038,1,0,1200,189,1,1199,thoughtful,11112,2019-10-21_17h08.30.181,SurveyExpMetaMem,3.2.3,MacIntel,60
,,,,,,,,,,,,,,,,,,,,2,2.391000032,5,2.867000103,1,0,1200,4,1,1199,night,11112,2019-10-21_17h08.30.181,SurveyExpMetaMem,3.2.3,MacIntel,60
,,,,,,,,,,,,,,,,,,,,8,3.24000001,2,1.770000219,1,0,1200,1059,1,1199,harsh,11112,2019-10-21_17h08.30.181,SurveyExpMetaMem,3.2.3,MacIntel,60
,,,,,,,,,,,,,,,,,,,,7,3.354000092,3,1.707000256,1,0,1200,635,1,1199,sensitive,11112,2019-10-21_17h08.30.181,SurveyExpMetaMem,3.2.3,MacIntel,60
,,,,,,,,,,,,,,,,,,,,8,2.453000069,8,1.392000198,1,0,1200,288,1,1199,tasty,11112,2019-10-21_17h08.30.181,SurveyExpMetaMem,3.2.3,MacIntel,60
,,,,,,,,,,,,,,,,,,,,9,1.906000137,1,0.773000002,1,0,1200,1115,1,1199,invade,11112,2019-10-21_17h08.30.181,SurveyExpMetaMem,3.2.3,MacIntel,60
,,,,,,,,,,,,,,,,,,,,5,2.28000021,8,1.788000107,1,0,1200,810,1,1199,polite,11112,2019-10-21_17h08.30.181,SurveyExpMetaMem,3.2.3,MacIntel,60
,,,,,,,,,,,,,,,,,,,,8,1.894999981,2,0.843000174,1,0,1200,1088,1,1199,forbid,11112,2019-10-21_17h08.30.181,SurveyExpMetaMem,3.2.3,MacIntel,60
,,,,,,,,,,,,,,,,,,,,7,8.062000036,3,1.310000181,1,0,1200,510,1,1199,excuse,11112,2019-10-21_17h08.30.181,SurveyExpMetaMem,3.2.3,MacIntel,60
,,,,,,,,,,,,,,,,,,,,7,2.29700017,8,1.440000296,1,0,1200,129,1,1199,fly,11112,2019-10-21_17h08.30.181,SurveyExpMetaMem,3.2.3,MacIntel,60
,,,,,,,,,,,,,,,,,,,,1,2.196000099,5,1.488000154,1,0,1200,761,1,1199,corn,11112,2019-10-21_17h08.30.181,SurveyExpMetaMem,3.2.3,MacIntel,60
,,,,,,,,,,,,,,,,,,,,8,2.346000195,3,1.921000242,1,0,1200,1014,1,1199,destroy,11112,2019-10-21_17h08.30.181,SurveyExpMetaMem,3.2.3,MacIntel,60
,,,,,,,,,,,,,,,,,,,,5,3.098999977,5,1.269000053,1,0,1200,630,1,1199,website,11112,2019-10-21_17h08.30.181,SurveyExpMetaMem,3.2.3,MacIntel,60
,,,,,,,,,,,,,,,,,,,,8,2.804000139,7,1.819999933,1,0,1200,55,1,1199,rare,11112,2019-10-21_17h08.30.181,SurveyExpMetaMem,3.2.3,MacIntel,60
,,,,,,,,,,,,,,,,,,,,6,3.562000036,7,0.88100028,1,0,1200,232,1,1199,prosper,11112,2019-10-21_17h08.30.181,SurveyExpMetaMem,3.2.3,MacIntel,60
,,,,,,,,,,,,,,,,,,,,3,3.195000172,5,1.563000202,1,0,1200,573,1,1199,cease,11112,2019-10-21_17h08.30.181,SurveyExpMetaMem,3.2.3,MacIntel,60
,,,,,,,,,,,,,,,,,,,,8,2.320000172,8,1.046999931,1,0,1200,242,1,1199,triumph,11112,2019-10-21_17h08.30.181,SurveyExpMetaMem,3.2.3,MacIntel,60
,,,,,,,,,,,,,,,,,,,,9,2.131999969,1,0.928000212,1,0,1200,1152,1,1199,scream,11112,2019-10-21_17h08.30.181,SurveyExpMetaMem,3.2.3,MacIntel,60
,,,,,,,,,,,,,,,,,,,,9,2.371999979,1,1.229000092,1,0,1200,1021,1,1199,attack,11112,2019-10-21_17h08.30.181,SurveyExpMetaMem,3.2.3,MacIntel,60
,,,,,,,,,,,,,,,,,,,,7,6.681000233,2,1.519999981,1,0,1200,965,1,1199,traffic,11112,2019-10-21_17h08.30.181,SurveyExpMetaMem,3.2.3,MacIntel,60
,,,,,,,,,,,,,,,,,,,,3,3.446000099,7,1.848000288,1,0,1200,719,1,1199,western,11112,2019-10-21_17h08.30.181,SurveyExpMetaMem,3.2.3,MacIntel,60
,,,,,,,,,,,,,,,,,,,,3,5.687000036,7,1.795000076,1,0,1200,334,1,1199,trash,11112,2019-10-21_17h08.30.181,SurveyExpMetaMem,3.2.3,MacIntel,60
,,,,,,,,,,,,,,,,,,,,5,4.32400012,5,0.174000025,1,0,1200,564,1,1199,wane,11112,2019-10-21_17h08.30.181,SurveyExpMetaMem,3.2.3,MacIntel,60
,,,,,,,,,,,,,,,,,,,,5,5.773999929,2,0.871000051,1,0,1200,676,1,1199,straighten,11112,2019-10-21_17h08.30.181,SurveyExpMetaMem,3.2.3,MacIntel,60
,,,,,,,,,,,,,,,,,,,,5,3.995000124,1,1.687999964,1,0,1200,490,1,1199,detached,11112,2019-10-21_17h08.30.181,SurveyExpMetaMem,3.2.3,MacIntel,60
,,,,,,,,,,,,,,,,,,,,8,1.979000092,1,0.577000141,1,0,1200,1031,1,1199,fear,11112,2019-10-21_17h08.30.181,SurveyExpMetaMem,3.2.3,MacIntel,60
,,,,,,,,,,,,,,,,,,,,3,8.840000153,3,1.971000195,1,0,1200,559,1,1199,lazy,11112,2019-10-21_17h08.30.181,SurveyExpMetaMem,3.2.3,MacIntel,60
,,,,,,,,,,,,,,,,,,,,7,2.194000244,8,0.365000248,1,0,1200,97,1,1199,enthusiastic,11112,2019-10-21_17h08.30.181,SurveyExpMetaMem,3.2.3,MacIntel,60
,,,,,,,,,,,,,,,,,,,,3,3.225000143,3,1.063999891,1,0,1200,474,1,1199,weary,11112,2019-10-21_17h08.30.181,SurveyExpMetaMem,3.2.3,MacIntel,60
,,,,,,,,,,,,,,,,,,,,5,2.552999973,7,0.823000193,1,0,1200,282,1,1199,luck,11112,2019-10-21_17h08.30.181,SurveyExpMetaMem,3.2.3,MacIntel,60
,,,,,,,,,,,,,,,,,,,,6,2.549000025,3,1.014000177,1,0,1200,1139,1,1199,scare,11112,2019-10-21_17h08.30.181,SurveyExpMetaMem,3.2.3,MacIntel,60
,,,,,,,,,,,,,,,,,,,,5,2.363000154,4,4.572999954,1,0,1200,829,1,1199,innocent,11112,2019-10-21_17h08.30.181,SurveyExpMetaMem,3.2.3,MacIntel,60
,,,,,,,,,,,,,,,,,,,,8,3.296000004,2,1.09800005,1,0,1200,583,1,1199,obey,11112,2019-10-21_17h08.30.181,SurveyExpMetaMem,3.2.3,MacIntel,60
,,,,,,,,,,,,,,,,,,,,5,2.088999987,6,2.075000286,1,0,1200,67,1,1199,penthouse,11112,2019-10-21_17h08.30.181,SurveyExpMetaMem,3.2.3,MacIntel,60
,,,,,,,,,,,,,,,,,,,,8,2.332999945,1,0.686000109,1,0,1200,303,1,1199,death,11112,2019-10-21_17h08.30.181,SurveyExpMetaMem,3.2.3,MacIntel,60
,,,,,,,,,,,,,,,,,,,,5,4.039000034,5,0.332000256,1,0,1200,551,1,1199,coal,11112,2019-10-21_17h08.30.181,SurveyExpMetaMem,3.2.3,MacIntel,60
,,,,,,,,,,,,,,,,,,,,7,5.411000013,2,0.521000147,1,0,1200,975,1,1199,insecure,11112,2019-10-21_17h08.30.181,SurveyExpMetaMem,3.2.3,MacIntel,60
,,,,,,,,,,,,,,,,,,,,7,3.472000122,3,1.062000036,1,0,1200,938,1,1199,seasick,11112,2019-10-21_17h08.30.181,SurveyExpMetaMem,3.2.3,MacIntel,60
,,,,,,,,,,,,,,,,,,,,5,3.072999954,5,1.128000021,1,0,1200,621,1,1199,chew,11112,2019-10-21_17h08.30.181,SurveyExpMetaMem,3.2.3,MacIntel,60
,,,,,,,,,,,,,,,,,,,,3,2.03399992,8,0.952000141,1,0,1200,191,1,1199,compassion,11112,2019-10-21_17h08.30.181,SurveyExpMetaMem,3.2.3,MacIntel,60
,,,,,,,,,,,,,,,,,,,,2,2.136000156,2,1.085999966,1,0,1200,445,1,1199,bleak,11112,2019-10-21_17h08.30.181,SurveyExpMetaMem,3.2.3,MacIntel,60
,,,,,,,,,,,,,,,,,,,,7,4.771000147,3,1.750000238,1,0,1200,1095,1,1199,fright,11112,2019-10-21_17h08.30.181,SurveyExpMetaMem,3.2.3,MacIntel,60
,,,,,,,,,,,,,,,,,,,,6,3.38499999,6,0.842000246,1,0,1200,201,1,1199,gorilla,11112,2019-10-21_17h08.30.181,SurveyExpMetaMem,3.2.3,MacIntel,60
,,,,,,,,,,,,,,,,,,,,2,2.121000051,3,2.69900012,1,0,1200,392,1,1199,moody,11112,2019-10-21_17h08.30.181,SurveyExpMetaMem,3.2.3,MacIntel,60
,,,,,,,,,,,,,,,,,,,,7,1.771000147,2,0.712000132,1,0,1200,944,1,1199,kill,11112,2019-10-21_17h08.30.181,SurveyExpMetaMem,3.2.3,MacIntel,60
,,,,,,,,,,,,,,,,,,,,5,14.03400016,5,0.494000196,1,0,1200,169,1,1199,aid,11112,2019-10-21_17h08.30.181,SurveyExpMetaMem,3.2.3,MacIntel,60
,,,,,,,,,,,,,,,,,,,,5,3.624000072,5,1.365000248,1,0,1200,391,1,1199,detach,11112,2019-10-21_17h08.30.181,SurveyExpMetaMem,3.2.3,MacIntel,60
,,,,,,,,,,,,,,,,,,,,5,2.378000021,7,1.846000195,1,0,1200,734,1,1199,piano,11112,2019-10-21_17h08.30.181,SurveyExpMetaMem,3.2.3,MacIntel,60
,,,,,,,,,,,,,,,,,,,,1,3.703000069,5,0.928000212,1,0,1200,592,1,1199,sweep,11112,2019-10-21_17h08.30.181,SurveyExpMetaMem,3.2.3,MacIntel,60
,,,,,,,,,,,,,,,,,,,,1,2.021000147,5,0.809000254,1,0,1200,538,1,1199,crumbs,11112,2019-10-21_17h08.30.181,SurveyExpMetaMem,3.2.3,MacIntel,60
,,,,,,,,,,,,,,,,,,,,4,2.04700017,5,1.080000162,1,0,1200,620,1,1199,spray,11112,2019-10-21_17h08.30.181,SurveyExpMetaMem,3.2.3,MacIntel,60
,,,,,,,,,,,,,,,,,,,,5,4.438999891,5,0.336000204,1,0,1200,746,1,1199,proper,11112,2019-10-21_17h08.30.181,SurveyExpMetaMem,3.2.3,MacIntel,60
,,,,,,,,,,,,,,,,,,,,5,1.287000179,5,0.312000275,1,0,1200,622,1,1199,revere,11112,2019-10-21_17h08.30.181,SurveyExpMetaMem,3.2.3,MacIntel,60
,,,,,,,,,,,,,,,,,,,,2,1.754000187,3,1.812000036,1,0,1200,438,1,1199,dull,11112,2019-10-21_17h08.30.181,SurveyExpMetaMem,3.2.3,MacIntel,60
,,,,,,,,,,,,,,,,,,,,7,1.739000082,3,1.246000051,1,0,1200,1122,1,1199,gossip,11112,2019-10-21_17h08.30.181,SurveyExpMetaMem,3.2.3,MacIntel,60
,,,,,,,,,,,,,,,,,,,,5,1.397000074,5,0.480000019,1,0,1200,512,1,1199,insect,11112,2019-10-21_17h08.30.181,SurveyExpMetaMem,3.2.3,MacIntel,60
,,,,,,,,,,,,,,,,,,,,3,6.588999987,3,2.254000187,1,0,1200,366,1,1199,fatigue,11112,2019-10-21_17h08.30.181,SurveyExpMetaMem,3.2.3,MacIntel,60
,,,,,,,,,,,,,,,,,,,,5,2.781000137,3,2.121000051,1,0,1200,480,1,1199,hinder,11112,2019-10-21_17h08.30.181,SurveyExpMetaMem,3.2.3,MacIntel,60
,,,,,,,,,,,,,,,,,,,,1,2.121999979,9,1.374000072,1,0,1200,878,1,1199,sleep,11112,2019-10-21_17h08.30.181,SurveyExpMetaMem,3.2.3,MacIntel,60
,,,,,,,,,,,,,,,,,,,,1,5.938000202,1,0.927000284,1,0,1200,310,1,1199,lonely,11112,2019-10-21_17h08.30.181,SurveyExpMetaMem,3.2.3,MacIntel,60
,,,,,,,,,,,,,,,,,,,,5,2.387000084,4,2.447000027,1,0,1200,439,1,1199,spit,11112,2019-10-21_17h08.30.181,SurveyExpMetaMem,3.2.3,MacIntel,60
,,,,,,,,,,,,,,,,,,,,7,2.747000217,3,1.171000242,1,0,1200,373,1,1199,ignorance,11112,2019-10-21_17h08.30.181,SurveyExpMetaMem,3.2.3,MacIntel,60
,,,,,,,,,,,,,,,,,,,,6,4.413000107,3,2.129000187,1,0,1200,375,1,1199,manure,11112,2019-10-21_17h08.30.181,SurveyExpMetaMem,3.2.3,MacIntel,60
,,,,,,,,,,,,,,,,,,,,7,4.336999893,3,0.775000095,1,0,1200,443,1,1199,incorrect,11112,2019-10-21_17h08.30.181,SurveyExpMetaMem,3.2.3,MacIntel,60
,,,,,,,,,,,,,,,,,,,,5,2.65199995,5,1.032000065,1,0,1200,812,1,1199,harp,11112,2019-10-21_17h08.30.181,SurveyExpMetaMem,3.2.3,MacIntel,60
,,,,,,,,,,,,,,,,,,,,8,2.286999941,8,1.247000217,1,0,1200,38,1,1199,cheeseburger,11112,2019-10-21_17h08.30.181,SurveyExpMetaMem,3.2.3,MacIntel,60
,,,,,,,,,,,,,,,,,,,,7,3.559000015,2,0.857000113,1,0,1200,1066,1,1199,annoy,11112,2019-10-21_17h08.30.181,SurveyExpMetaMem,3.2.3,MacIntel,60
,,,,,,,,,,,,,,,,,,,,5,1.974999905,2,2.356000185,1,0,1200,930,1,1199,poison,11112,2019-10-21_17h08.30.181,SurveyExpMetaMem,3.2.3,MacIntel,60
,,,,,,,,,,,,,,,,,,,,8,1.861000061,2,1.049999952,1,0,1200,973,1,1199,anger,11112,2019-10-21_17h08.30.181,SurveyExpMetaMem,3.2.3,MacIntel,60
,,,,,,,,,,,,,,,,,,,,7,2.788000107,7,0.571000099,1,0,1200,41,1,1199,progress,11112,2019-10-21_17h08.30.181,SurveyExpMetaMem,3.2.3,MacIntel,60
,,,,,,,,,,,,,,,,,,,,8,2.612000227,2,0.881999969,1,0,1200,1070,1,1199,bleed,11112,2019-10-21_17h08.30.181,SurveyExpMetaMem,3.2.3,MacIntel,60
,,,,,,,,,,,,,,,,,,,,8,3.136000156,5,1.106000185,1,0,1200,23,1,1199,earn,11112,2019-10-21_17h08.30.181,SurveyExpMetaMem,3.2.3,MacIntel,60
,,,,,,,,,,,,,,,,,,,,7,5.662000179,8,1.080000162,1,0,1200,814,1,1199,dress,11112,2019-10-21_17h08.30.181,SurveyExpMetaMem,3.2.3,MacIntel,60
,,,,,,,,,,,,,,,,,,,,7,2.60800004,5,1.249000072,1,0,1200,638,1,1199,quench,11112,2019-10-21_17h08.30.181,SurveyExpMetaMem,3.2.3,MacIntel,60
,,,,,,,,,,,,,,,,,,,,3,3.571000099,3,1.870000124,1,0,1200,502,1,1199,crap,11112,2019-10-21_17h08.30.181,SurveyExpMetaMem,3.2.3,MacIntel,60
,,,,,,,,,,,,,,,,,,,,8,2.506999969,3,1.125,1,0,1200,1176,1,1199,vampire,11112,2019-10-21_17h08.30.181,SurveyExpMetaMem,3.2.3,MacIntel,60
,,,,,,,,,,,,,,,,,,,,5,1.946000099,5,0.917000055,1,0,1200,542,1,1199,loose,11112,2019-10-21_17h08.30.181,SurveyExpMetaMem,3.2.3,MacIntel,60
,,,,,,,,,,,,,,,,,,,,5,1.840000153,5,0.78399992,1,0,1200,404,1,1199,nuisance,11112,2019-10-21_17h08.30.181,SurveyExpMetaMem,3.2.3,MacIntel,60
,,,,,,,,,,,,,,,,,,,,8,2.654000044,5,3.190000057,1,0,1200,1186,1,1199,goddamn,11112,2019-10-21_17h08.30.181,SurveyExpMetaMem,3.2.3,MacIntel,60
,,,,,,,,,,,,,,,,,,,,8,3.075999975,2,1.275000095,1,0,1200,950,1,1199,murder,11112,2019-10-21_17h08.30.181,SurveyExpMetaMem,3.2.3,MacIntel,60
,,,,,,,,,,,,,,,,,,,,5,1.967000008,5,2.254000187,1,0,1200,518,1,1199,report,11112,2019-10-21_17h08.30.181,SurveyExpMetaMem,3.2.3,MacIntel,60
,,,,,,,,,,,,,,,,,,,,2,2.938000202,9,1.036000013,1,0,1200,149,1,1199,loved,11112,2019-10-21_17h08.30.181,SurveyExpMetaMem,3.2.3,MacIntel,60
,,,,,,,,,,,,,,,,,,,,5,2.179000139,3,1.076000214,1,0,1200,988,1,1199,deserter,11112,2019-10-21_17h08.30.181,SurveyExpMetaMem,3.2.3,MacIntel,60
,,,,,,,,,,,,,,,,,,,,7,2.338000059,4,3.188999891,1,0,1200,686,1,1199,phone,11112,2019-10-21_17h08.30.181,SurveyExpMetaMem,3.2.3,MacIntel,60
,,,,,,,,,,,,,,,,,,,,5,5.67200017,1,1.552000046,1,0,1200,318,1,1199,disappointment,11112,2019-10-21_17h08.30.181,SurveyExpMetaMem,3.2.3,MacIntel,60
,,,,,,,,,,,,,,,,,,,,7,3.062000275,5,1.391000271,1,0,1200,1196,1,1199,breathless,11112,2019-10-21_17h08.30.181,SurveyExpMetaMem,3.2.3,MacIntel,60
,,,,,,,,,,,,,,,,,,,,5,2.959000111,5,2.957999945,1,0,1200,507,1,1199,smudge,11112,2019-10-21_17h08.30.181,SurveyExpMetaMem,3.2.3,MacIntel,60
,,,,,,,,,,,,,,,,,,,,7,2.446000099,7,1.20600009,1,0,1200,550,1,1199,fart,11112,2019-10-21_17h08.30.181,SurveyExpMetaMem,3.2.3,MacIntel,60
,,,,,,,,,,,,,,,,,,,,5,3.063000202,5,1.828000069,1,0,1200,520,1,1199,gullible,11112,2019-10-21_17h08.30.181,SurveyExpMetaMem,3.2.3,MacIntel,60
,,,,,,,,,,,,,,,,,,,,2,10.31200004,7,1.571000099,1,0,1200,162,1,1199,royalty,11112,2019-10-21_17h08.30.181,SurveyExpMetaMem,3.2.3,MacIntel,60
,,,,,,,,,,,,,,,,,,,,7,1.539000034,7,1.028000116,1,0,1200,47,1,1199,enjoy,11112,2019-10-21_17h08.30.181,SurveyExpMetaMem,3.2.3,MacIntel,60
,,,,,,,,,,,,,,,,,,,,5,3.213999987,5,0.714999914,1,0,1200,713,1,1199,mobile,11112,2019-10-21_17h08.30.181,SurveyExpMetaMem,3.2.3,MacIntel,60
,,,,,,,,,,,,,,,,,,,,7,5.940000057,7,0.48300004,1,0,1200,7,1,1199,duet,11112,2019-10-21_17h08.30.181,SurveyExpMetaMem,3.2.3,MacIntel,60
,,,,,,,,,,,,,,,,,,,,5,2.325000048,5,0.769999981,1,0,1200,649,1,1199,donkey,11112,2019-10-21_17h08.30.181,SurveyExpMetaMem,3.2.3,MacIntel,60
,,,,,,,,,,,,,,,,,,,,5,1.125,5,0.913000107,1,0,1200,680,1,1199,candle,11112,2019-10-21_17h08.30.181,SurveyExpMetaMem,3.2.3,MacIntel,60
,,,,,,,,,,,,,,,,,,,,5,1.088000059,5,0.612000227,1,0,1200,656,1,1199,number,11112,2019-10-21_17h08.30.181,SurveyExpMetaMem,3.2.3,MacIntel,60
,,,,,,,,,,,,,,,,,,,,3,3.404000044,8,0.769999981,1,0,1200,856,1,1199,leisurely,11112,2019-10-21_17h08.30.181,SurveyExpMetaMem,3.2.3,MacIntel,60
,,,,,,,,,,,,,,,,,,,,8,1.708000183,5,1.003000021,1,0,1200,50,1,1199,bolt,11112,2019-10-21_17h08.30.181,SurveyExpMetaMem,3.2.3,MacIntel,60
,,,,,,,,,,,,,,,,,,,,3,2.779000044,3,1.054000139,1,0,1200,492,1,1199,naive,11112,2019-10-21_17h08.30.181,SurveyExpMetaMem,3.2.3,MacIntel,60
,,,,,,,,,,,,,,,,,,,,5,2.628000021,5,0.539000034,1,0,1200,188,1,1199,profit,11112,2019-10-21_17h08.30.181,SurveyExpMetaMem,3.2.3,MacIntel,60
,,,,,,,,,,,,,,,,,,,,5,1.253000259,5,0.815000296,1,0,1200,861,1,1199,nectar,11112,2019-10-21_17h08.30.181,SurveyExpMetaMem,3.2.3,MacIntel,60
,,,,,,,,,,,,,,,,,,,,5,1.230000019,5,0.644999981,1,0,1200,531,1,1199,omit,11112,2019-10-21_17h08.30.181,SurveyExpMetaMem,3.2.3,MacIntel,60
,,,,,,,,,,,,,,,,,,,,7,1.697000027,7,0.74000001,1,0,1200,254,1,1199,crush,11112,2019-10-21_17h08.30.181,SurveyExpMetaMem,3.2.3,MacIntel,60
,,,,,,,,,,,,,,,,,,,,5,1.241000175,5,0.470000267,1,0,1200,599,1,1199,obstinate,11112,2019-10-21_17h08.30.181,SurveyExpMetaMem,3.2.3,MacIntel,60
,,,,,,,,,,,,,,,,,,,,5,0.962000132,5,0.556999922,1,0,1200,213,1,1199,fair,11112,2019-10-21_17h08.30.181,SurveyExpMetaMem,3.2.3,MacIntel,60
,,,,,,,,,,,,,,,,,,,,7,1.645000219,7,0.421999931,1,0,1200,161,1,1199,limousine,11112,2019-10-21_17h08.30.181,SurveyExpMetaMem,3.2.3,MacIntel,60
,,,,,,,,,,,,,,,,,,,,5,1.950000286,5,0.582000017,1,0,1200,580,1,1199,fur,11112,2019-10-21_17h08.30.181,SurveyExpMetaMem,3.2.3,MacIntel,60
,,,,,,,,,,,,,,,,,,,,8,1.837000132,2,0.64800024,1,0,1200,924,1,1199,terrible,11112,2019-10-21_17h08.30.181,SurveyExpMetaMem,3.2.3,MacIntel,60
,,,,,,,,,,,,,,,,,,,,8,1.748000145,2,0.471000195,1,0,1200,1018,1,1199,distress,11112,2019-10-21_17h08.30.181,SurveyExpMetaMem,3.2.3,MacIntel,60
,,,,,,,,,,,,,,,,,,,,5,1.498000145,5,0.522000074,1,0,1200,658,1,1199,method,11112,2019-10-21_17h08.30.181,SurveyExpMetaMem,3.2.3,MacIntel,60
,,,,,,,,,,,,,,,,,,,,8,2.295000076,2,0.649000168,1,0,1200,468,1,1199,noose,11112,2019-10-21_17h08.30.181,SurveyExpMetaMem,3.2.3,MacIntel,60
,,,,,,,,,,,,,,,,,,,,7,3.972000122,5,1.561000109,1,0,1200,432,1,1199,resign,11112,2019-10-21_17h08.30.181,SurveyExpMetaMem,3.2.3,MacIntel,60
,,,,,,,,,,,,,,,,,,,,7,1.661999941,5,0.892000198,1,0,1200,157,1,1199,reveal,11112,2019-10-21_17h08.30.181,SurveyExpMetaMem,3.2.3,MacIntel,60
,,,,,,,,,,,,,,,,,,,,7,2.447000027,2,0.649000168,1,0,1200,1131,1,1199,envious,11112,2019-10-21_17h08.30.181,SurveyExpMetaMem,3.2.3,MacIntel,60
,,,,,,,,,,,,,,,,,,,,5,2.693000078,5,0.445000172,1,0,1200,388,1,1199,mildew,11112,2019-10-21_17h08.30.181,SurveyExpMetaMem,3.2.3,MacIntel,60
,,,,,,,,,,,,,,,,,,,,5,1.480999947,5,0.578999996,1,0,1200,618,1,1199,ceiling,11112,2019-10-21_17h08.30.181,SurveyExpMetaMem,3.2.3,MacIntel,60
,,,,,,,,,,,,,,,,,,,,5,2.565000057,8,0.738000154,1,0,1200,1097,1,1199,bees,11112,2019-10-21_17h08.30.181,SurveyExpMetaMem,3.2.3,MacIntel,60
,,,,,,,,,,,,,,,,,,,,5,1.144999981,5,0.59100008,1,0,1200,414,1,1199,pity,11112,2019-10-21_17h08.30.181,SurveyExpMetaMem,3.2.3,MacIntel,60
,,,,,,,,,,,,,,,,,,,,5,1.029000044,5,0.546000004,1,0,1200,1169,1,1199,enforcement,11112,2019-10-21_17h08.30.181,SurveyExpMetaMem,3.2.3,MacIntel,60
,,,,,,,,,,,,,,,,,,,,5,1.054000139,2,1.531000137,1,0,1200,336,1,1199,wasteful,11112,2019-10-21_17h08.30.181,SurveyExpMetaMem,3.2.3,MacIntel,60
,,,,,,,,,,,,,,,,,,,,5,1.845000029,5,0.913000107,1,0,1200,488,1,1199,rusty,11112,2019-10-21_17h08.30.181,SurveyExpMetaMem,3.2.3,MacIntel,60
,,,,,,,,,,,,,,,,,,,,7,1.628999949,7,0.914999962,1,0,1200,205,1,1199,outspoken,11112,2019-10-21_17h08.30.181,SurveyExpMetaMem,3.2.3,MacIntel,60
,,,,,,,,,,,,,,,,,,,,2,5.813000202,2,0.463000298,1,0,1200,339,1,1199,chore,11112,2019-10-21_17h08.30.181,SurveyExpMetaMem,3.2.3,MacIntel,60
,,,,,,,,,,,,,,,,,,,,7,2.865000248,2,1.143000126,1,0,1200,467,1,1199,FALSE,11112,2019-10-21_17h08.30.181,SurveyExpMetaMem,3.2.3,MacIntel,60
,,,,,,,,,,,,,,,,,,,,5,1.904999971,5,0.673000097,1,0,1200,841,1,1199,bathtub,11112,2019-10-21_17h08.30.181,SurveyExpMetaMem,3.2.3,MacIntel,60
,,,,,,,,,,,,,,,,,,,,5,1.528000116,5,0.522000074,1,0,1200,632,1,1199,avenue,11112,2019-10-21_17h08.30.181,SurveyExpMetaMem,3.2.3,MacIntel,60
,,,,,,,,,,,,,,,,,,,,8,1.855000019,8,0.953999996,1,0,1200,170,1,1199,entertainment,11112,2019-10-21_17h08.30.181,SurveyExpMetaMem,3.2.3,MacIntel,60
,,,,,,,,,,,,,,,,,,,,2,4.071000099,8,0.897000313,1,0,1200,643,1,1199,library,11112,2019-10-21_17h08.30.181,SurveyExpMetaMem,3.2.3,MacIntel,60
,,,,,,,,,,,,,,,,,,,,5,4.062000036,5,0.546000004,1,0,1200,263,1,1199,answer,11112,2019-10-21_17h08.30.181,SurveyExpMetaMem,3.2.3,MacIntel,60
,,,,,,,,,,,,,,,,,,,,2,3.77300024,9,1.194000006,1,0,1200,863,1,1199,fireplace,11112,2019-10-21_17h08.30.181,SurveyExpMetaMem,3.2.3,MacIntel,60
,,,,,,,,,,,,,,,,,,,,5,3.670000076,7,0.848000288,1,0,1200,835,1,1199,helpful,11112,2019-10-21_17h08.30.181,SurveyExpMetaMem,3.2.3,MacIntel,60
,,,,,,,,,,,,,,,,,,,,8,2.99000001,2,1.131000042,1,0,1200,1170,1,1199,police,11112,2019-10-21_17h08.30.181,SurveyExpMetaMem,3.2.3,MacIntel,60
,,,,,,,,,,,,,,,,,,,,5,1.562000036,5,0.511000156,1,0,1200,684,1,1199,send,11112,2019-10-21_17h08.30.181,SurveyExpMetaMem,3.2.3,MacIntel,60
,,,,,,,,,,,,,,,,,,,,7,3.015000105,7,0.93200016,1,0,1200,183,1,1199,congratulate,11112,2019-10-21_17h08.30.181,SurveyExpMetaMem,3.2.3,MacIntel,60
,,,,,,,,,,,,,,,,,,,,5,1.628000021,5,0.774000168,1,0,1200,798,1,1199,crystal,11112,2019-10-21_17h08.30.181,SurveyExpMetaMem,3.2.3,MacIntel,60
,,,,,,,,,,,,,,,,,,,,5,2.494999886,5,0.378000021,1,0,1200,869,1,1199,assure,11112,2019-10-21_17h08.30.181,SurveyExpMetaMem,3.2.3,MacIntel,60
,,,,,,,,,,,,,,,,,,,,5,1.161000252,5,0.417999983,1,0,1200,789,1,1199,green,11112,2019-10-21_17h08.30.181,SurveyExpMetaMem,3.2.3,MacIntel,60
,,,,,,,,,,,,,,,,,,,,5,0.763999939,5,0.427999973,1,0,1200,394,1,1199,dump,11112,2019-10-21_17h08.30.181,SurveyExpMetaMem,3.2.3,MacIntel,60
,,,,,,,,,,,,,,,,,,,,5,0.808000088,5,0.378999949,1,0,1200,59,1,1199,sports,11112,2019-10-21_17h08.30.181,SurveyExpMetaMem,3.2.3,MacIntel,60
,,,,,,,,,,,,,,,,,,,,5,1.187000275,5,0.329000235,1,0,1200,436,1,1199,mediocre,11112,2019-10-21_17h08.30.181,SurveyExpMetaMem,3.2.3,MacIntel,60
,,,,,,,,,,,,,,,,,,,,7,2.498000145,3,0.588000298,1,0,1200,508,1,1199,haphazard,11112,2019-10-21_17h08.30.181,SurveyExpMetaMem,3.2.3,MacIntel,60
,,,,,,,,,,,,,,,,,,,,8,1.579000235,2,0.455000162,1,0,1200,982,1,1199,robbery,11112,2019-10-21_17h08.30.181,SurveyExpMetaMem,3.2.3,MacIntel,60
,,,,,,,,,,,,,,,,,,,,5,1.153000116,5,0.388000011,1,0,1200,706,1,1199,cat,11112,2019-10-21_17h08.30.181,SurveyExpMetaMem,3.2.3,MacIntel,60
,,,,,,,,,,,,,,,,,,,,7,2.322000027,3,1.028000116,1,0,1200,1150,1,1199,forceful,11112,2019-10-21_17h08.30.181,SurveyExpMetaMem,3.2.3,MacIntel,60
,,,,,,,,,,,,,,,,,,,,8,1.365000248,7,0.636000156,1,0,1200,74,1,1199,explore,11112,2019-10-21_17h08.30.181,SurveyExpMetaMem,3.2.3,MacIntel,60
,,,,,,,,,,,,,,,,,,,,6,2.202000141,4,1.394000053,1,0,1200,200,1,1199,preach,11112,2019-10-21_17h08.30.181,SurveyExpMetaMem,3.2.3,MacIntel,60
,,,,,,,,,,,,,,,,,,,,3,2.404000044,8,0.677999973,1,0,1200,711,1,1199,sympathetic,11112,2019-10-21_17h08.30.181,SurveyExpMetaMem,3.2.3,MacIntel,60
,,,,,,,,,,,,,,,,,,,,8,2.589000225,8,0.378000021,1,0,1200,247,1,1199,graduate,11112,2019-10-21_17h08.30.181,SurveyExpMetaMem,3.2.3,MacIntel,60
,,,,,,,,,,,,,,,,,,,,7,5.221999884,8,0.523999929,1,0,1200,171,1,1199,imagination,11112,2019-10-21_17h08.30.181,SurveyExpMetaMem,3.2.3,MacIntel,60
,,,,,,,,,,,,,,,,,,,,5,2.062000036,7,1.704999924,1,0,1200,756,1,1199,plant,11112,2019-10-21_17h08.30.181,SurveyExpMetaMem,3.2.3,MacIntel,60
,,,,,,,,,,,,,,,,,,,,8,1.894999981,2,0.462000132,1,0,1200,331,1,1199,casket,11112,2019-10-21_17h08.30.181,SurveyExpMetaMem,3.2.3,MacIntel,60
,,,,,,,,,,,,,,,,,,,,8,2.921000004,8,0.91899991,1,0,1200,80,1,1199,wonderful,11112,2019-10-21_17h08.30.181,SurveyExpMetaMem,3.2.3,MacIntel,60
,,,,,,,,,,,,,,,,,,,,2,2.687000036,2,1.494000196,1,0,1200,527,1,1199,passive,11112,2019-10-21_17h08.30.181,SurveyExpMetaMem,3.2.3,MacIntel,60
,,,,,,,,,,,,,,,,,,,,8,1.744000196,2,2.146000147,1,0,1200,1036,1,1199,anxiety,11112,2019-10-21_17h08.30.181,SurveyExpMetaMem,3.2.3,MacIntel,60
,,,,,,,,,,,,,,,,,,,,3,3.56400013,8,0.93900013,1,0,1200,294,1,1199,confident,11112,2019-10-21_17h08.30.181,SurveyExpMetaMem,3.2.3,MacIntel,60
,,,,,,,,,,,,,,,,,,,,5,2.611000061,5,1.38800025,1,0,1200,3,1,1199,nudist,11112,2019-10-21_17h08.30.181,SurveyExpMetaMem,3.2.3,MacIntel,60
,,,,,,,,,,,,,,,,,,,,3,6.154000044,2,0.774000168,1,0,1200,357,1,1199,whine,11112,2019-10-21_17h08.30.181,SurveyExpMetaMem,3.2.3,MacIntel,60
,,,,,,,,,,,,,,,,,,,,5,1.657999992,5,0.893000126,1,0,1200,594,1,1199,moss,11112,2019-10-21_17h08.30.181,SurveyExpMetaMem,3.2.3,MacIntel,60
,,,,,,,,,,,,,,,,,,,,5,1.798000097,5,0.375,1,0,1200,442,1,1199,foolish,11112,2019-10-21_17h08.30.181,SurveyExpMetaMem,3.2.3,MacIntel,60
,,,,,,,,,,,,,,,,,,,,3,7.521000147,7,0.388000011,1,0,1200,239,1,1199,compassionate,11112,2019-10-21_17h08.30.181,SurveyExpMetaMem,3.2.3,MacIntel,60
,,,,,,,,,,,,,,,,,,,,8,1.647000074,3,1.907999992,1,0,1200,1073,1,1199,bitch,11112,2019-10-21_17h08.30.181,SurveyExpMetaMem,3.2.3,MacIntel,60
,,,,,,,,,,,,,,,,,,,,3,2.17200017,3,0.600000143,1,0,1200,378,1,1199,dislike,11112,2019-10-21_17h08.30.181,SurveyExpMetaMem,3.2.3,MacIntel,60
,,,,,,,,,,,,,,,,,,,,3,1.45600009,7,0.777999878,1,0,1200,899,1,1199,relax,11112,2019-10-21_17h08.30.181,SurveyExpMetaMem,3.2.3,MacIntel,60
,,,,,,,,,,,,,,,,,,,,5,1.239000082,5,0.34800005,1,0,1200,461,1,1199,ail,11112,2019-10-21_17h08.30.181,SurveyExpMetaMem,3.2.3,MacIntel,60
,,,,,,,,,,,,,,,,,,,,5,0.880000114,5,0.378000021,1,0,1200,755,1,1199,soap,11112,2019-10-21_17h08.30.181,SurveyExpMetaMem,3.2.3,MacIntel,60
,,,,,,,,,,,,,,,,,,,,3,2.279000044,8,1.021000147,1,0,1200,705,1,1199,tolerant,11112,2019-10-21_17h08.30.181,SurveyExpMetaMem,3.2.3,MacIntel,60
,,,,,,,,,,,,,,,,,,,,8,1.582000017,3,0.811000109,1,0,1200,1049,1,1199,electrocute,11112,2019-10-21_17h08.30.181,SurveyExpMetaMem,3.2.3,MacIntel,60
,,,,,,,,,,,,,,,,,,,,5,1.195000172,5,0.409000158,1,0,1200,807,1,1199,person,11112,2019-10-21_17h08.30.181,SurveyExpMetaMem,3.2.3,MacIntel,60
,,,,,,,,,,,,,,,,,,,,5,0.820000172,5,0.404000044,1,0,1200,63,1,1199,clothes,11112,2019-10-21_17h08.30.181,SurveyExpMetaMem,3.2.3,MacIntel,60
,,,,,,,,,,,,,,,,,,,,8,1.562000036,8,0.313000202,1,0,1200,124,1,1199,honeymoon,11112,2019-10-21_17h08.30.181,SurveyExpMetaMem,3.2.3,MacIntel,60
,,,,,,,,,,,,,,,,,,,,8,1.946000099,8,0.381999969,1,0,1200,268,1,1199,tickle,11112,2019-10-21_17h08.30.181,SurveyExpMetaMem,3.2.3,MacIntel,60
,,,,,,,,,,,,,,,,,,,,8,1.305000067,8,0.305000067,1,0,1200,875,1,1199,fluffy,11112,2019-10-21_17h08.30.181,SurveyExpMetaMem,3.2.3,MacIntel,60
,,,,,,,,,,,,,,,,,,,,8,1.971000195,8,0.372000217,1,0,1200,54,1,1199,alcohol,11112,2019-10-21_17h08.30.181,SurveyExpMetaMem,3.2.3,MacIntel,60
,,,,,,,,,,,,,,,,,,,,5,2.920000076,5,0.31400013,1,0,1200,768,1,1199,trait,11112,2019-10-21_17h08.30.181,SurveyExpMetaMem,3.2.3,MacIntel,60
,,,,,,,,,,,,,,,,,,,,5,1.129000187,5,0.348000288,1,0,1200,685,1,1199,makeup,11112,2019-10-21_17h08.30.181,SurveyExpMetaMem,3.2.3,MacIntel,60
,,,,,,,,,,,,,,,,,,,,5,1.476000071,5,0.420000076,1,0,1200,446,1,1199,greedy,11112,2019-10-21_17h08.30.181,SurveyExpMetaMem,3.2.3,MacIntel,60
,,,,,,,,,,,,,,,,,,,,8,2.447999954,8,0.729000092,1,0,1200,48,1,1199,excellence,11112,2019-10-21_17h08.30.181,SurveyExpMetaMem,3.2.3,MacIntel,60
,,,,,,,,,,,,,,,,,,,,5,2.786999941,7,0.69900012,1,0,1200,639,1,1199,outlet,11112,2019-10-21_17h08.30.181,SurveyExpMetaMem,3.2.3,MacIntel,60
,,,,,,,,,,,,,,,,,,,,7,1.420000076,7,0.583000183,1,0,1200,857,1,1199,thankful,11112,2019-10-21_17h08.30.181,SurveyExpMetaMem,3.2.3,MacIntel,60
,,,,,,,,,,,,,,,,,,,,5,1.287000179,5,0.873000145,1,0,1200,626,1,1199,pan,11112,2019-10-21_17h08.30.181,SurveyExpMetaMem,3.2.3,MacIntel,60
,,,,,,,,,,,,,,,,,,,,8,2.338000059,2,0.538000107,1,0,1200,537,1,1199,absurd,11112,2019-10-21_17h08.30.181,SurveyExpMetaMem,3.2.3,MacIntel,60
,,,,,,,,,,,,,,,,,,,,8,3.032000065,2,1.371000051,1,0,1200,309,1,1199,homeless,11112,2019-10-21_17h08.30.181,SurveyExpMetaMem,3.2.3,MacIntel,60
,,,,,,,,,,,,,,,,,,,,5,1.512000084,5,0.362000227,1,0,1200,501,1,1199,dustpan,11112,2019-10-21_17h08.30.181,SurveyExpMetaMem,3.2.3,MacIntel,60
,,,,,,,,,,,,,,,,,,,,8,1.503000021,2,0.404999971,1,0,1200,308,1,1199,worthless,11112,2019-10-21_17h08.30.181,SurveyExpMetaMem,3.2.3,MacIntel,60
,,,,,,,,,,,,,,,,,,,,4,3.444999933,8,0.762000322,1,0,1200,871,1,1199,comfort,11112,2019-10-21_17h08.30.181,SurveyExpMetaMem,3.2.3,MacIntel,60
,,,,,,,,,,,,,,,,,,,,9,2.539999962,9,1.239000082,1,0,1200,277,1,1199,cupcake,11112,2019-10-21_17h08.30.181,SurveyExpMetaMem,3.2.3,MacIntel,60
,,,,,,,,,,,,,,,,,,,,7,2.062000036,8,0.463000059,1,0,1200,179,1,1199,star,11112,2019-10-21_17h08.30.181,SurveyExpMetaMem,3.2.3,MacIntel,60
,,,,,,,,,,,,,,,,,,,,5,3.756000042,5,0.380000114,1,0,1200,651,1,1199,bathroom,11112,2019-10-21_17h08.30.181,SurveyExpMetaMem,3.2.3,MacIntel,60
,,,,,,,,,,,,,,,,,,,,5,1.171000004,5,0.42200017,1,0,1200,21,1,1199,game,11112,2019-10-21_17h08.30.181,SurveyExpMetaMem,3.2.3,MacIntel,60
,,,,,,,,,,,,,,,,,,,,5,2.474000216,5,0.328000307,1,0,1200,53,1,1199,lotion,11112,2019-10-21_17h08.30.181,SurveyExpMetaMem,3.2.3,MacIntel,60
,,,,,,,,,,,,,,,,,,,,7,2.111999989,3,0.748000145,1,0,1200,341,1,1199,stinky,11112,2019-10-21_17h08.30.181,SurveyExpMetaMem,3.2.3,MacIntel,60
,,,,,,,,,,,,,,,,,,,,5,3.073000193,2,1.345999956,1,0,1200,959,1,1199,divorce,11112,2019-10-21_17h08.30.181,SurveyExpMetaMem,3.2.3,MacIntel,60
,,,,,,,,,,,,,,,,,,,,5,2.729000092,3,1.06400013,1,0,1200,347,1,1199,unpleasant,11112,2019-10-21_17h08.30.181,SurveyExpMetaMem,3.2.3,MacIntel,60
,,,,,,,,,,,,,,,,,,,,5,3.67200017,5,0.336000204,1,0,1200,712,1,1199,harvest,11112,2019-10-21_17h08.30.181,SurveyExpMetaMem,3.2.3,MacIntel,60
,,,,,,,,,,,,,,,,,,,,8,1.828000069,8,0.338999987,1,0,1200,12,1,1199,mountain,11112,2019-10-21_17h08.30.181,SurveyExpMetaMem,3.2.3,MacIntel,60
,,,,,,,,,,,,,,,,,,,,8,1.425000191,8,0.362000227,1,0,1200,65,1,1199,restaurant,11112,2019-10-21_17h08.30.181,SurveyExpMetaMem,3.2.3,MacIntel,60
,,,,,,,,,,,,,,,,,,,,8,2.107000113,3,0.374000072,1,0,1200,1164,1,1199,battle,11112,2019-10-21_17h08.30.181,SurveyExpMetaMem,3.2.3,MacIntel,60
,,,,,,,,,,,,,,,,,,,,5,1.162000179,5,0.43200016,1,0,1200,605,1,1199,year,11112,2019-10-21_17h08.30.181,SurveyExpMetaMem,3.2.3,MacIntel,60
,,,,,,,,,,,,,,,,,,,,8,1.923000097,2,0.390000105,1,0,1200,954,1,1199,hostage,11112,2019-10-21_17h08.30.181,SurveyExpMetaMem,3.2.3,MacIntel,60
,,,,,,,,,,,,,,,,,,,,8,1.928999901,2,0.490000248,1,0,1200,533,1,1199,busy,11112,2019-10-21_17h08.30.181,SurveyExpMetaMem,3.2.3,MacIntel,60
,,,,,,,,,,,,,,,,,,,,5,2.416000128,5,0.369999886,1,0,1200,842,1,1199,breathe,11112,2019-10-21_17h08.30.181,SurveyExpMetaMem,3.2.3,MacIntel,60
,,,,,,,,,,,,,,,,,,,,5,1.779999971,4,0.791000128,1,0,1200,386,1,1199,pale,11112,2019-10-21_17h08.30.181,SurveyExpMetaMem,3.2.3,MacIntel,60
,,,,,,,,,,,,,,,,,,,,8,2.238000154,2,1.14800024,1,0,1200,456,1,1199,piss,11112,2019-10-21_17h08.30.181,SurveyExpMetaMem,3.2.3,MacIntel,60
,,,,,,,,,,,,,,,,,,,,5,2.691000223,5,0.313999891,1,0,1200,774,1,1199,leaves,11112,2019-10-21_17h08.30.181,SurveyExpMetaMem,3.2.3,MacIntel,60
,,,,,,,,,,,,,,,,,,,,5,1.302999973,5,0.358000278,1,0,1200,499,1,1199,stop,11112,2019-10-21_17h08.30.181,SurveyExpMetaMem,3.2.3,MacIntel,60
,,,,,,,,,,,,,,,,,,,,5,0.937999964,5,0.377000093,1,0,1200,683,1,1199,scarf,11112,2019-10-21_17h08.30.181,SurveyExpMetaMem,3.2.3,MacIntel,60
,,,,,,,,,,,,,,,,,,,,5,1.215000153,5,0.397000074,1,0,1200,1185,1,1199,shotgun,11112,2019-10-21_17h08.30.181,SurveyExpMetaMem,3.2.3,MacIntel,60
,,,,,,,,,,,,,,,,,,,,5,1.147000074,5,0.560000181,1,0,1200,517,1,1199,habit,11112,2019-10-21_17h08.30.181,SurveyExpMetaMem,3.2.3,MacIntel,60
,,,,,,,,,,,,,,,,,,,,5,1.132999897,5,0.464000225,1,0,1200,306,1,1199,gloom,11112,2019-10-21_17h08.30.181,SurveyExpMetaMem,3.2.3,MacIntel,60
,,,,,,,,,,,,,,,,,,,,5,1.239000082,5,0.453000069,1,0,1200,471,1,1199,chump,11112,2019-10-21_17h08.30.181,SurveyExpMetaMem,3.2.3,MacIntel,60
,,,,,,,,,,,,,,,,,,,,6,2.586000204,6,0.353000164,1,0,1200,265,1,1199,invent,11112,2019-10-21_17h08.30.181,SurveyExpMetaMem,3.2.3,MacIntel,60
,,,,,,,,,,,,,,,,,,,,7,2.695000172,3,1.579999924,1,0,1200,568,1,1199,therapy,11112,2019-10-21_17h08.30.181,SurveyExpMetaMem,3.2.3,MacIntel,60
,,,,,,,,,,,,,,,,,,,,7,2.053000212,3,0.425000191,1,0,1200,992,1,1199,addict,11112,2019-10-21_17h08.30.181,SurveyExpMetaMem,3.2.3,MacIntel,60
,,,,,,,,,,,,,,,,,,,,8,1.741000175,2,0.386000156,1,0,1200,1026,1,1199,crisis,11112,2019-10-21_17h08.30.181,SurveyExpMetaMem,3.2.3,MacIntel,60
,,,,,,,,,,,,,,,,,,,,5,3.513000011,5,0.377000093,1,0,1200,800,1,1199,authentic,11112,2019-10-21_17h08.30.181,SurveyExpMetaMem,3.2.3,MacIntel,60
,,,,,,,,,,,,,,,,,,,,5,0.927999973,5,0.438000202,1,0,1200,585,1,1199,tatter,11112,2019-10-21_17h08.30.181,SurveyExpMetaMem,3.2.3,MacIntel,60
,,,,,,,,,,,,,,,,,,,,5,0.70600009,5,0.361999989,1,0,1200,611,1,1199,herring,11112,2019-10-21_17h08.30.181,SurveyExpMetaMem,3.2.3,MacIntel,60
,,,,,,,,,,,,,,,,,,,,8,1.420000076,7,1.337000132,1,0,1200,1065,1,1199,slap,11112,2019-10-21_17h08.30.181,SurveyExpMetaMem,3.2.3,MacIntel,60
,,,,,,,,,,,,,,,,,,,,8,1.465000153,2,0.345000029,1,0,1200,1140,1,1199,blood,11112,2019-10-21_17h08.30.181,SurveyExpMetaMem,3.2.3,MacIntel,60
,,,,,,,,,,,,,,,,,,,,8,1.404000044,2,0.378999949,1,0,1200,1037,1,1199,scared,11112,2019-10-21_17h08.30.181,SurveyExpMetaMem,3.2.3,MacIntel,60
,,,,,,,,,,,,,,,,,,,,8,1.771000147,8,0.379000187,1,0,1200,1180,1,1199,heat,11112,2019-10-21_17h08.30.181,SurveyExpMetaMem,3.2.3,MacIntel,60
,,,,,,,,,,,,,,,,,,,,5,1.588999987,5,0.413000107,1,0,1200,1117,1,1199,court,11112,2019-10-21_17h08.30.181,SurveyExpMetaMem,3.2.3,MacIntel,60
,,,,,,,,,,,,,,,,,,,,7,1.63800025,7,0.370000124,1,0,1200,615,1,1199,lad,11112,2019-10-21_17h08.30.181,SurveyExpMetaMem,3.2.3,MacIntel,60
,,,,,,,,,,,,,,,,,,,,8,2.237999916,8,0.354000092,1,0,1200,186,1,1199,holiday,11112,2019-10-21_17h08.30.181,SurveyExpMetaMem,3.2.3,MacIntel,60
,,,,,,,,,,,,,,,,,,,,5,1.637000084,5,0.404999971,1,0,1200,34,1,1199,personality,11112,2019-10-21_17h08.30.181,SurveyExpMetaMem,3.2.3,MacIntel,60
,,,,,,,,,,,,,,,,,,,,5,0.70600009,5,0.387000084,1,0,1200,241,1,1199,car,11112,2019-10-21_17h08.30.181,SurveyExpMetaMem,3.2.3,MacIntel,60
,,,,,,,,,,,,,,,,,,,,5,1.016000032,5,0.461000204,1,0,1200,955,1,1199,drown,11112,2019-10-21_17h08.30.181,SurveyExpMetaMem,3.2.3,MacIntel,60
,,,,,,,,,,,,,,,,,,,,5,2.444999933,2,0.411999941,1,0,1200,1114,1,1199,foe,11112,2019-10-21_17h08.30.181,SurveyExpMetaMem,3.2.3,MacIntel,60
,,,,,,,,,,,,,,,,,,,,5,0.9150002,5,0.414000034,1,0,1200,843,1,1199,garden,11112,2019-10-21_17h08.30.181,SurveyExpMetaMem,3.2.3,MacIntel,60
,,,,,,,,,,,,,,,,,,,,5,1.694999933,7,0.798000097,1,0,1200,71,1,1199,spirit,11112,2019-10-21_17h08.30.181,SurveyExpMetaMem,3.2.3,MacIntel,60
,,,,,,,,,,,,,,,,,,,,8,1.721000195,2,0.213000059,1,0,1200,1022,1,1199,creepy,11112,2019-10-21_17h08.30.181,SurveyExpMetaMem,3.2.3,MacIntel,60
,,,,,,,,,,,,,,,,,,,,5,0.862999916,5,0.354000092,1,0,1200,738,1,1199,horse,11112,2019-10-21_17h08.30.181,SurveyExpMetaMem,3.2.3,MacIntel,60
,,,,,,,,,,,,,,,,,,,,5,1.171000004,5,0.361000299,1,0,1200,121,1,1199,self,11112,2019-10-21_17h08.30.181,SurveyExpMetaMem,3.2.3,MacIntel,60
,,,,,,,,,,,,,,,,,,,,5,0.779000044,5,0.465000153,1,0,1200,702,1,1199,den,11112,2019-10-21_17h08.30.181,SurveyExpMetaMem,3.2.3,MacIntel,60
,,,,,,,,,,,,,,,,,,,,7,3.344000101,2,1.2900002,1,0,1200,516,1,1199,smug,11112,2019-10-21_17h08.30.181,SurveyExpMetaMem,3.2.3,MacIntel,60
,,,,,,,,,,,,,,,,,,,,5,1.191999912,5,0.483000278,1,0,1200,421,1,1199,stale,11112,2019-10-21_17h08.30.181,SurveyExpMetaMem,3.2.3,MacIntel,60
,,,,,,,,,,,,,,,,,,,,8,1.736000299,8,1.1650002,1,0,1200,1172,1,1199,overwhelmed,11112,2019-10-21_17h08.30.181,SurveyExpMetaMem,3.2.3,MacIntel,60
,,,,,,,,,,,,,,,,,,,,8,1.444000006,2,0.355999947,1,0,1200,1009,1,1199,frightened,11112,2019-10-21_17h08.30.181,SurveyExpMetaMem,3.2.3,MacIntel,60
,,,,,,,,,,,,,,,,,,,,7,1.703999996,3,0.750000238,1,0,1200,484,1,1199,leave,11112,2019-10-21_17h08.30.181,SurveyExpMetaMem,3.2.3,MacIntel,60
,,,,,,,,,,,,,,,,,,,,8,1.736999989,2,0.931999922,1,0,1200,431,1,1199,itch,11112,2019-10-21_17h08.30.181,SurveyExpMetaMem,3.2.3,MacIntel,60
,,,,,,,,,,,,,,,,,,,,5,1.014999866,5,0.445000172,1,0,1200,203,1,1199,seal,11112,2019-10-21_17h08.30.181,SurveyExpMetaMem,3.2.3,MacIntel,60
,,,,,,,,,,,,,,,,,,,,8,1.462000132,2,0.363000154,1,0,1200,977,1,1199,choke,11112,2019-10-21_17h08.30.181,SurveyExpMetaMem,3.2.3,MacIntel,60
,,,,,,,,,,,,,,,,,,,,8,1.322999954,8,0.799000025,1,0,1200,78,1,1199,energetic,11112,2019-10-21_17h08.30.181,SurveyExpMetaMem,3.2.3,MacIntel,60
,,,,,,,,,,,,,,,,,,,,5,7.033000231,5,0.338000059,1,0,1200,590,1,1199,stool,11112,2019-10-21_17h08.30.181,SurveyExpMetaMem,3.2.3,MacIntel,60
,,,,,,,,,,,,,,,,,,,,5,0.845000029,5,0.388000011,1,0,1200,616,1,1199,coat,11112,2019-10-21_17h08.30.181,SurveyExpMetaMem,3.2.3,MacIntel,60
,,,,,,,,,,,,,,,,,,,,7,3.055000067,7,0.78000021,1,0,1200,859,1,1199,serene,11112,2019-10-21_17h08.30.181,SurveyExpMetaMem,3.2.3,MacIntel,60
,,,,,,,,,,,,,,,,,,,,7,1.281000137,7,0.472000122,1,0,1200,884,1,1199,grateful,11112,2019-10-21_17h08.30.181,SurveyExpMetaMem,3.2.3,MacIntel,60
,,,,,,,,,,,,,,,,,,,,5,2.171000004,5,0.337000132,1,0,1200,696,1,1199,rink,11112,2019-10-21_17h08.30.181,SurveyExpMetaMem,3.2.3,MacIntel,60
,,,,,,,,,,,,,,,,,,,,7,1.758000135,7,0.462000132,1,0,1200,234,1,1199,redeem,11112,2019-10-21_17h08.30.181,SurveyExpMetaMem,3.2.3,MacIntel,60
,,,,,,,,,,,,,,,,,,,,7,1.288000107,7,0.395000219,1,0,1200,225,1,1199,strong,11112,2019-10-21_17h08.30.181,SurveyExpMetaMem,3.2.3,MacIntel,60
,,,,,,,,,,,,,,,,,,,,7,2.827000141,7,0.379000187,1,0,1200,187,1,1199,excite,11112,2019-10-21_17h08.30.181,SurveyExpMetaMem,3.2.3,MacIntel,60
,,,,,,,,,,,,,,,,,,,,5,3.256999969,2,0.572999954,1,0,1200,470,1,1199,cynical,11112,2019-10-21_17h08.30.181,SurveyExpMetaMem,3.2.3,MacIntel,60
,,,,,,,,,,,,,,,,,,,,5,2.220000267,5,0.488000154,1,0,1200,223,1,1199,fashion,11112,2019-10-21_17h08.30.181,SurveyExpMetaMem,3.2.3,MacIntel,60
,,,,,,,,,,,,,,,,,,,,5,0.820000172,5,0.433000326,1,0,1200,801,1,1199,noon,11112,2019-10-21_17h08.30.181,SurveyExpMetaMem,3.2.3,MacIntel,60
,,,,,,,,,,,,,,,,,,,,7,1.365000248,7,0.447999954,1,0,1200,844,1,1199,soul,11112,2019-10-21_17h08.30.181,SurveyExpMetaMem,3.2.3,MacIntel,60
,,,,,,,,,,,,,,,,,,,,5,0.987000227,5,0.479000092,1,0,1200,145,1,1199,me,11112,2019-10-21_17h08.30.181,SurveyExpMetaMem,3.2.3,MacIntel,60
,,,,,,,,,,,,,,,,,,,,7,4.798000097,2,0.764000177,1,0,1200,1075,1,1199,apprehension,11112,2019-10-21_17h08.30.181,SurveyExpMetaMem,3.2.3,MacIntel,60
,,,,,,,,,,,,,,,,,,,,5,1.146000147,5,0.394999981,1,0,1200,868,1,1199,grace,11112,2019-10-21_17h08.30.181,SurveyExpMetaMem,3.2.3,MacIntel,60
,,,,,,,,,,,,,,,,,,,,5,2.800000191,5,0.508000135,1,0,1200,249,1,1199,award,11112,2019-10-21_17h08.30.181,SurveyExpMetaMem,3.2.3,MacIntel,60
,,,,,,,,,,,,,,,,,,,,7,1.720999956,7,0.322000027,1,0,1200,83,1,1199,appreciative,11112,2019-10-21_17h08.30.181,SurveyExpMetaMem,3.2.3,MacIntel,60
,,,,,,,,,,,,,,,,,,,,5,0.842000008,5,0.38100028,1,0,1200,655,1,1199,name,11112,2019-10-21_17h08.30.181,SurveyExpMetaMem,3.2.3,MacIntel,60
,,,,,,,,,,,,,,,,,,,,7,1.013000011,7,0.763999939,1,0,1200,155,1,1199,ignite,11112,2019-10-21_17h08.30.181,SurveyExpMetaMem,3.2.3,MacIntel,60
,,,,,,,,,,,,,,,,,,,,7,3.713000059,2,0.788000107,1,0,1200,933,1,1199,afraid,11112,2019-10-21_17h08.30.181,SurveyExpMetaMem,3.2.3,MacIntel,60
,,,,,,,,,,,,,,,,,,,,7,1.929000139,7,0.47300005,1,0,1200,127,1,1199,glamorous,11112,2019-10-21_17h08.30.181,SurveyExpMetaMem,3.2.3,MacIntel,60
,,,,,,,,,,,,,,,,,,,,7,1.769999981,3,0.586000204,1,0,1200,1132,1,1199,anarchy,11112,2019-10-21_17h08.30.181,SurveyExpMetaMem,3.2.3,MacIntel,60
,,,,,,,,,,,,,,,,,,,,8,1.654000044,8,1.022000074,1,0,1200,236,1,1199,amaze,11112,2019-10-21_17h08.30.181,SurveyExpMetaMem,3.2.3,MacIntel,60
,,,,,,,,,,,,,,,,,,,,5,1.328999996,5,0.363000154,1,0,1200,742,1,1199,window,11112,2019-10-21_17h08.30.181,SurveyExpMetaMem,3.2.3,MacIntel,60
,,,,,,,,,,,,,,,,,,,,7,1.12100029,3,0.562999964,1,0,1200,937,1,1199,prison,11112,2019-10-21_17h08.30.181,SurveyExpMetaMem,3.2.3,MacIntel,60
,,,,,,,,,,,,,,,,,,,,8,1.087000132,8,0.312000036,1,0,1200,762,1,1199,orchestra,11112,2019-10-21_17h08.30.181,SurveyExpMetaMem,3.2.3,MacIntel,60
,,,,,,,,,,,,,,,,,,,,7,2.315000057,5,1.004000187,1,0,1200,729,1,1199,velvet,11112,2019-10-21_17h08.30.181,SurveyExpMetaMem,3.2.3,MacIntel,60
,,,,,,,,,,,,,,,,,,,,7,1.54700017,3,1.370000124,1,0,1200,1173,1,1199,lurk,11112,2019-10-21_17h08.30.181,SurveyExpMetaMem,3.2.3,MacIntel,60
,,,,,,,,,,,,,,,,,,,,7,1.339000225,3,0.36400032,1,0,1200,1142,1,1199,disturb,11112,2019-10-21_17h08.30.181,SurveyExpMetaMem,3.2.3,MacIntel,60
,,,,,,,,,,,,,,,,,,,,6,2.031000137,3,0.423000097,1,0,1200,413,1,1199,deficient,11112,2019-10-21_17h08.30.181,SurveyExpMetaMem,3.2.3,MacIntel,60
,,,,,,,,,,,,,,,,,,,,7,1.440000057,7,0.312999964,1,0,1200,229,1,1199,heaven,11112,2019-10-21_17h08.30.181,SurveyExpMetaMem,3.2.3,MacIntel,60
,,,,,,,,,,,,,,,,,,,,7,1.521000147,2,0.391000032,1,0,1200,1025,1,1199,deadly,11112,2019-10-21_17h08.30.181,SurveyExpMetaMem,3.2.3,MacIntel,60
,,,,,,,,,,,,,,,,,,,,5,1.054000139,5,0.304000139,1,0,1200,358,1,1199,waste,11112,2019-10-21_17h08.30.181,SurveyExpMetaMem,3.2.3,MacIntel,60
,,,,,,,,,,,,,,,,,,,,7,1.056000233,2,0.397000074,1,0,1200,921,1,1199,humiliation,11112,2019-10-21_17h08.30.181,SurveyExpMetaMem,3.2.3,MacIntel,60
,,,,,,,,,,,,,,,,,,,,5,2.475000143,5,0.362000227,1,0,1200,804,1,1199,peach,11112,2019-10-21_17h08.30.181,SurveyExpMetaMem,3.2.3,MacIntel,60
,,,,,,,,,,,,,,,,,,,,8,1.978000164,2,0.31400013,1,0,1200,953,1,1199,victim,11112,2019-10-21_17h08.30.181,SurveyExpMetaMem,3.2.3,MacIntel,60
,,,,,,,,,,,,,,,,,,,,5,0.87100029,5,0.362999916,1,0,1200,693,1,1199,key,11112,2019-10-21_17h08.30.181,SurveyExpMetaMem,3.2.3,MacIntel,60
,,,,,,,,,,,,,,,,,,,,5,0.815000057,5,0.494999886,1,0,1200,61,1,1199,zoom,11112,2019-10-21_17h08.30.181,SurveyExpMetaMem,3.2.3,MacIntel,60
,,,,,,,,,,,,,,,,,,,,8,1.638000011,8,0.332000017,1,0,1200,197,1,1199,happy,11112,2019-10-21_17h08.30.181,SurveyExpMetaMem,3.2.3,MacIntel,60
,,,,,,,,,,,,,,,,,,,,9,2.404999971,1,0.322000027,1,0,1200,1012,1,1199,gunshot,11112,2019-10-21_17h08.30.181,SurveyExpMetaMem,3.2.3,MacIntel,60
,,,,,,,,,,,,,,,,,,,,7,1.598999977,7,0.386000156,1,0,1200,146,1,1199,congratulations,11112,2019-10-21_17h08.30.181,SurveyExpMetaMem,3.2.3,MacIntel,60
,,,,,,,,,,,,,,,,,,,,7,1.743999958,5,1.474999905,1,0,1200,1154,1,1199,politics,11112,2019-10-21_17h08.30.181,SurveyExpMetaMem,3.2.3,MacIntel,60
,,,,,,,,,,,,,,,,,,,,5,1.361999989,5,0.413000107,1,0,1200,123,1,1199,favorite,11112,2019-10-21_17h08.30.181,SurveyExpMetaMem,3.2.3,MacIntel,60
,,,,,,,,,,,,,,,,,,,,5,0.078999996,2,3.006999969,1,0,1200,968,1,1199,insult,11112,2019-10-21_17h08.30.181,SurveyExpMetaMem,3.2.3,MacIntel,60
,,,,,,,,,,,,,,,,,,,,8,1.494999886,2,0.696000099,1,0,1200,997,1,1199,injury,11112,2019-10-21_17h08.30.181,SurveyExpMetaMem,3.2.3,MacIntel,60
,,,,,,,,,,,,,,,,,,,,5,1.704000235,5,0.328000069,1,0,1200,19,1,1199,firefighter,11112,2019-10-21_17h08.30.181,SurveyExpMetaMem,3.2.3,MacIntel,60
,,,,,,,,,,,,,,,,,,,,8,2.006000042,7,0.523999929,1,0,1200,1199,1,1199,expensive,11112,2019-10-21_17h08.30.181,SurveyExpMetaMem,3.2.3,MacIntel,60
,,,,,,,,,,,,,,,,,,,,5,2.355000019,5,0.387000084,1,0,1200,381,1,1199,sloppy,11112,2019-10-21_17h08.30.181,SurveyExpMetaMem,3.2.3,MacIntel,60
,,,,,,,,,,,,,,,,,,,,5,1.09100008,5,0.357000113,1,0,1200,321,1,1199,wart,11112,2019-10-21_17h08.30.181,SurveyExpMetaMem,3.2.3,MacIntel,60
,,,,,,,,,,,,,,,,,,,,7,4.146000147,7,0.40500021,1,0,1200,141,1,1199,surprise,11112,2019-10-21_17h08.30.181,SurveyExpMetaMem,3.2.3,MacIntel,60
,,,,,,,,,,,,,,,,,,,,7,1.786000013,8,0.570000172,1,0,1200,645,1,1199,telescope,11112,2019-10-21_17h08.30.181,SurveyExpMetaMem,3.2.3,MacIntel,60
,,,,,,,,,,,,,,,,,,,,8,4.506000042,2,0.448000193,1,0,1200,991,1,1199,harass,11112,2019-10-21_17h08.30.181,SurveyExpMetaMem,3.2.3,MacIntel,60
,,,,,,,,,,,,,,,,,,,,7,1.753000021,2,0.382000208,1,0,1200,1020,1,1199,malice,11112,2019-10-21_17h08.30.181,SurveyExpMetaMem,3.2.3,MacIntel,60
,,,,,,,,,,,,,,,,,,,,7,1.532000065,7,0.531000137,1,0,1200,681,1,1199,fig,11112,2019-10-21_17h08.30.181,SurveyExpMetaMem,3.2.3,MacIntel,60
,,,,,,,,,,,,,,,,,,,,7,3.104000092,7,0.362000227,1,0,1200,113,1,1199,bridesmaid,11112,2019-10-21_17h08.30.181,SurveyExpMetaMem,3.2.3,MacIntel,60
,,,,,,,,,,,,,,,,,,,,7,2.070000172,4,0.482000113,1,0,1200,739,1,1199,seagull,11112,2019-10-21_17h08.30.181,SurveyExpMetaMem,3.2.3,MacIntel,60
,,,,,,,,,,,,,,,,,,,,5,1.289000273,5,0.339000225,1,0,1200,745,1,1199,inform,11112,2019-10-21_17h08.30.181,SurveyExpMetaMem,3.2.3,MacIntel,60
,,,,,,,,,,,,,,,,,,,,5,0.919000149,5,0.743999958,1,0,1200,448,1,1199,depart,11112,2019-10-21_17h08.30.181,SurveyExpMetaMem,3.2.3,MacIntel,60
,,,,,,,,,,,,,,,,,,,,5,0.822999954,5,0.679000139,1,0,1200,805,1,1199,autumn,11112,2019-10-21_17h08.30.181,SurveyExpMetaMem,3.2.3,MacIntel,60
,,,,,,,,,,,,,,,,,,,,7,3.54700017,7,0.33100009,1,0,1200,773,1,1199,rational,11112,2019-10-21_17h08.30.181,SurveyExpMetaMem,3.2.3,MacIntel,60
,,,,,,,,,,,,,,,,,,,,7,2.477999926,7,0.555999994,1,0,1200,576,1,1199,policy,11112,2019-10-21_17h08.30.181,SurveyExpMetaMem,3.2.3,MacIntel,60
,,,,,,,,,,,,,,,,,,,,7,1.121999979,7,0.666000128,1,0,1200,52,1,1199,dare,11112,2019-10-21_17h08.30.181,SurveyExpMetaMem,3.2.3,MacIntel,60
,,,,,,,,,,,,,,,,,,,,7,0.829000235,8,0.658000231,1,0,1200,125,1,1199,dancing,11112,2019-10-21_17h08.30.181,SurveyExpMetaMem,3.2.3,MacIntel,60
,,,,,,,,,,,,,,,,,,,,7,1.136000156,7,1.296999931,1,0,1200,90,1,1199,satisfaction,11112,2019-10-21_17h08.30.181,SurveyExpMetaMem,3.2.3,MacIntel,60
,,,,,,,,,,,,,,,,,,,,6,3.730000019,7,0.470000029,1,0,1200,640,1,1199,cabin,11112,2019-10-21_17h08.30.181,SurveyExpMetaMem,3.2.3,MacIntel,60
,,,,,,,,,,,,,,,,,,,,7,2.421000004,7,0.81400013,1,0,1200,180,1,1199,embrace,11112,2019-10-21_17h08.30.181,SurveyExpMetaMem,3.2.3,MacIntel,60
,,,,,,,,,,,,,,,,,,,,8,9.006000042,3,0.269000053,1,0,1200,260,1,1199,control,11112,2019-10-21_17h08.30.181,SurveyExpMetaMem,3.2.3,MacIntel,60
,,,,,,,,,,,,,,,,,,,,5,1.19900012,5,0.702000141,1,0,1200,528,1,1199,dirt,11112,2019-10-21_17h08.30.181,SurveyExpMetaMem,3.2.3,MacIntel,60
,,,,,,,,,,,,,,,,,,,,8,1.496000051,2,0.480000019,1,0,1200,964,1,1199,grieve,11112,2019-10-21_17h08.30.181,SurveyExpMetaMem,3.2.3,MacIntel,60
,,,,,,,,,,,,,,,,,,,,5,5.228000164,2,1.123000145,1,0,1200,1050,1,1199,scorn,11112,2019-10-21_17h08.30.181,SurveyExpMetaMem,3.2.3,MacIntel,60
,,,,,,,,,,,,,,,,,,,,8,1.279999971,8,0.430999994,1,0,1200,775,1,1199,pancakes,11112,2019-10-21_17h08.30.181,SurveyExpMetaMem,3.2.3,MacIntel,60
,,,,,,,,,,,,,,,,,,,,8,2.023999929,8,0.35800004,1,0,1200,287,1,1199,optimistic,11112,2019-10-21_17h08.30.181,SurveyExpMetaMem,3.2.3,MacIntel,60
,,,,,,,,,,,,,,,,,,,,5,2.972000122,5,0.40500021,1,0,1200,728,1,1199,patio,11112,2019-10-21_17h08.30.181,SurveyExpMetaMem,3.2.3,MacIntel,60
,,,,,,,,,,,,,,,,,,,,8,1.212000132,8,1.137000084,1,0,1200,29,1,1199,life,11112,2019-10-21_17h08.30.181,SurveyExpMetaMem,3.2.3,MacIntel,60
,,,,,,,,,,,,,,,,,,,,8,1.344000101,2,0.345000029,1,0,1200,1118,1,1199,frantic,11112,2019-10-21_17h08.30.181,SurveyExpMetaMem,3.2.3,MacIntel,60
,,,,,,,,,,,,,,,,,,,,8,7.999000072,2,0.361000061,1,0,1200,914,1,1199,fail,11112,2019-10-21_17h08.30.181,SurveyExpMetaMem,3.2.3,MacIntel,60
,,,,,,,,,,,,,,,,,,,,5,3.996000051,5,0.474000216,1,0,1200,406,1,1199,tired,11112,2019-10-21_17h08.30.181,SurveyExpMetaMem,3.2.3,MacIntel,60
,,,,,,,,,,,,,,,,,,,,5,0.70600009,5,0.504000187,1,0,1200,440,1,1199,forgot,11112,2019-10-21_17h08.30.181,SurveyExpMetaMem,3.2.3,MacIntel,60
,,,,,,,,,,,,,,,,,,,,5,1.038000107,5,0.572000027,1,0,1200,557,1,1199,class,11112,2019-10-21_17h08.30.181,SurveyExpMetaMem,3.2.3,MacIntel,60
,,,,,,,,,,,,,,,,,,,,8,1.744000196,8,0.504000187,1,0,1200,787,1,1199,dawn,11112,2019-10-21_17h08.30.181,SurveyExpMetaMem,3.2.3,MacIntel,60
,,,,,,,,,,,,,,,,,,,,8,2.287000179,2,0.395000219,1,0,1200,473,1,1199,senseless,11112,2019-10-21_17h08.30.181,SurveyExpMetaMem,3.2.3,MacIntel,60
,,,,,,,,,,,,,,,,,,,,8,1.187000036,2,0.587000132,1,0,1200,985,1,1199,pollution,11112,2019-10-21_17h08.30.181,SurveyExpMetaMem,3.2.3,MacIntel,60
,,,,,,,,,,,,,,,,,,,,7,2.042999983,7,0.411000252,1,0,1200,466,1,1199,gnaw,11112,2019-10-21_17h08.30.181,SurveyExpMetaMem,3.2.3,MacIntel,60
,,,,,,,,,,,,,,,,,,,,7,0.077000141,7,0.077000141,1,0,1200,101,1,1199,alien,11112,2019-10-21_17h08.30.181,SurveyExpMetaMem,3.2.3,MacIntel,60
,,,,,,,,,,,,,,,,,,,,7,0.078000069,5,4.196000099,1,0,1200,820,1,1199,oxygen,11112,2019-10-21_17h08.30.181,SurveyExpMetaMem,3.2.3,MacIntel,60
,,,,,,,,,,,,,,,,,,,,5,0.988000154,5,0.575000048,1,0,1200,788,1,1199,cook,11112,2019-10-21_17h08.30.181,SurveyExpMetaMem,3.2.3,MacIntel,60
,,,,,,,,,,,,,,,,,,,,8,1.822000265,2,0.34800005,1,0,1200,1151,1,1199,drama,11112,2019-10-21_17h08.30.181,SurveyExpMetaMem,3.2.3,MacIntel,60
,,,,,,,,,,,,,,,,,,,,2,2.874000311,2,1.078999996,1,0,1200,259,1,1199,thin,11112,2019-10-21_17h08.30.181,SurveyExpMetaMem,3.2.3,MacIntel,60
,,,,,,,,,,,,,,,,,,,,5,3.692000151,5,0.396000147,1,0,1200,827,1,1199,saint,11112,2019-10-21_17h08.30.181,SurveyExpMetaMem,3.2.3,MacIntel,60
,,,,,,,,,,,,,,,,,,,,8,1.463000059,2,0.272000074,1,0,1200,948,1,1199,pain,11112,2019-10-21_17h08.30.181,SurveyExpMetaMem,3.2.3,MacIntel,60
,,,,,,,,,,,,,,,,,,,,8,1.322999954,2,0.691000223,1,0,1200,405,1,1199,fatigued,11112,2019-10-21_17h08.30.181,SurveyExpMetaMem,3.2.3,MacIntel,60
,,,,,,,,,,,,,,,,,,,,5,4.71600008,5,0.337000132,1,0,1200,1162,1,1199,baffle,11112,2019-10-21_17h08.30.181,SurveyExpMetaMem,3.2.3,MacIntel,60
,,,,,,,,,,,,,,,,,,,,5,0.798000097,5,0.349000216,1,0,1200,1032,1,1199,exam,11112,2019-10-21_17h08.30.181,SurveyExpMetaMem,3.2.3,MacIntel,60
,,,,,,,,,,,,,,,,,,,,5,0.938000202,5,0.292000055,1,0,1200,14,1,1199,attain,11112,2019-10-21_17h08.30.181,SurveyExpMetaMem,3.2.3,MacIntel,60
,,,,,,,,,,,,,,,,,,,,5,0.694000244,5,0.345999956,1,0,1200,619,1,1199,pulpit,11112,2019-10-21_17h08.30.181,SurveyExpMetaMem,3.2.3,MacIntel,60
,,,,,,,,,,,,,,,,,,,,5,1.120000124,5,0.308000088,1,0,1200,1182,1,1199,pierce,11112,2019-10-21_17h08.30.181,SurveyExpMetaMem,3.2.3,MacIntel,60
,,,,,,,,,,,,,,,,,,,,5,1.913000107,5,0.295000076,1,0,1200,848,1,1199,graceful,11112,2019-10-21_17h08.30.181,SurveyExpMetaMem,3.2.3,MacIntel,60
,,,,,,,,,,,,,,,,,,,,8,1.386000156,8,0.295000076,1,0,1200,195,1,1199,laughing,11112,2019-10-21_17h08.30.181,SurveyExpMetaMem,3.2.3,MacIntel,60
,,,,,,,,,,,,,,,,,,,,5,1.355000019,8,0.832000256,1,0,1200,802,1,1199,familiar,11112,2019-10-21_17h08.30.181,SurveyExpMetaMem,3.2.3,MacIntel,60
,,,,,,,,,,,,,,,,,,,,8,1.095999956,8,0.470000267,1,0,1200,126,1,1199,rich,11112,2019-10-21_17h08.30.181,SurveyExpMetaMem,3.2.3,MacIntel,60
,,,,,,,,,,,,,,,,,,,,8,1.515000105,2,0.395000219,1,0,1200,332,1,1199,sewage,11112,2019-10-21_17h08.30.181,SurveyExpMetaMem,3.2.3,MacIntel,60
,,,,,,,,,,,,,,,,,,,,7,2.471000195,3,0.328000069,1,0,1200,377,1,1199,complain,11112,2019-10-21_17h08.30.181,SurveyExpMetaMem,3.2.3,MacIntel,60
,,,,,,,,,,,,,,,,,,,,5,1.454000235,5,0.338000059,1,0,1200,219,1,1199,know,11112,2019-10-21_17h08.30.181,SurveyExpMetaMem,3.2.3,MacIntel,60
,,,,,,,,,,,,,,,,,,,,7,1.053000212,8,0.697999954,1,0,1200,898,1,1199,kindness,11112,2019-10-21_17h08.30.181,SurveyExpMetaMem,3.2.3,MacIntel,60
,,,,,,,,,,,,,,,,,,,,8,1.593000174,2,0.42200017,1,0,1200,983,1,1199,demonic,11112,2019-10-21_17h08.30.181,SurveyExpMetaMem,3.2.3,MacIntel,60
,,,,,,,,,,,,,,,,,,,,8,1.060000181,2,0.332000017,1,0,1200,1189,1,1199,lava,11112,2019-10-21_17h08.30.181,SurveyExpMetaMem,3.2.3,MacIntel,60
,,,,,,,,,,,,,,,,,,,,5,1.221999884,5,0.403000116,1,0,1200,426,1,1199,con,11112,2019-10-21_17h08.30.181,SurveyExpMetaMem,3.2.3,MacIntel,60
,,,,,,,,,,,,,,,,,,,,7,1.548000097,7,0.424000263,1,0,1200,84,1,1199,eat,11112,2019-10-21_17h08.30.181,SurveyExpMetaMem,3.2.3,MacIntel,60
,,,,,,,,,,,,,,,,,,,,8,1.653000116,3,0.498000145,1,0,1200,990,1,1199,enraged,11112,2019-10-21_17h08.30.181,SurveyExpMetaMem,3.2.3,MacIntel,60
,,,,,,,,,,,,,,,,,,,,7,2.637000084,3,0.312999964,1,0,1200,1035,1,1199,expel,11112,2019-10-21_17h08.30.181,SurveyExpMetaMem,3.2.3,MacIntel,60
,,,,,,,,,,,,,,,,,,,,5,1.904999971,5,0.398999929,1,0,1200,454,1,1199,damp,11112,2019-10-21_17h08.30.181,SurveyExpMetaMem,3.2.3,MacIntel,60
,,,,,,,,,,,,,,,,,,,,9,1.938000202,1,0.404999971,1,0,1200,901,1,1199,rape,11112,2019-10-21_17h08.30.181,SurveyExpMetaMem,3.2.3,MacIntel,60
,,,,,,,,,,,,,,,,,,,,8,1.508000135,2,0.312999964,1,0,1200,1055,1,1199,alarm,11112,2019-10-21_17h08.30.181,SurveyExpMetaMem,3.2.3,MacIntel,60
,,,,,,,,,,,,,,,,,,,,5,4.897000074,6,0.806000233,1,0,1200,872,1,1199,dignified,11112,2019-10-21_17h08.30.181,SurveyExpMetaMem,3.2.3,MacIntel,60
,,,,,,,,,,,,,,,,,,,,7,1.430000067,7,0.427999973,1,0,1200,79,1,1199,dazzle,11112,2019-10-21_17h08.30.181,SurveyExpMetaMem,3.2.3,MacIntel,60
,,,,,,,,,,,,,,,,,,,,7,3.13800025,7,0.372000217,1,0,1200,811,1,1199,tenderness,11112,2019-10-21_17h08.30.181,SurveyExpMetaMem,3.2.3,MacIntel,60
,,,,,,,,,,,,,,,,,,,,7,1.363000154,3,0.565000296,1,0,1200,1057,1,1199,deceit,11112,2019-10-21_17h08.30.181,SurveyExpMetaMem,3.2.3,MacIntel,60
,,,,,,,,,,,,,,,,,,,,8,1.640000105,5,1.27300024,1,0,1200,1144,1,1199,yelp,11112,2019-10-21_17h08.30.181,SurveyExpMetaMem,3.2.3,MacIntel,60
,,,,,,,,,,,,,,,,,,,,5,2.671999931,5,0.580000162,1,0,1200,748,1,1199,town,11112,2019-10-21_17h08.30.181,SurveyExpMetaMem,3.2.3,MacIntel,60
,,,,,,,,,,,,,,,,,,,,5,0.762000084,5,0.59100008,1,0,1200,752,1,1199,milk,11112,2019-10-21_17h08.30.181,SurveyExpMetaMem,3.2.3,MacIntel,60
,,,,,,,,,,,,,,,,,,,,5,0.762000084,3,1.108999968,1,0,1200,1039,1,1199,stalk,11112,2019-10-21_17h08.30.181,SurveyExpMetaMem,3.2.3,MacIntel,60
,,,,,,,,,,,,,,,,,,,,7,2.378999949,5,1.412000179,1,0,1200,515,1,1199,blues,11112,2019-10-21_17h08.30.181,SurveyExpMetaMem,3.2.3,MacIntel,60
,,,,,,,,,,,,,,,,,,,,5,1.861999989,3,0.65500021,1,0,1200,952,1,1199,troubled,11112,2019-10-21_17h08.30.181,SurveyExpMetaMem,3.2.3,MacIntel,60
,,,,,,,,,,,,,,,,,,,,8,1.198000193,3,0.594000101,1,0,1200,362,1,1199,despair,11112,2019-10-21_17h08.30.181,SurveyExpMetaMem,3.2.3,MacIntel,60
,,,,,,,,,,,,,,,,,,,,5,1.713999987,5,0.444999933,1,0,1200,387,1,1199,tax,11112,2019-10-21_17h08.30.181,SurveyExpMetaMem,3.2.3,MacIntel,60
,,,,,,,,,,,,,,,,,,,,5,8.589000225,5,0.372000217,1,0,1200,177,1,1199,frosting,11112,2019-10-21_17h08.30.181,SurveyExpMetaMem,3.2.3,MacIntel,60
,,,,,,,,,,,,,,,,,,,,7,1.295000315,3,0.463000298,1,0,1200,1053,1,1199,surgery,11112,2019-10-21_17h08.30.181,SurveyExpMetaMem,3.2.3,MacIntel,60
,,,,,,,,,,,,,,,,,,,,7,1.247999907,7,0.454999924,1,0,1200,890,1,1199,carefree,11112,2019-10-21_17h08.30.181,SurveyExpMetaMem,3.2.3,MacIntel,60
,,,,,,,,,,,,,,,,,,,,7,1.275000095,7,0.465000153,1,0,1200,193,1,1199,party,11112,2019-10-21_17h08.30.181,SurveyExpMetaMem,3.2.3,MacIntel,60
,,,,,,,,,,,,,,,,,,,,5,1.147000074,5,0.404000044,1,0,1200,813,1,1199,walking,11112,2019-10-21_17h08.30.181,SurveyExpMetaMem,3.2.3,MacIntel,60
,,,,,,,,,,,,,,,,,,,,7,3.052999973,7,0.353000164,1,0,1200,15,1,1199,curiosity,11112,2019-10-21_17h08.30.181,SurveyExpMetaMem,3.2.3,MacIntel,60
,,,,,,,,,,,,,,,,,,,,7,1.174000025,2,0.378000021,1,0,1200,402,1,1199,dismissive,11112,2019-10-21_17h08.30.181,SurveyExpMetaMem,3.2.3,MacIntel,60
,,,,,,,,,,,,,,,,,,,,7,2.105000257,4,1.312999964,1,0,1200,509,1,1199,ash,11112,2019-10-21_17h08.30.181,SurveyExpMetaMem,3.2.3,MacIntel,60
,,,,,,,,,,,,,,,,,,,,7,2.014000177,5,1.062000036,1,0,1200,727,1,1199,author,11112,2019-10-21_17h08.30.181,SurveyExpMetaMem,3.2.3,MacIntel,60
,,,,,,,,,,,,,,,,,,,,7,1.21600008,7,0.507000208,1,0,1200,218,1,1199,charming,11112,2019-10-21_17h08.30.181,SurveyExpMetaMem,3.2.3,MacIntel,60
,,,,,,,,,,,,,,,,,,,,7,1.279000044,2,0.487000227,1,0,1200,330,1,1199,sunburn,11112,2019-10-21_17h08.30.181,SurveyExpMetaMem,3.2.3,MacIntel,60
,,,,,,,,,,,,,,,,,,,,5,3.671999931,5,0.988000154,1,0,1200,720,1,1199,stable,11112,2019-10-21_17h08.30.181,SurveyExpMetaMem,3.2.3,MacIntel,60
,,,,,,,,,,,,,,,,,,,,7,2.594000101,5,1.340000153,1,0,1200,104,1,1199,freeway,11112,2019-10-21_17h08.30.181,SurveyExpMetaMem,3.2.3,MacIntel,60
,,,,,,,,,,,,,,,,,,,,7,1.122000217,2,0.687999964,1,0,1200,1100,1,1199,evil,11112,2019-10-21_17h08.30.181,SurveyExpMetaMem,3.2.3,MacIntel,60
,,,,,,,,,,,,,,,,,,,,5,6.654000044,7,0.664000034,1,0,1200,852,1,1199,caring,11112,2019-10-21_17h08.30.181,SurveyExpMetaMem,3.2.3,MacIntel,60
,,,,,,,,,,,,,,,,,,,,7,1.205000162,2,0.462000132,1,0,1200,976,1,1199,tumor,11112,2019-10-21_17h08.30.181,SurveyExpMetaMem,3.2.3,MacIntel,60
,,,,,,,,,,,,,,,,,,,,7,2.261000156,2,0.870000124,1,0,1200,916,1,1199,starvation,11112,2019-10-21_17h08.30.181,SurveyExpMetaMem,3.2.3,MacIntel,60
,,,,,,,,,,,,,,,,,,,,5,1.0400002,5,1.087000132,1,0,1200,495,1,1199,dust,11112,2019-10-21_17h08.30.181,SurveyExpMetaMem,3.2.3,MacIntel,60
,,,,,,,,,,,,,,,,,,,,7,6.546999931,2,0.678000212,1,0,1200,932,1,1199,bankrupt,11112,2019-10-21_17h08.30.181,SurveyExpMetaMem,3.2.3,MacIntel,60
,,,,,,,,,,,,,,,,,,,,5,2.288000107,5,0.470000029,1,0,1200,513,1,1199,bland,11112,2019-10-21_17h08.30.181,SurveyExpMetaMem,3.2.3,MacIntel,60
,,,,,,,,,,,,,,,,,,,,5,1.312999964,5,0.469000101,1,0,1200,209,1,1199,husband,11112,2019-10-21_17h08.30.181,SurveyExpMetaMem,3.2.3,MacIntel,60
,,,,,,,,,,,,,,,,,,,,7,2.712000132,2,1.978000164,1,0,1200,77,1,1199,adore,11112,2019-10-21_17h08.30.181,SurveyExpMetaMem,3.2.3,MacIntel,60
,,,,,,,,,,,,,,,,,,,,7,6.420000076,2,0.647000074,1,0,1200,397,1,1199,complaint,11112,2019-10-21_17h08.30.181,SurveyExpMetaMem,3.2.3,MacIntel,60
,,,,,,,,,,,,,,,,,,,,7,4.944999933,2,1.1650002,1,0,1200,1098,1,1199,confused,11112,2019-10-21_17h08.30.181,SurveyExpMetaMem,3.2.3,MacIntel,60
,,,,,,,,,,,,,,,,,,,,7,1.310000181,8,0.737000227,1,0,1200,81,1,1199,best,11112,2019-10-21_17h08.30.181,SurveyExpMetaMem,3.2.3,MacIntel,60
,,,,,,,,,,,,,,,,,,,,2,3.52300024,2,2.561000109,1,0,1200,548,1,1199,vague,11112,2019-10-21_17h08.30.181,SurveyExpMetaMem,3.2.3,MacIntel,60
,,,,,,,,,,,,,,,,,,,,8,1.395000219,8,0.382000208,1,0,1200,85,1,1199,like,11112,2019-10-21_17h08.30.181,SurveyExpMetaMem,3.2.3,MacIntel,60
,,,,,,,,,,,,,,,,,,,,5,1.154000044,5,0.508000135,1,0,1200,604,1,1199,lamp,11112,2019-10-21_17h08.30.181,SurveyExpMetaMem,3.2.3,MacIntel,60
,,,,,,,,,,,,,,,,,,,,5,1.082000017,5,0.471000195,1,0,1200,403,1,1199,wither,11112,2019-10-21_17h08.30.181,SurveyExpMetaMem,3.2.3,MacIntel,60
,,,,,,,,,,,,,,,,,,,,8,3.411000013,8,0.440000057,1,0,1200,1161,1,1199,shock,11112,2019-10-21_17h08.30.181,SurveyExpMetaMem,3.2.3,MacIntel,60
,,,,,,,,,,,,,,,,,,,,8,1.894000053,2,0.298000097,1,0,1200,1010,1,1199,arson,11112,2019-10-21_17h08.30.181,SurveyExpMetaMem,3.2.3,MacIntel,60
,,,,,,,,,,,,,,,,,,,,5,1.440999985,5,0.937000036,1,0,1200,575,1,1199,paragraph,11112,2019-10-21_17h08.30.181,SurveyExpMetaMem,3.2.3,MacIntel,60
,,,,,,,,,,,,,,,,,,,,7,1.562000036,5,1.078999996,1,0,1200,463,1,1199,limp,11112,2019-10-21_17h08.30.181,SurveyExpMetaMem,3.2.3,MacIntel,60
,,,,,,,,,,,,,,,,,,,,7,1.513000011,7,0.861000061,1,0,1200,760,1,1199,shrimp,11112,2019-10-21_17h08.30.181,SurveyExpMetaMem,3.2.3,MacIntel,60
,,,,,,,,,,,,,,,,,,,,7,3.805999994,7,0.572000027,1,0,1200,227,1,1199,musician,11112,2019-10-21_17h08.30.181,SurveyExpMetaMem,3.2.3,MacIntel,60
,,,,,,,,,,,,,,,,,,,,7,1.128000259,7,0.657000065,1,0,1200,269,1,1199,extravagant,11112,2019-10-21_17h08.30.181,SurveyExpMetaMem,3.2.3,MacIntel,60
,,,,,,,,,,,,,,,,,,,,7,1.437000036,4,1.440000296,1,0,1200,1177,1,1199,pang,11112,2019-10-21_17h08.30.181,SurveyExpMetaMem,3.2.3,MacIntel,60
,,,,,,,,,,,,,,,,,,,,7,1.412999868,2,0.379000187,1,0,1200,320,1,1199,deformed,11112,2019-10-21_17h08.30.181,SurveyExpMetaMem,3.2.3,MacIntel,60
,,,,,,,,,,,,,,,,,,,,3,3.771000147,5,0.441000223,1,0,1200,530,1,1199,erase,11112,2019-10-21_17h08.30.181,SurveyExpMetaMem,3.2.3,MacIntel,60
,,,,,,,,,,,,,,,,,,,,7,3.430999994,3,0.473999977,1,0,1200,5,1,1199,drunk,11112,2019-10-21_17h08.30.181,SurveyExpMetaMem,3.2.3,MacIntel,60
,,,,,,,,,,,,,,,,,,,,7,3.22300005,3,0.912000179,1,0,1200,1174,1,1199,beast,11112,2019-10-21_17h08.30.181,SurveyExpMetaMem,3.2.3,MacIntel,60
,,,,,,,,,,,,,,,,,,,,5,2.245000124,3,1.548000097,1,0,1200,1147,1,1199,demand,11112,2019-10-21_17h08.30.181,SurveyExpMetaMem,3.2.3,MacIntel,60
,,,,,,,,,,,,,,,,,,,,2,1.521000147,5,1.427999973,1,0,1200,690,1,1199,similar,11112,2019-10-21_17h08.30.181,SurveyExpMetaMem,3.2.3,MacIntel,60
,,,,,,,,,,,,,,,,,,,,7,2.398000002,7,0.766000271,1,0,1200,887,1,1199,elegant,11112,2019-10-21_17h08.30.181,SurveyExpMetaMem,3.2.3,MacIntel,60
,,,,,,,,,,,,,,,,,,,,7,0.970000267,7,1.011000156,1,0,1200,224,1,1199,strengthen,11112,2019-10-21_17h08.30.181,SurveyExpMetaMem,3.2.3,MacIntel,60
,,,,,,,,,,,,,,,,,,,,7,3.093000174,2,0.578000069,1,0,1200,354,1,1199,cowardice,11112,2019-10-21_17h08.30.181,SurveyExpMetaMem,3.2.3,MacIntel,60
,,,,,,,,,,,,,,,,,,,,7,1.821000099,2,0.671000004,1,0,1200,327,1,1199,misfortune,11112,2019-10-21_17h08.30.181,SurveyExpMetaMem,3.2.3,MacIntel,60
,,,,,,,,,,,,,,,,,,,,7,1.696000099,2,0.671000004,1,0,1200,981,1,1199,rage,11112,2019-10-21_17h08.30.181,SurveyExpMetaMem,3.2.3,MacIntel,60
,,,,,,,,,,,,,,,,,,,,2,2.738000154,7,0.662000179,1,0,1200,993,1,1199,remorse,11112,2019-10-21_17h08.30.181,SurveyExpMetaMem,3.2.3,MacIntel,60
,,,,,,,,,,,,,,,,,,,,5,1.87100029,5,0.802999973,1,0,1200,1060,1,1199,dent,11112,2019-10-21_17h08.30.181,SurveyExpMetaMem,3.2.3,MacIntel,60
,,,,,,,,,,,,,,,,,,,,7,2.478000164,2,0.429000139,1,0,1200,1103,1,1199,mob,11112,2019-10-21_17h08.30.181,SurveyExpMetaMem,3.2.3,MacIntel,60
,,,,,,,,,,,,,,,,,,,,2,2.512000084,3,0.729000092,1,0,1200,1013,1,1199,guilty,11112,2019-10-21_17h08.30.181,SurveyExpMetaMem,3.2.3,MacIntel,60
,,,,,,,,,,,,,,,,,,,,7,1.255000114,7,0.371999979,1,0,1200,117,1,1199,powerful,11112,2019-10-21_17h08.30.181,SurveyExpMetaMem,3.2.3,MacIntel,60
,,,,,,,,,,,,,,,,,,,,2,2.203000069,5,1.19900012,1,0,1200,672,1,1199,ketchup,11112,2019-10-21_17h08.30.181,SurveyExpMetaMem,3.2.3,MacIntel,60
,,,,,,,,,,,,,,,,,,,,5,4.855000019,5,0.319000006,1,0,1200,612,1,1199,propeller,11112,2019-10-21_17h08.30.181,SurveyExpMetaMem,3.2.3,MacIntel,60
,,,,,,,,,,,,,,,,,,,,5,0.562000036,5,0.322999954,1,0,1200,136,1,1199,dog,11112,2019-10-21_17h08.30.181,SurveyExpMetaMem,3.2.3,MacIntel,60
,,,,,,,,,,,,,,,,,,,,5,0.453000307,5,0.322000265,1,0,1200,479,1,1199,period,11112,2019-10-21_17h08.30.181,SurveyExpMetaMem,3.2.3,MacIntel,60
,,,,,,,,,,,,,,,,,,,,5,1.790999889,5,0.296000004,1,0,1200,72,1,1199,attract,11112,2019-10-21_17h08.30.181,SurveyExpMetaMem,3.2.3,MacIntel,60
,,,,,,,,,,,,,,,,,,,,5,0.854000092,5,0.312999964,1,0,1200,633,1,1199,cattle,11112,2019-10-21_17h08.30.181,SurveyExpMetaMem,3.2.3,MacIntel,60
,,,,,,,,,,,,,,,,,,,,5,0.799000025,5,0.403000116,1,0,1200,786,1,1199,afternoon,11112,2019-10-21_17h08.30.181,SurveyExpMetaMem,3.2.3,MacIntel,60
,,,,,,,,,,,,,,,,,,,,8,2.321000099,2,0.339000225,1,0,1200,1159,1,1199,rifle,11112,2019-10-21_17h08.30.181,SurveyExpMetaMem,3.2.3,MacIntel,60
,,,,,,,,,,,,,,,,,,,,5,6.980000019,5,0.337000132,1,0,1200,89,1,1199,cruiseship,11112,2019-10-21_17h08.30.181,SurveyExpMetaMem,3.2.3,MacIntel,60
,,,,,,,,,,,,,,,,,,,,5,1.705000162,5,0.387000084,1,0,1200,481,1,1199,melancholy,11112,2019-10-21_17h08.30.181,SurveyExpMetaMem,3.2.3,MacIntel,60
,,,,,,,,,,,,,,,,,,,,8,1.947000027,8,0.386000156,1,0,1200,69,1,1199,special,11112,2019-10-21_17h08.30.181,SurveyExpMetaMem,3.2.3,MacIntel,60
,,,,,,,,,,,,,,,,,,,,8,2.322000027,2,0.515000105,1,0,1200,1087,1,1199,affair,11112,2019-10-21_17h08.30.181,SurveyExpMetaMem,3.2.3,MacIntel,60
,,,,,,,,,,,,,,,,,,,,8,1.045000315,8,0.825000048,1,0,1200,275,1,1199,brilliant,11112,2019-10-21_17h08.30.181,SurveyExpMetaMem,3.2.3,MacIntel,60
,,,,,,,,,,,,,,,,,,,,8,1.514000177,8,0.656000137,1,0,1200,181,1,1199,fascinate,11112,2019-10-21_17h08.30.181,SurveyExpMetaMem,3.2.3,MacIntel,60
,,,,,,,,,,,,,,,,,,,,8,0.930000067,2,0.554000139,1,0,1200,949,1,1199,thief,11112,2019-10-21_17h08.30.181,SurveyExpMetaMem,3.2.3,MacIntel,60
,,,,,,,,,,,,,,,,,,,,5,1.461000204,5,0.58100009,1,0,1200,107,1,1199,sandwich,11112,2019-10-21_17h08.30.181,SurveyExpMetaMem,3.2.3,MacIntel,60
,,,,,,,,,,,,,,,,,,,,5,0.859999895,5,0.570000172,1,0,1200,607,1,1199,greyhound,11112,2019-10-21_17h08.30.181,SurveyExpMetaMem,3.2.3,MacIntel,60
,,,,,,,,,,,,,,,,,,,,8,1.124000311,8,0.45600009,1,0,1200,105,1,1199,curious,11112,2019-10-21_17h08.30.181,SurveyExpMetaMem,3.2.3,MacIntel,60
,,,,,,,,,,,,,,,,,,,,8,1.165999889,3,0.562000275,1,0,1200,1143,1,1199,arrogant,11112,2019-10-21_17h08.30.181,SurveyExpMetaMem,3.2.3,MacIntel,60
,,,,,,,,,,,,,,,,,,,,7,3.111000061,2,0.854000092,1,0,1200,419,1,1199,immature,11112,2019-10-21_17h08.30.181,SurveyExpMetaMem,3.2.3,MacIntel,60
,,,,,,,,,,,,,,,,,,,,8,2.094000101,2,0.345000029,1,0,1200,927,1,1199,jail,11112,2019-10-21_17h08.30.181,SurveyExpMetaMem,3.2.3,MacIntel,60
,,,,,,,,,,,,,,,,,,,,5,1.095999956,5,0.588999987,1,0,1200,602,1,1199,vegetable,11112,2019-10-21_17h08.30.181,SurveyExpMetaMem,3.2.3,MacIntel,60
,,,,,,,,,,,,,,,,,,,,8,1.158000231,7,0.769000053,1,0,1200,109,1,1199,new,11112,2019-10-21_17h08.30.181,SurveyExpMetaMem,3.2.3,MacIntel,60
,,,,,,,,,,,,,,,,,,,,8,2.361999989,8,0.409000158,1,0,1200,226,1,1199,prize,11112,2019-10-21_17h08.30.181,SurveyExpMetaMem,3.2.3,MacIntel,60
,,,,,,,,,,,,,,,,,,,,5,1.563999891,5,0.538000107,1,0,1200,744,1,1199,village,11112,2019-10-21_17h08.30.181,SurveyExpMetaMem,3.2.3,MacIntel,60
,,,,,,,,,,,,,,,,,,,,8,1.328000069,2,0.980000257,1,0,1200,328,1,1199,disgrace,11112,2019-10-21_17h08.30.181,SurveyExpMetaMem,3.2.3,MacIntel,60
,,,,,,,,,,,,,,,,,,,,8,1.545000315,8,0.480000257,1,0,1200,703,1,1199,book,11112,2019-10-21_17h08.30.181,SurveyExpMetaMem,3.2.3,MacIntel,60
,,,,,,,,,,,,,,,,,,,,5,1.687999964,5,0.561000109,1,0,1200,716,1,1199,blouse,11112,2019-10-21_17h08.30.181,SurveyExpMetaMem,3.2.3,MacIntel,60
,,,,,,,,,,,,,,,,,,,,8,1.019000053,2,0.416000128,1,0,1200,1061,1,1199,difficult,11112,2019-10-21_17h08.30.181,SurveyExpMetaMem,3.2.3,MacIntel,60
,,,,,,,,,,,,,,,,,,,,3,3.212000132,8,0.821000099,1,0,1200,881,1,1199,protected,11112,2019-10-21_17h08.30.181,SurveyExpMetaMem,3.2.3,MacIntel,60
,,,,,,,,,,,,,,,,,,,,8,2.536000013,2,0.569000244,1,0,1200,389,1,1199,gloomy,11112,2019-10-21_17h08.30.181,SurveyExpMetaMem,3.2.3,MacIntel,60
,,,,,,,,,,,,,,,,,,,,5,1.162000179,5,0.539000034,1,0,1200,10,1,1199,cheerleader,11112,2019-10-21_17h08.30.181,SurveyExpMetaMem,3.2.3,MacIntel,60
,,,,,,,,,,,,,,,,,,,,8,1.473000288,2,0.632000208,1,0,1200,1054,1,1199,jealous,11112,2019-10-21_17h08.30.181,SurveyExpMetaMem,3.2.3,MacIntel,60
,,,,,,,,,,,,,,,,,,,,5,0.912000179,5,0.548000097,1,0,1200,646,1,1199,wear,11112,2019-10-21_17h08.30.181,SurveyExpMetaMem,3.2.3,MacIntel,60
,,,,,,,,,,,,,,,,,,,,5,0.844000101,5,0.704000235,1,0,1200,571,1,1199,marrow,11112,2019-10-21_17h08.30.181,SurveyExpMetaMem,3.2.3,MacIntel,60
,,,,,,,,,,,,,,,,,,,,5,2.036000252,5,0.503000259,1,0,1200,765,1,1199,candid,11112,2019-10-21_17h08.30.181,SurveyExpMetaMem,3.2.3,MacIntel,60
,,,,,,,,,,,,,,,,,,,,8,0.987999916,2,0.45600009,1,0,1200,285,1,1199,gold,11112,2019-10-21_17h08.30.181,SurveyExpMetaMem,3.2.3,MacIntel,60
,,,,,,,,,,,,,,,,,,,,8,1.662000179,2,0.58100009,1,0,1200,941,1,1199,leprosy,11112,2019-10-21_17h08.30.181,SurveyExpMetaMem,3.2.3,MacIntel,60
,,,,,,,,,,,,,,,,,,,,8,1.146000147,8,0.49000001,1,0,1200,27,1,1199,gourmet,11112,2019-10-21_17h08.30.181,SurveyExpMetaMem,3.2.3,MacIntel,60
,,,,,,,,,,,,,,,,,,,,8,0.979000092,2,0.490999937,1,0,1200,383,1,1199,messy,11112,2019-10-21_17h08.30.181,SurveyExpMetaMem,3.2.3,MacIntel,60
,,,,,,,,,,,,,,,,,,,,8,1.133000135,8,0.539000034,1,0,1200,22,1,1199,doughnut,11112,2019-10-21_17h08.30.181,SurveyExpMetaMem,3.2.3,MacIntel,60
,,,,,,,,,,,,,,,,,,,,5,1.511000156,5,0.431000233,1,0,1200,222,1,1199,waterskiing,11112,2019-10-21_17h08.30.181,SurveyExpMetaMem,3.2.3,MacIntel,60
,,,,,,,,,,,,,,,,,,,,5,1.925000191,5,0.47300005,1,0,1200,521,1,1199,laundry,11112,2019-10-21_17h08.30.181,SurveyExpMetaMem,3.2.3,MacIntel,60
,,,,,,,,,,,,,,,,,,,,5,4.146000147,5,0.436000109,1,0,1200,1156,1,1199,weapon,11112,2019-10-21_17h08.30.181,SurveyExpMetaMem,3.2.3,MacIntel,60
,,,,,,,,,,,,,,,,,,,,7,2.328999996,7,0.462000132,1,0,1200,37,1,1199,magnificence,11112,2019-10-21_17h08.30.181,SurveyExpMetaMem,3.2.3,MacIntel,60
,,,,,,,,,,,,,,,,,,,,7,2.021000147,3,0.477999926,1,0,1200,1138,1,1199,wail,11112,2019-10-21_17h08.30.181,SurveyExpMetaMem,3.2.3,MacIntel,60
,,,,,,,,,,,,,,,,,,,,8,1.078000069,2,0.758000135,1,0,1200,904,1,1199,murderer,11112,2019-10-21_17h08.30.181,SurveyExpMetaMem,3.2.3,MacIntel,60
,,,,,,,,,,,,,,,,,,,,5,2.798000097,5,0.522000074,1,0,1200,707,1,1199,adapt,11112,2019-10-21_17h08.30.181,SurveyExpMetaMem,3.2.3,MacIntel,60
,,,,,,,,,,,,,,,,,,,,8,1.521000147,2,0.536000013,1,0,1200,351,1,1199,germs,11112,2019-10-21_17h08.30.181,SurveyExpMetaMem,3.2.3,MacIntel,60
,,,,,,,,,,,,,,,,,,,,5,1.620000124,5,0.479000092,1,0,1200,140,1,1199,riches,11112,2019-10-21_17h08.30.181,SurveyExpMetaMem,3.2.3,MacIntel,60
,,,,,,,,,,,,,,,,,,,,7,1.444999933,3,0.416000128,1,0,1200,469,1,1199,resent,11112,2019-10-21_17h08.30.181,SurveyExpMetaMem,3.2.3,MacIntel,60
,,,,,,,,,,,,,,,,,,,,5,1.312000036,5,0.472000122,1,0,1200,449,1,1199,egotistical,11112,2019-10-21_17h08.30.181,SurveyExpMetaMem,3.2.3,MacIntel,60
,,,,,,,,,,,,,,,,,,,,8,1.207000256,8,0.391000271,1,0,1200,240,1,1199,giggles,11112,2019-10-21_17h08.30.181,SurveyExpMetaMem,3.2.3,MacIntel,60
,,,,,,,,,,,,,,,,,,,,5,1.171000004,5,0.388999939,1,0,1200,393,1,1199,droop,11112,2019-10-21_17h08.30.181,SurveyExpMetaMem,3.2.3,MacIntel,60
,,,,,,,,,,,,,,,,,,,,5,0.965000153,5,0.543000221,1,0,1200,623,1,1199,suburban,11112,2019-10-21_17h08.30.181,SurveyExpMetaMem,3.2.3,MacIntel,60
,,,,,,,,,,,,,,,,,,,,5,0.778000116,5,0.578000069,1,0,1200,657,1,1199,peanut,11112,2019-10-21_17h08.30.181,SurveyExpMetaMem,3.2.3,MacIntel,60
,,,,,,,,,,,,,,,,,,,,7,1.24000001,7,0.388000011,1,0,1200,876,1,1199,politeness,11112,2019-10-21_17h08.30.181,SurveyExpMetaMem,3.2.3,MacIntel,60
,,,,,,,,,,,,,,,,,,,,3,1.581000328,3,0.488000154,1,0,1200,862,1,1199,ease,11112,2019-10-21_17h08.30.181,SurveyExpMetaMem,3.2.3,MacIntel,60
,,,,,,,,,,,,,,,,,,,,7,1.374000072,7,0.446000099,1,0,1200,837,1,1199,responsible,11112,2019-10-21_17h08.30.181,SurveyExpMetaMem,3.2.3,MacIntel,60
,,,,,,,,,,,,,,,,,,,,5,1.154000044,5,0.486000061,1,0,1200,671,1,1199,windmill,11112,2019-10-21_17h08.30.181,SurveyExpMetaMem,3.2.3,MacIntel,60
,,,,,,,,,,,,,,,,,,,,7,1.244000196,7,0.438000202,1,0,1200,665,1,1199,read,11112,2019-10-21_17h08.30.181,SurveyExpMetaMem,3.2.3,MacIntel,60
,,,,,,,,,,,,,,,,,,,,5,0.821000099,5,0.511000156,1,0,1200,482,1,1199,cell,11112,2019-10-21_17h08.30.181,SurveyExpMetaMem,3.2.3,MacIntel,60
,,,,,,,,,,,,,,,,,,,,7,0.83100009,7,0.532000065,1,0,1200,230,1,1199,eager,11112,2019-10-21_17h08.30.181,SurveyExpMetaMem,3.2.3,MacIntel,60
,,,,,,,,,,,,,,,,,,,,3,0.970999956,3,0.554000139,1,0,1200,363,1,1199,dumb,11112,2019-10-21_17h08.30.181,SurveyExpMetaMem,3.2.3,MacIntel,60
,,,,,,,,,,,,,,,,,,,,7,1.055000067,7,0.596000195,1,0,1200,217,1,1199,bravery,11112,2019-10-21_17h08.30.181,SurveyExpMetaMem,3.2.3,MacIntel,60
,,,,,,,,,,,,,,,,,,,,5,3.972000122,5,0.45600009,1,0,1200,75,1,1199,actor,11112,2019-10-21_17h08.30.181,SurveyExpMetaMem,3.2.3,MacIntel,60
,,,,,,,,,,,,,,,,,,,,7,1.157999992,3,0.41899991,1,0,1200,374,1,1199,sluggish,11112,2019-10-21_17h08.30.181,SurveyExpMetaMem,3.2.3,MacIntel,60
,,,,,,,,,,,,,,,,,,,,5,1.595000267,5,0.522000074,1,0,1200,722,1,1199,consoled,11112,2019-10-21_17h08.30.181,SurveyExpMetaMem,3.2.3,MacIntel,60
,,,,,,,,,,,,,,,,,,,,5,0.636000156,5,0.546000004,1,0,1200,749,1,1199,glasses,11112,2019-10-21_17h08.30.181,SurveyExpMetaMem,3.2.3,MacIntel,60
,,,,,,,,,,,,,,,,,,,,5,0.562999964,5,0.529999971,1,0,1200,641,1,1199,writer,11112,2019-10-21_17h08.30.181,SurveyExpMetaMem,3.2.3,MacIntel,60
,,,,,,,,,,,,,,,,,,,,7,0.864000082,7,0.938000202,1,0,1200,870,1,1199,safe,11112,2019-10-21_17h08.30.181,SurveyExpMetaMem,3.2.3,MacIntel,60
,,,,,,,,,,,,,,,,,,,,3,2.697999954,5,1.243000031,1,0,1200,511,1,1199,slouch,11112,2019-10-21_17h08.30.181,SurveyExpMetaMem,3.2.3,MacIntel,60
,,,,,,,,,,,,,,,,,,,,7,1.470000029,8,1.17200017,1,0,1200,49,1,1199,ecstatic,11112,2019-10-21_17h08.30.181,SurveyExpMetaMem,3.2.3,MacIntel,60
,,,,,,,,,,,,,,,,,,,,8,1.277000189,3,0.589000225,1,0,1200,866,1,1199,haven,11112,2019-10-21_17h08.30.181,SurveyExpMetaMem,3.2.3,MacIntel,60
,,,,,,,,,,,,,,,,,,,,7,5.931000233,7,0.393000126,1,0,1200,833,1,1199,nice,11112,2019-10-21_17h08.30.181,SurveyExpMetaMem,3.2.3,MacIntel,60
,,,,,,,,,,,,,,,,,,,,7,1.097000122,7,0.379999876,1,0,1200,143,1,1199,weekend,11112,2019-10-21_17h08.30.181,SurveyExpMetaMem,3.2.3,MacIntel,60
,,,,,,,,,,,,,,,,,,,,7,1.287999868,3,0.419000149,1,0,1200,398,1,1199,handicapped,11112,2019-10-21_17h08.30.181,SurveyExpMetaMem,3.2.3,MacIntel,60
,,,,,,,,,,,,,,,,,,,,5,1.08100009,5,0.470999956,1,0,1200,444,1,1199,mold,11112,2019-10-21_17h08.30.181,SurveyExpMetaMem,3.2.3,MacIntel,60
,,,,,,,,,,,,,,,,,,,,7,2.35800004,7,0.453000069,1,0,1200,102,1,1199,motorcycle,11112,2019-10-21_17h08.30.181,SurveyExpMetaMem,3.2.3,MacIntel,60
,,,,,,,,,,,,,,,,,,,,7,2.162000179,5,1.107000113,1,0,1200,552,1,1199,shadow,11112,2019-10-21_17h08.30.181,SurveyExpMetaMem,3.2.3,MacIntel,60
,,,,,,,,,,,,,,,,,,,,5,3.321000099,7,0.838000059,1,0,1200,99,1,1199,funny,11112,2019-10-21_17h08.30.181,SurveyExpMetaMem,3.2.3,MacIntel,60
,,,,,,,,,,,,,,,,,,,,5,0.971000195,5,0.690000057,1,0,1200,659,1,1199,hair,11112,2019-10-21_17h08.30.181,SurveyExpMetaMem,3.2.3,MacIntel,60
,,,,,,,,,,,,,,,,,,,,7,1.887000084,8,0.505000114,1,0,1200,235,1,1199,cheery,11112,2019-10-21_17h08.30.181,SurveyExpMetaMem,3.2.3,MacIntel,60
,,,,,,,,,,,,,,,,,,,,8,2.171000004,5,1.335999966,1,0,1200,144,1,1199,aroused,11112,2019-10-21_17h08.30.181,SurveyExpMetaMem,3.2.3,MacIntel,60
,,,,,,,,,,,,,,,,,,,,5,7.0400002,7,0.539000034,1,0,1200,138,1,1199,blessings,11112,2019-10-21_17h08.30.181,SurveyExpMetaMem,3.2.3,MacIntel,60
,,,,,,,,,,,,,,,,,,,,8,1.270999908,2,0.679000139,1,0,1200,1024,1,1199,burn,11112,2019-10-21_17h08.30.181,SurveyExpMetaMem,3.2.3,MacIntel,60
,,,,,,,,,,,,,,,,,,,,5,1.613000154,5,0.681999922,1,0,1200,710,1,1199,gender,11112,2019-10-21_17h08.30.181,SurveyExpMetaMem,3.2.3,MacIntel,60
,,,,,,,,,,,,,,,,,,,,8,1.164999962,8,0.572000027,1,0,1200,221,1,1199,sparkle,11112,2019-10-21_17h08.30.181,SurveyExpMetaMem,3.2.3,MacIntel,60
,,,,,,,,,,,,,,,,,,,,8,1.571000099,2,0.688000202,1,0,1200,946,1,1199,amputate,11112,2019-10-21_17h08.30.181,SurveyExpMetaMem,3.2.3,MacIntel,60
,,,,,,,,,,,,,,,,,,,,8,1.012000084,2,0.70600009,1,0,1200,915,1,1199,abuse,11112,2019-10-21_17h08.30.181,SurveyExpMetaMem,3.2.3,MacIntel,60
,,,,,,,,,,,,,,,,,,,,5,0.799000025,5,0.637000084,1,0,1200,613,1,1199,cup,11112,2019-10-21_17h08.30.181,SurveyExpMetaMem,3.2.3,MacIntel,60
,,,,,,,,,,,,,,,,,,,,8,0.827000141,2,0.59800005,1,0,1200,936,1,1199,assault,11112,2019-10-21_17h08.30.181,SurveyExpMetaMem,3.2.3,MacIntel,60
,,,,,,,,,,,,,,,,,,,,8,0.865000248,2,0.664000034,1,0,1200,1000,1,1199,threat,11112,2019-10-21_17h08.30.181,SurveyExpMetaMem,3.2.3,MacIntel,60
,,,,,,,,,,,,,,,,,,,,5,1.621000051,5,0.583000183,1,0,1200,601,1,1199,roof,11112,2019-10-21_17h08.30.181,SurveyExpMetaMem,3.2.3,MacIntel,60
,,,,,,,,,,,,,,,,,,,,7,1.351999998,3,0.428000212,1,0,1200,1183,1,1199,emotional,11112,2019-10-21_17h08.30.181,SurveyExpMetaMem,3.2.3,MacIntel,60
,,,,,,,,,,,,,,,,,,,,8,1.654999971,8,0.35800004,1,0,1200,296,1,1199,awesome,11112,2019-10-21_17h08.30.181,SurveyExpMetaMem,3.2.3,MacIntel,60
,,,,,,,,,,,,,,,,,,,,8,1.22300005,2,0.806000233,1,0,1200,346,1,1199,alcoholism,11112,2019-10-21_17h08.30.181,SurveyExpMetaMem,3.2.3,MacIntel,60
,,,,,,,,,,,,,,,,,,,,5,1.086999893,5,0.582000017,1,0,1200,838,1,1199,nestle,11112,2019-10-21_17h08.30.181,SurveyExpMetaMem,3.2.3,MacIntel,60
,,,,,,,,,,,,,,,,,,,,8,2.463000298,2,0.595000029,1,0,1200,1121,1,1199,ban,11112,2019-10-21_17h08.30.181,SurveyExpMetaMem,3.2.3,MacIntel,60
,,,,,,,,,,,,,,,,,,,,8,1.611999989,8,0.84800005,1,0,1200,199,1,1199,laughter,11112,2019-10-21_17h08.30.181,SurveyExpMetaMem,3.2.3,MacIntel,60
,,,,,,,,,,,,,,,,,,,,8,0.88800025,2,0.504000187,1,0,1200,910,1,1199,abusive,11112,2019-10-21_17h08.30.181,SurveyExpMetaMem,3.2.3,MacIntel,60
,,,,,,,,,,,,,,,,,,,,8,1.437999964,2,0.503000021,1,0,1200,1033,1,1199,horror,11112,2019-10-21_17h08.30.181,SurveyExpMetaMem,3.2.3,MacIntel,60
,,,,,,,,,,,,,,,,,,,,5,1.654000044,5,0.548000097,1,0,1200,694,1,1199,pecan,11112,2019-10-21_17h08.30.181,SurveyExpMetaMem,3.2.3,MacIntel,60
,,,,,,,,,,,,,,,,,,,,7,1.72300005,7,0.522000074,1,0,1200,132,1,1199,silly,11112,2019-10-21_17h08.30.181,SurveyExpMetaMem,3.2.3,MacIntel,60
,,,,,,,,,,,,,,,,,,,,5,1.004000187,5,0.595000029,1,0,1200,879,1,1199,bird,11112,2019-10-21_17h08.30.181,SurveyExpMetaMem,3.2.3,MacIntel,60
,,,,,,,,,,,,,,,,,,,,5,0.815000057,5,0.722000122,1,0,1200,598,1,1199,feet,11112,2019-10-21_17h08.30.181,SurveyExpMetaMem,3.2.3,MacIntel,60
,,,,,,,,,,,,,,,,,,,,8,1.453000069,2,0.613000154,1,0,1200,1149,1,1199,fight,11112,2019-10-21_17h08.30.181,SurveyExpMetaMem,3.2.3,MacIntel,60
,,,,,,,,,,,,,,,,,,,,5,1.33100009,5,0.605000019,1,0,1200,2,1,1199,zealous,11112,2019-10-21_17h08.30.181,SurveyExpMetaMem,3.2.3,MacIntel,60
,,,,,,,,,,,,,,,,,,,,5,2.063000202,5,0.486999989,1,0,1200,790,1,1199,binoculars,11112,2019-10-21_17h08.30.181,SurveyExpMetaMem,3.2.3,MacIntel,60
,,,,,,,,,,,,,,,,,,,,7,1.453000069,7,0.411000252,1,0,1200,192,1,1199,pleased,11112,2019-10-21_17h08.30.181,SurveyExpMetaMem,3.2.3,MacIntel,60
,,,,,,,,,,,,,,,,,,,,5,1.430000067,5,0.53000021,1,0,1200,673,1,1199,bedspread,11112,2019-10-21_17h08.30.181,SurveyExpMetaMem,3.2.3,MacIntel,60
,,,,,,,,,,,,,,,,,,,,2,1.894000053,7,0.649000168,1,0,1200,753,1,1199,patience,11112,2019-10-21_17h08.30.181,SurveyExpMetaMem,3.2.3,MacIntel,60
,,,,,,,,,,,,,,,,,,,,7,1.736999989,7,0.516000271,1,0,1200,757,1,1199,sentiment,11112,2019-10-21_17h08.30.181,SurveyExpMetaMem,3.2.3,MacIntel,60
,,,,,,,,,,,,,,,,,,,,5,1.504999876,5,0.572000265,1,0,1200,892,1,1199,untroubled,11112,2019-10-21_17h08.30.181,SurveyExpMetaMem,3.2.3,MacIntel,60
,,,,,,,,,,,,,,,,,,,,5,0.703000069,5,0.749000072,1,0,1200,278,1,1199,king,11112,2019-10-21_17h08.30.181,SurveyExpMetaMem,3.2.3,MacIntel,60
,,,,,,,,,,,,,,,,,,,,5,0.888000011,5,0.757999897,1,0,1200,174,1,1199,snow,11112,2019-10-21_17h08.30.181,SurveyExpMetaMem,3.2.3,MacIntel,60
,,,,,,,,,,,,,,,,,,,,5,1.452000141,5,0.578000069,1,0,1200,1111,1,1199,bruise,11112,2019-10-21_17h08.30.181,SurveyExpMetaMem,3.2.3,MacIntel,60
,,,,,,,,,,,,,,,,,,,,5,0.680999994,5,0.513000011,1,0,1200,176,1,1199,champ,11112,2019-10-21_17h08.30.181,SurveyExpMetaMem,3.2.3,MacIntel,60
,,,,,,,,,,,,,,,,,,,,7,1.004000187,7,0.436000109,1,0,1200,43,1,1199,diamond,11112,2019-10-21_17h08.30.181,SurveyExpMetaMem,3.2.3,MacIntel,60
,,,,,,,,,,,,,,,,,,,,5,1.811000109,5,0.463000298,1,0,1200,504,1,1199,cane,11112,2019-10-21_17h08.30.181,SurveyExpMetaMem,3.2.3,MacIntel,60
,,,,,,,,,,,,,,,,,,,,5,3.397000074,5,0.457000017,1,0,1200,1179,1,1199,nerves,11112,2019-10-21_17h08.30.181,SurveyExpMetaMem,3.2.3,MacIntel,60
,,,,,,,,,,,,,,,,,,,,7,1.572000265,3,0.74000001,1,0,1200,1120,1,1199,gun,11112,2019-10-21_17h08.30.181,SurveyExpMetaMem,3.2.3,MacIntel,60
,,,,,,,,,,,,,,,,,,,,8,1.453999996,8,0.372000217,1,0,1200,256,1,1199,galaxy,11112,2019-10-21_17h08.30.181,SurveyExpMetaMem,3.2.3,MacIntel,60
,,,,,,,,,,,,,,,,,,,,8,0.987000227,7,1.056000233,1,0,1200,57,1,1199,important,11112,2019-10-21_17h08.30.181,SurveyExpMetaMem,3.2.3,MacIntel,60
,,,,,,,,,,,,,,,,,,,,8,2.530999899,7,1.588000059,1,0,1200,212,1,1199,belief,11112,2019-10-21_17h08.30.181,SurveyExpMetaMem,3.2.3,MacIntel,60
,,,,,,,,,,,,,,,,,,,,5,2.87100029,3,0.71600008,1,0,1200,1079,1,1199,critic,11112,2019-10-21_17h08.30.181,SurveyExpMetaMem,3.2.3,MacIntel,60
,,,,,,,,,,,,,,,,,,,,5,2.161000013,7,0.925000191,1,0,1200,886,1,1199,sunflower,11112,2019-10-21_17h08.30.181,SurveyExpMetaMem,3.2.3,MacIntel,60
,,,,,,,,,,,,,,,,,,,,7,5.661000252,3,0.558000088,1,0,1200,343,1,1199,fever,11112,2019-10-21_17h08.30.181,SurveyExpMetaMem,3.2.3,MacIntel,60
,,,,,,,,,,,,,,,,,,,,7,1.572000265,3,0.465000153,1,0,1200,319,1,1199,malaria,11112,2019-10-21_17h08.30.181,SurveyExpMetaMem,3.2.3,MacIntel,60
,,,,,,,,,,,,,,,,,,,,5,1.178000212,5,0.555000067,1,0,1200,395,1,1199,lack,11112,2019-10-21_17h08.30.181,SurveyExpMetaMem,3.2.3,MacIntel,60
,,,,,,,,,,,,,,,,,,,,5,0.812000036,5,0.572000027,1,0,1200,299,1,1199,champion,11112,2019-10-21_17h08.30.181,SurveyExpMetaMem,3.2.3,MacIntel,60
,,,,,,,,,,,,,,,,,,,,5,0.74000001,5,0.605000257,1,0,1200,60,1,1199,bikini,11112,2019-10-21_17h08.30.181,SurveyExpMetaMem,3.2.3,MacIntel,60
,,,,,,,,,,,,,,,,,,,,5,0.712000132,5,0.629000187,1,0,1200,106,1,1199,voyage,11112,2019-10-21_17h08.30.181,SurveyExpMetaMem,3.2.3,MacIntel,60
,,,,,,,,,,,,,,,,,,,,5,0.870000124,5,0.555999994,1,0,1200,606,1,1199,easel,11112,2019-10-21_17h08.30.181,SurveyExpMetaMem,3.2.3,MacIntel,60
,,,,,,,,,,,,,,,,,,,,7,1.244000196,3,0.529000044,1,0,1200,926,1,1199,dead,11112,2019-10-21_17h08.30.181,SurveyExpMetaMem,3.2.3,MacIntel,60
,,,,,,,,,,,,,,,,,,,,5,2.394000292,5,0.562000275,1,0,1200,156,1,1199,gym,11112,2019-10-21_17h08.30.181,SurveyExpMetaMem,3.2.3,MacIntel,60
,,,,,,,,,,,,,,,,,,,,5,0.805000067,5,0.540999889,1,0,1200,1136,1,1199,appall,11112,2019-10-21_17h08.30.181,SurveyExpMetaMem,3.2.3,MacIntel,60
,,,,,,,,,,,,,,,,,,,,5,0.74000001,5,0.595000029,1,0,1200,18,1,1199,mail,11112,2019-10-21_17h08.30.181,SurveyExpMetaMem,3.2.3,MacIntel,60
,,,,,,,,,,,,,,,,,,,,5,0.695000172,5,0.570000172,1,0,1200,777,1,1199,casual,11112,2019-10-21_17h08.30.181,SurveyExpMetaMem,3.2.3,MacIntel,60
,,,,,,,,,,,,,,,,,,,,8,1.428000212,2,0.453000069,1,0,1200,908,1,1199,suffer,11112,2019-10-21_17h08.30.181,SurveyExpMetaMem,3.2.3,MacIntel,60
,,,,,,,,,,,,,,,,,,,,8,1.43900013,5,1.111000061,1,0,1200,578,1,1199,govern,11112,2019-10-21_17h08.30.181,SurveyExpMetaMem,3.2.3,MacIntel,60
,,,,,,,,,,,,,,,,,,,,7,1.605000257,3,0.57400012,1,0,1200,364,1,1199,stink,11112,2019-10-21_17h08.30.181,SurveyExpMetaMem,3.2.3,MacIntel,60
,,,,,,,,,,,,,,,,,,,,7,1.620000124,3,0.561000109,1,0,1200,376,1,1199,incompetent,11112,2019-10-21_17h08.30.181,SurveyExpMetaMem,3.2.3,MacIntel,60
,,,,,,,,,,,,,,,,,,,,7,2.016000032,6,0.903000116,1,0,1200,108,1,1199,naked,11112,2019-10-21_17h08.30.181,SurveyExpMetaMem,3.2.3,MacIntel,60
,,,,,,,,,,,,,,,,,,,,3,3.272000074,6,0.911000252,1,0,1200,546,1,1199,solemn,11112,2019-10-21_17h08.30.181,SurveyExpMetaMem,3.2.3,MacIntel,60
,,,,,,,,,,,,,,,,,,,,6,2.177000046,6,0.480999947,1,0,1200,519,1,1199,listless,11112,2019-10-21_17h08.30.181,SurveyExpMetaMem,3.2.3,MacIntel,60
,,,,,,,,,,,,,,,,,,,,7,1.746999979,7,0.470999956,1,0,1200,26,1,1199,inspired,11112,2019-10-21_17h08.30.181,SurveyExpMetaMem,3.2.3,MacIntel,60
,,,,,,,,,,,,,,,,,,,,7,1.571000099,3,0.511000156,1,0,1200,1006,1,1199,rash,11112,2019-10-21_17h08.30.181,SurveyExpMetaMem,3.2.3,MacIntel,60
,,,,,,,,,,,,,,,,,,,,7,2.639000177,3,1.174999952,1,0,1200,996,1,1199,sting,11112,2019-10-21_17h08.30.181,SurveyExpMetaMem,3.2.3,MacIntel,60
,,,,,,,,,,,,,,,,,,,,7,0.904999971,7,0.605000019,1,0,1200,196,1,1199,smile,11112,2019-10-21_17h08.30.181,SurveyExpMetaMem,3.2.3,MacIntel,60
,,,,,,,,,,,,,,,,,,,,7,0.405999899,7,0.072000265,1,0,1200,1041,1,1199,sin,11112,2019-10-21_17h08.30.181,SurveyExpMetaMem,3.2.3,MacIntel,60
,,,,,,,,,,,,,,,,,,,,7,3.191999912,2,0.478000164,1,0,1200,326,1,1199,scam,11112,2019-10-21_17h08.30.181,SurveyExpMetaMem,3.2.3,MacIntel,60
,,,,,,,,,,,,,,,,,,,,3,2.019999981,6,0.878000021,1,0,1200,409,1,1199,old,11112,2019-10-21_17h08.30.181,SurveyExpMetaMem,3.2.3,MacIntel,60
,,,,,,,,,,,,,,,,,,,,7,1.88800025,3,1.788000107,1,0,1200,1163,1,1199,python,11112,2019-10-21_17h08.30.181,SurveyExpMetaMem,3.2.3,MacIntel,60
,,,,,,,,,,,,,,,,,,,,5,5.49600029,5,0.512000084,1,0,1200,737,1,1199,lamb,11112,2019-10-21_17h08.30.181,SurveyExpMetaMem,3.2.3,MacIntel,60
,,,,,,,,,,,,,,,,,,,,5,1.128000021,5,0.479000092,1,0,1200,273,1,1199,worthwhile,11112,2019-10-21_17h08.30.181,SurveyExpMetaMem,3.2.3,MacIntel,60
,,,,,,,,,,,,,,,,,,,,7,1.521000147,3,0.380000114,1,0,1200,543,1,1199,gloat,11112,2019-10-21_17h08.30.181,SurveyExpMetaMem,3.2.3,MacIntel,60
,,,,,,,,,,,,,,,,,,,,7,0.757000208,3,0.470999956,1,0,1200,1019,1,1199,fraud,11112,2019-10-21_17h08.30.181,SurveyExpMetaMem,3.2.3,MacIntel,60
,,,,,,,,,,,,,,,,,,,,7,1.374000072,7,0.361000061,1,0,1200,832,1,1199,candy,11112,2019-10-21_17h08.30.181,SurveyExpMetaMem,3.2.3,MacIntel,60
,,,,,,,,,,,,,,,,,,,,6,3.345000029,5,0.957000256,1,0,1200,66,1,1199,zest,11112,2019-10-21_17h08.30.181,SurveyExpMetaMem,3.2.3,MacIntel,60
,,,,,,,,,,,,,,,,,,,,5,2.374000072,5,1.005000114,1,0,1200,1077,1,1199,unsure,11112,2019-10-21_17h08.30.181,SurveyExpMetaMem,3.2.3,MacIntel,60
,,,,,,,,,,,,,,,,,,,,7,2.765000105,3,0.396000147,1,0,1200,1002,1,1199,wounds,11112,2019-10-21_17h08.30.181,SurveyExpMetaMem,3.2.3,MacIntel,60
,,,,,,,,,,,,,,,,,,,,5,0.904999971,5,0.465000153,1,0,1200,785,1,1199,pond,11112,2019-10-21_17h08.30.181,SurveyExpMetaMem,3.2.3,MacIntel,60
,,,,,,,,,,,,,,,,,,,,7,1.40500021,3,0.397000074,1,0,1200,1086,1,1199,irritate,11112,2019-10-21_17h08.30.181,SurveyExpMetaMem,3.2.3,MacIntel,60
,,,,,,,,,,,,,,,,,,,,5,0.999000072,5,0.412000179,1,0,1200,210,1,1199,elephant,11112,2019-10-21_17h08.30.181,SurveyExpMetaMem,3.2.3,MacIntel,60
,,,,,,,,,,,,,,,,,,,,5,1.271000147,5,0.447000265,1,0,1200,522,1,1199,cleft,11112,2019-10-21_17h08.30.181,SurveyExpMetaMem,3.2.3,MacIntel,60
,,,,,,,,,,,,,,,,,,,,3,1.269000292,5,0.565000296,1,0,1200,897,1,1199,peaceful,11112,2019-10-21_17h08.30.181,SurveyExpMetaMem,3.2.3,MacIntel,60
,,,,,,,,,,,,,,,,,,,,7,2.829999924,3,0.769999981,1,0,1200,1123,1,1199,haunt,11112,2019-10-21_17h08.30.181,SurveyExpMetaMem,3.2.3,MacIntel,60
,,,,,,,,,,,,,,,,,,,,5,0.822000265,5,0.595000029,1,0,1200,524,1,1199,sigh,11112,2019-10-21_17h08.30.181,SurveyExpMetaMem,3.2.3,MacIntel,60
,,,,,,,,,,,,,,,,,,,,5,1.728000164,5,1.061000109,1,0,1200,112,1,1199,jaguar,11112,2019-10-21_17h08.30.181,SurveyExpMetaMem,3.2.3,MacIntel,60
,,,,,,,,,,,,,,,,,,,,7,1.087000132,3,0.655999899,1,0,1200,1175,1,1199,prostitute,11112,2019-10-21_17h08.30.181,SurveyExpMetaMem,3.2.3,MacIntel,60
,,,,,,,,,,,,,,,,,,,,5,5.626000166,2,1.031000137,1,0,1200,925,1,1199,disloyal,11112,2019-10-21_17h08.30.181,SurveyExpMetaMem,3.2.3,MacIntel,60
,,,,,,,,,,,,,,,,,,,,5,1.804000139,2,0.778000116,1,0,1200,360,1,1199,dandruff,11112,2019-10-21_17h08.30.181,SurveyExpMetaMem,3.2.3,MacIntel,60
,,,,,,,,,,,,,,,,,,,,2,2.811000109,7,0.758000135,1,0,1200,860,1,1199,silk,11112,2019-10-21_17h08.30.181,SurveyExpMetaMem,3.2.3,MacIntel,60
,,,,,,,,,,,,,,,,,,,,5,2.338000059,7,0.872000217,1,0,1200,586,1,1199,cab,11112,2019-10-21_17h08.30.181,SurveyExpMetaMem,3.2.3,MacIntel,60
,,,,,,,,,,,,,,,,,,,,8,1.444000244,2,0.605000019,1,0,1200,1105,1,1199,flee,11112,2019-10-21_17h08.30.181,SurveyExpMetaMem,3.2.3,MacIntel,60
,,,,,,,,,,,,,,,,,,,,5,1.996000051,5,0.529000044,1,0,1200,569,1,1199,onion,11112,2019-10-21_17h08.30.181,SurveyExpMetaMem,3.2.3,MacIntel,60
,,,,,,,,,,,,,,,,,,,,8,1.403000116,8,0.488000154,1,0,1200,233,1,1199,exhilaration,11112,2019-10-21_17h08.30.181,SurveyExpMetaMem,3.2.3,MacIntel,60
,,,,,,,,,,,,,,,,,,,,5,1.463999987,7,0.755000114,1,0,1200,772,1,1199,ornament,11112,2019-10-21_17h08.30.181,SurveyExpMetaMem,3.2.3,MacIntel,60
,,,,,,,,,,,,,,,,,,,,5,1.07400012,5,0.59800005,1,0,1200,942,1,1199,aggravation,11112,2019-10-21_17h08.30.181,SurveyExpMetaMem,3.2.3,MacIntel,60
,,,,,,,,,,,,,,,,,,,,3,2.62100029,5,0.515000105,1,0,1200,487,1,1199,junk,11112,2019-10-21_17h08.30.181,SurveyExpMetaMem,3.2.3,MacIntel,60
,,,,,,,,,,,,,,,,,,,,7,1.361999989,7,1.162000179,1,0,1200,92,1,1199,justice,11112,2019-10-21_17h08.30.181,SurveyExpMetaMem,3.2.3,MacIntel,60
,,,,,,,,,,,,,,,,,,,,5,1.580000162,5,0.887000084,1,0,1200,565,1,1199,frozen,11112,2019-10-21_17h08.30.181,SurveyExpMetaMem,3.2.3,MacIntel,60
,,,,,,,,,,,,,,,,,,,,5,0.937000036,5,0.677999973,1,0,1200,700,1,1199,frog,11112,2019-10-21_17h08.30.181,SurveyExpMetaMem,3.2.3,MacIntel,60
,,,,,,,,,,,,,,,,,,,,7,2.011000156,7,0.627000093,1,0,1200,781,1,1199,emerald,11112,2019-10-21_17h08.30.181,SurveyExpMetaMem,3.2.3,MacIntel,60
,,,,,,,,,,,,,,,,,,,,7,1.605999947,3,0.522000074,1,0,1200,919,1,1199,loss,11112,2019-10-21_17h08.30.181,SurveyExpMetaMem,3.2.3,MacIntel,60
,,,,,,,,,,,,,,,,,,,,8,1.513000011,8,0.894000053,1,0,1200,39,1,1199,birth,11112,2019-10-21_17h08.30.181,SurveyExpMetaMem,3.2.3,MacIntel,60
,,,,,,,,,,,,,,,,,,,,3,2.320000172,5,0.503000259,1,0,1200,1106,1,1199,pushy,11112,2019-10-21_17h08.30.181,SurveyExpMetaMem,3.2.3,MacIntel,60
,,,,,,,,,,,,,,,,,,,,7,1.845999956,7,1.115999937,1,0,1200,185,1,1199,flirt,11112,2019-10-21_17h08.30.181,SurveyExpMetaMem,3.2.3,MacIntel,60
,,,,,,,,,,,,,,,,,,,,7,1.405999899,4,1.755000114,1,0,1200,1110,1,1199,bastard,11112,2019-10-21_17h08.30.181,SurveyExpMetaMem,3.2.3,MacIntel,60
,,,,,,,,,,,,,,,,,,,,5,2.490000248,5,0.522000074,1,0,1200,1064,1,1199,sinful,11112,2019-10-21_17h08.30.181,SurveyExpMetaMem,3.2.3,MacIntel,60
,,,,,,,,,,,,,,,,,,,,7,0.978000164,3,0.59100008,1,0,1200,920,1,1199,hurt,11112,2019-10-21_17h08.30.181,SurveyExpMetaMem,3.2.3,MacIntel,60
,,,,,,,,,,,,,,,,,,,,7,1.279999971,3,0.611000061,1,0,1200,1001,1,1199,rude,11112,2019-10-21_17h08.30.181,SurveyExpMetaMem,3.2.3,MacIntel,60
,,,,,,,,,,,,,,,,,,,,3,3.96600008,3,2.301000118,1,0,1200,315,1,1199,zit,11112,2019-10-21_17h08.30.181,SurveyExpMetaMem,3.2.3,MacIntel,60
,,,,,,,,,,,,,,,,,,,,7,1.869000196,3,0.396000147,1,0,1200,335,1,1199,decay,11112,2019-10-21_17h08.30.181,SurveyExpMetaMem,3.2.3,MacIntel,60
,,,,,,,,,,,,,,,,,,,,5,1.421000004,5,0.536000013,1,0,1200,721,1,1199,contemporary,11112,2019-10-21_17h08.30.181,SurveyExpMetaMem,3.2.3,MacIntel,60
,,,,,,,,,,,,,,,,,,,,7,2.621000051,3,0.428999901,1,0,1200,963,1,1199,dreadful,11112,2019-10-21_17h08.30.181,SurveyExpMetaMem,3.2.3,MacIntel,60
,,,,,,,,,,,,,,,,,,,,7,1.071000099,7,0.421000004,1,0,1200,68,1,1199,perfect,11112,2019-10-21_17h08.30.181,SurveyExpMetaMem,3.2.3,MacIntel,60
,,,,,,,,,,,,,,,,,,,,3,2.434000015,5,0.994000196,1,0,1200,664,1,1199,quiet,11112,2019-10-21_17h08.30.181,SurveyExpMetaMem,3.2.3,MacIntel,60
,,,,,,,,,,,,,,,,,,,,5,1.286000252,5,0.602999926,1,0,1200,478,1,1199,numb,11112,2019-10-21_17h08.30.181,SurveyExpMetaMem,3.2.3,MacIntel,60
,,,,,,,,,,,,,,,,,,,,3,3.954000235,5,0.604000092,1,0,1200,704,1,1199,flute,11112,2019-10-21_17h08.30.181,SurveyExpMetaMem,3.2.3,MacIntel,60
,,,,,,,,,,,,,,,,,,,,5,2.421000242,5,0.605000257,1,0,1200,1008,1,1199,gang,11112,2019-10-21_17h08.30.181,SurveyExpMetaMem,3.2.3,MacIntel,60
,,,,,,,,,,,,,,,,,,,,7,1.194000006,3,0.594000101,1,0,1200,1043,1,1199,scold,11112,2019-10-21_17h08.30.181,SurveyExpMetaMem,3.2.3,MacIntel,60
,,,,,,,,,,,,,,,,,,,,7,1.028000116,3,0.623000145,1,0,1200,1107,1,1199,snake,11112,2019-10-21_17h08.30.181,SurveyExpMetaMem,3.2.3,MacIntel,60
,,,,,,,,,,,,,,,,,,,,5,1.970999956,5,0.545000076,1,0,1200,451,1,1199,lame,11112,2019-10-21_17h08.30.181,SurveyExpMetaMem,3.2.3,MacIntel,60
,,,,,,,,,,,,,,,,,,,,5,0.710999966,5,0.604000092,1,0,1200,784,1,1199,logical,11112,2019-10-21_17h08.30.181,SurveyExpMetaMem,3.2.3,MacIntel,60
,,,,,,,,,,,,,,,,,,,,5,0.764000177,5,0.539000034,1,0,1200,726,1,1199,crackers,11112,2019-10-21_17h08.30.181,SurveyExpMetaMem,3.2.3,MacIntel,60
,,,,,,,,,,,,,,,,,,,,7,1.654000044,7,4.338999987,1,0,1200,283,1,1199,elated,11112,2019-10-21_17h08.30.181,SurveyExpMetaMem,3.2.3,MacIntel,60
,,,,,,,,,,,,,,,,,,,,7,1.686000109,7,0.378999949,1,0,1200,190,1,1199,rescue,11112,2019-10-21_17h08.30.181,SurveyExpMetaMem,3.2.3,MacIntel,60
,,,,,,,,,,,,,,,,,,,,7,1.896000147,7,0.677999973,1,0,1200,153,1,1199,teach,11112,2019-10-21_17h08.30.181,SurveyExpMetaMem,3.2.3,MacIntel,60
,,,,,,,,,,,,,,,,,,,,5,1.303999901,5,0.480000019,1,0,1200,778,1,1199,adorn,11112,2019-10-21_17h08.30.181,SurveyExpMetaMem,3.2.3,MacIntel,60
,,,,,,,,,,,,,,,,,,,,7,0.963000059,7,0.614000082,1,0,1200,178,1,1199,alive,11112,2019-10-21_17h08.30.181,SurveyExpMetaMem,3.2.3,MacIntel,60
,,,,,,,,,,,,,,,,,,,,7,2.621000051,3,0.436000109,1,0,1200,1083,1,1199,delayed,11112,2019-10-21_17h08.30.181,SurveyExpMetaMem,3.2.3,MacIntel,60
,,,,,,,,,,,,,,,,,,,,7,1.839999914,3,0.425000191,1,0,1200,1042,1,1199,brutal,11112,2019-10-21_17h08.30.181,SurveyExpMetaMem,3.2.3,MacIntel,60
,,,,,,,,,,,,,,,,,,,,5,1.578999996,5,0.43900013,1,0,1200,342,1,1199,alienation,11112,2019-10-21_17h08.30.181,SurveyExpMetaMem,3.2.3,MacIntel,60
,,,,,,,,,,,,,,,,,,,,7,1.175000191,3,0.443000078,1,0,1200,917,1,1199,slave,11112,2019-10-21_17h08.30.181,SurveyExpMetaMem,3.2.3,MacIntel,60
,,,,,,,,,,,,,,,,,,,,5,2.082000017,6,0.661000252,1,0,1200,828,1,1199,cooperative,11112,2019-10-21_17h08.30.181,SurveyExpMetaMem,3.2.3,MacIntel,60
,,,,,,,,,,,,,,,,,,,,6,2.594000101,5,0.94900012,1,0,1200,1187,1,1199,drill,11112,2019-10-21_17h08.30.181,SurveyExpMetaMem,3.2.3,MacIntel,60
,,,,,,,,,,,,,,,,,,,,5,1.92599988,5,0.505000114,1,0,1200,830,1,1199,pear,11112,2019-10-21_17h08.30.181,SurveyExpMetaMem,3.2.3,MacIntel,60
,,,,,,,,,,,,,,,,,,,,8,1.687000036,8,0.657000065,1,0,1200,0,1,1199,dragon,11112,2019-10-21_17h08.30.181,SurveyExpMetaMem,3.2.3,MacIntel,60
,,,,,,,,,,,,,,,,,,,,5,2.609999895,5,0.464000225,1,0,1200,280,1,1199,cookout,11112,2019-10-21_17h08.30.181,SurveyExpMetaMem,3.2.3,MacIntel,60
,,,,,,,,,,,,,,,,,,,,3,5.907000065,5,0.494999886,1,0,1200,864,1,1199,blanket,11112,2019-10-21_17h08.30.181,SurveyExpMetaMem,3.2.3,MacIntel,60
,,,,,,,,,,,,,,,,,,,,3,1.261000156,6,0.61500001,1,0,1200,867,1,1199,relaxed,11112,2019-10-21_17h08.30.181,SurveyExpMetaMem,3.2.3,MacIntel,60
,,,,,,,,,,,,,,,,,,,,6,1.594000101,6,0.674000263,1,0,1200,834,1,1199,crown,11112,2019-10-21_17h08.30.181,SurveyExpMetaMem,3.2.3,MacIntel,60
,,,,,,,,,,,,,,,,,,,,5,9.513999939,5,0.354000092,1,0,1200,600,1,1199,parlor,11112,2019-10-21_17h08.30.181,SurveyExpMetaMem,3.2.3,MacIntel,60
,,,,,,,,,,,,,,,,,,,,7,1.144000292,3,0.361999989,1,0,1200,978,1,1199,starving,11112,2019-10-21_17h08.30.181,SurveyExpMetaMem,3.2.3,MacIntel,60
,,,,,,,,,,,,,,,,,,,,7,1.088999987,3,0.481000185,1,0,1200,1124,1,1199,seize,11112,2019-10-21_17h08.30.181,SurveyExpMetaMem,3.2.3,MacIntel,60
,,,,,,,,,,,,,,,,,,,,7,1.229000092,7,0.421000004,1,0,1200,35,1,1199,bright,11112,2019-10-21_17h08.30.181,SurveyExpMetaMem,3.2.3,MacIntel,60
,,,,,,,,,,,,,,,,,,,,7,2.536000013,3,0.678000212,1,0,1200,313,1,1199,rotten,11112,2019-10-21_17h08.30.181,SurveyExpMetaMem,3.2.3,MacIntel,60
,,,,,,,,,,,,,,,,,,,,5,1.279000282,5,0.523000002,1,0,1200,429,1,1199,cough,11112,2019-10-21_17h08.30.181,SurveyExpMetaMem,3.2.3,MacIntel,60
,,,,,,,,,,,,,,,,,,,,5,0.757000208,5,0.548000097,1,0,1200,340,1,1199,coward,11112,2019-10-21_17h08.30.181,SurveyExpMetaMem,3.2.3,MacIntel,60
,,,,,,,,,,,,,,,,,,,,5,3.204000235,5,0.872000217,1,0,1200,437,1,1199,blubber,11112,2019-10-21_17h08.30.181,SurveyExpMetaMem,3.2.3,MacIntel,60
,,,,,,,,,,,,,,,,,,,,7,1.937000036,3,0.394000053,1,0,1200,1015,1,1199,frighten,11112,2019-10-21_17h08.30.181,SurveyExpMetaMem,3.2.3,MacIntel,60
,,,,,,,,,,,,,,,,,,,,7,1.179000139,3,0.47300005,1,0,1200,1063,1,1199,quarrel,11112,2019-10-21_17h08.30.181,SurveyExpMetaMem,3.2.3,MacIntel,60
,,,,,,,,,,,,,,,,,,,,5,1.028000116,5,0.539999962,1,0,1200,352,1,1199,negligent,11112,2019-10-21_17h08.30.181,SurveyExpMetaMem,3.2.3,MacIntel,60
,,,,,,,,,,,,,,,,,,,,7,2.387000084,3,0.539999962,1,0,1200,1101,1,1199,scary,11112,2019-10-21_17h08.30.181,SurveyExpMetaMem,3.2.3,MacIntel,60
,,,,,,,,,,,,,,,,,,,,5,0.873000145,5,0.565000057,1,0,1200,815,1,1199,apple,11112,2019-10-21_17h08.30.181,SurveyExpMetaMem,3.2.3,MacIntel,60
