mouse_4.x,mouse_4.y,mouse_4.leftButton,mouse_4.midButton,mouse_4.rightButton,mouse.x,mouse.y,mouse.leftButton,mouse.midButton,mouse.rightButton,mouse_2.x,mouse_2.y,mouse_2.leftButton,mouse_2.midButton,mouse_2.rightButton,mouse_3.x,mouse_3.y,mouse_3.leftButton,mouse_3.midButton,mouse_3.rightButton,A_key_resp.keys,A_key_resp.rt,key_resp.keys,key_resp.rt,trials.thisRepN,trials.thisTrialN,trials.thisN,trials.thisIndex,trials.ran,trials.order,word,ParticipantID,date,expName,psychopyVersion,OS,frameRate
0.091137153,-0.167907986,1,0,0,0.335251736,-0.328077257,1,0,0,0.289010417,-0.233229167,1,0,0,0.289010417,-0.233229167,1,0,0,6,6.906000137,9,2.605999947,1,0,1200,85,1,1199,like,11118,2019-10-22_15h58.41.524,SurveyExpMetaMem,3.2.3,MacIntel,60
,,,,,,,,,,,,,,,,,,,,9,4.538000107,3,5.107000113,1,0,1200,1,1,1199,fuck,11118,2019-10-22_15h58.41.524,SurveyExpMetaMem,3.2.3,MacIntel,60
,,,,,,,,,,,,,,,,,,,,3,2.892000198,5,7.229000092,1,0,1200,818,1,1199,priest,11118,2019-10-22_15h58.41.524,SurveyExpMetaMem,3.2.3,MacIntel,60
,,,,,,,,,,,,,,,,,,,,6,4.274999857,2,1.319999933,1,0,1200,473,1,1199,senseless,11118,2019-10-22_15h58.41.524,SurveyExpMetaMem,3.2.3,MacIntel,60
,,,,,,,,,,,,,,,,,,,,3,2.638999939,1,2.625999928,1,0,1200,1083,1,1199,delayed,11118,2019-10-22_15h58.41.524,SurveyExpMetaMem,3.2.3,MacIntel,60
,,,,,,,,,,,,,,,,,,,,2,2.722999811,5,2.125,1,0,1200,758,1,1199,camera,11118,2019-10-22_15h58.41.524,SurveyExpMetaMem,3.2.3,MacIntel,60
,,,,,,,,,,,,,,,,,,,,5,3.258999825,5,1.197999954,1,0,1200,234,1,1199,redeem,11118,2019-10-22_15h58.41.524,SurveyExpMetaMem,3.2.3,MacIntel,60
,,,,,,,,,,,,,,,,,,,,3,3.046999931,2,2.680000067,1,0,1200,478,1,1199,numb,11118,2019-10-22_15h58.41.524,SurveyExpMetaMem,3.2.3,MacIntel,60
,,,,,,,,,,,,,,,,,,,,5,2.105000019,5,1.690999985,1,0,1200,628,1,1199,chess,11118,2019-10-22_15h58.41.524,SurveyExpMetaMem,3.2.3,MacIntel,60
,,,,,,,,,,,,,,,,,,,,6,2.394000053,2,1.872999907,1,0,1200,1061,1,1199,difficult,11118,2019-10-22_15h58.41.524,SurveyExpMetaMem,3.2.3,MacIntel,60
,,,,,,,,,,,,,,,,,,,,6,3.92599988,6,1.35800004,1,0,1200,23,1,1199,earn,11118,2019-10-22_15h58.41.524,SurveyExpMetaMem,3.2.3,MacIntel,60
,,,,,,,,,,,,,,,,,,,,6,4.606999874,8,1.60800004,1,0,1200,845,1,1199,honey,11118,2019-10-22_15h58.41.524,SurveyExpMetaMem,3.2.3,MacIntel,60
,,,,,,,,,,,,,,,,,,,,6,3.303999901,9,0.720999956,1,0,1200,69,1,1199,special,11118,2019-10-22_15h58.41.524,SurveyExpMetaMem,3.2.3,MacIntel,60
,,,,,,,,,,,,,,,,,,,,2,1.77699995,4,1.92599988,1,0,1200,738,1,1199,horse,11118,2019-10-22_15h58.41.524,SurveyExpMetaMem,3.2.3,MacIntel,60
,,,,,,,,,,,,,,,,,,,,5,5.534000158,7,0.822000027,1,0,1200,168,1,1199,mate,11118,2019-10-22_15h58.41.524,SurveyExpMetaMem,3.2.3,MacIntel,60
,,,,,,,,,,,,,,,,,,,,7,4.539999962,2,1.029000044,1,0,1200,542,1,1199,loose,11118,2019-10-22_15h58.41.524,SurveyExpMetaMem,3.2.3,MacIntel,60
,,,,,,,,,,,,,,,,,,,,7,5.603000164,3,1.076000214,1,0,1200,587,1,1199,dissolve,11118,2019-10-22_15h58.41.524,SurveyExpMetaMem,3.2.3,MacIntel,60
,,,,,,,,,,,,,,,,,,,,6,6.407000065,1,1.215000153,1,0,1200,313,1,1199,rotten,11118,2019-10-22_15h58.41.524,SurveyExpMetaMem,3.2.3,MacIntel,60
,,,,,,,,,,,,,,,,,,,,7,2.890000105,9,0.868999958,1,0,1200,281,1,1199,summer,11118,2019-10-22_15h58.41.524,SurveyExpMetaMem,3.2.3,MacIntel,60
,,,,,,,,,,,,,,,,,,,,4,2.542000055,5,1.978999853,1,0,1200,569,1,1199,onion,11118,2019-10-22_15h58.41.524,SurveyExpMetaMem,3.2.3,MacIntel,60
,,,,,,,,,,,,,,,,,,,,7,1.737999916,2,1.158000231,1,0,1200,1030,1,1199,offend,11118,2019-10-22_15h58.41.524,SurveyExpMetaMem,3.2.3,MacIntel,60
,,,,,,,,,,,,,,,,,,,,7,3.657999992,3,1.075000048,1,0,1200,1113,1,1199,dagger,11118,2019-10-22_15h58.41.524,SurveyExpMetaMem,3.2.3,MacIntel,60
,,,,,,,,,,,,,,,,,,,,6,3.957000017,2,1.389999866,1,0,1200,307,1,1199,sick,11118,2019-10-22_15h58.41.524,SurveyExpMetaMem,3.2.3,MacIntel,60
,,,,,,,,,,,,,,,,,,,,9,2.538000107,1,2.072999954,1,0,1200,927,1,1199,jail,11118,2019-10-22_15h58.41.524,SurveyExpMetaMem,3.2.3,MacIntel,60
,,,,,,,,,,,,,,,,,,,,7,2.377000093,6,1.509000063,1,0,1200,205,1,1199,outspoken,11118,2019-10-22_15h58.41.524,SurveyExpMetaMem,3.2.3,MacIntel,60
,,,,,,,,,,,,,,,,,,,,8,3.108999968,1,2.457000017,1,0,1200,319,1,1199,malaria,11118,2019-10-22_15h58.41.524,SurveyExpMetaMem,3.2.3,MacIntel,60
,,,,,,,,,,,,,,,,,,,,9,2.020999908,2,1.375999928,1,0,1200,1185,1,1199,shotgun,11118,2019-10-22_15h58.41.524,SurveyExpMetaMem,3.2.3,MacIntel,60
,,,,,,,,,,,,,,,,,,,,5,2.541000128,6,1.381999969,1,0,1200,777,1,1199,casual,11118,2019-10-22_15h58.41.524,SurveyExpMetaMem,3.2.3,MacIntel,60
,,,,,,,,,,,,,,,,,,,,8,2.111999989,9,1.508000135,1,0,1200,851,1,1199,cool,11118,2019-10-22_15h58.41.524,SurveyExpMetaMem,3.2.3,MacIntel,60
,,,,,,,,,,,,,,,,,,,,9,2.226999998,1,0.957999945,1,0,1200,979,1,1199,harassment,11118,2019-10-22_15h58.41.524,SurveyExpMetaMem,3.2.3,MacIntel,60
,,,,,,,,,,,,,,,,,,,,5,3.262000084,6,0.805000067,1,0,1200,536,1,1199,vacant,11118,2019-10-22_15h58.41.524,SurveyExpMetaMem,3.2.3,MacIntel,60
,,,,,,,,,,,,,,,,,,,,9,4.554999828,1,2.498000145,1,0,1200,991,1,1199,harass,11118,2019-10-22_15h58.41.524,SurveyExpMetaMem,3.2.3,MacIntel,60
,,,,,,,,,,,,,,,,,,,,5,3.105000019,2,1.190999985,1,0,1200,481,1,1199,melancholy,11118,2019-10-22_15h58.41.524,SurveyExpMetaMem,3.2.3,MacIntel,60
,,,,,,,,,,,,,,,,,,,,5,2.224999905,5,2.325000048,1,0,1200,707,1,1199,adapt,11118,2019-10-22_15h58.41.524,SurveyExpMetaMem,3.2.3,MacIntel,60
,,,,,,,,,,,,,,,,,,,,5,1.690000057,5,0.742999792,1,0,1200,590,1,1199,stool,11118,2019-10-22_15h58.41.524,SurveyExpMetaMem,3.2.3,MacIntel,60
,,,,,,,,,,,,,,,,,,,,7,2.971999884,5,2.392999887,1,0,1200,3,1,1199,nudist,11118,2019-10-22_15h58.41.524,SurveyExpMetaMem,3.2.3,MacIntel,60
,,,,,,,,,,,,,,,,,,,,3,2.037999868,5,1.106999874,1,0,1200,829,1,1199,innocent,11118,2019-10-22_15h58.41.524,SurveyExpMetaMem,3.2.3,MacIntel,60
,,,,,,,,,,,,,,,,,,,,8,2.123999834,3,2.006999969,1,0,1200,1106,1,1199,pushy,11118,2019-10-22_15h58.41.524,SurveyExpMetaMem,3.2.3,MacIntel,60
,,,,,,,,,,,,,,,,,,,,5,1.35800004,5,0.680999994,1,0,1200,831,1,1199,sofa,11118,2019-10-22_15h58.41.524,SurveyExpMetaMem,3.2.3,MacIntel,60
,,,,,,,,,,,,,,,,,,,,8,2.889999866,8,1.013999939,1,0,1200,135,1,1199,applause,11118,2019-10-22_15h58.41.524,SurveyExpMetaMem,3.2.3,MacIntel,60
,,,,,,,,,,,,,,,,,,,,5,2.013000011,5,0.637000084,1,0,1200,629,1,1199,barn,11118,2019-10-22_15h58.41.524,SurveyExpMetaMem,3.2.3,MacIntel,60
,,,,,,,,,,,,,,,,,,,,5,2.097000122,5,0.50999999,1,0,1200,713,1,1199,mobile,11118,2019-10-22_15h58.41.524,SurveyExpMetaMem,3.2.3,MacIntel,60
,,,,,,,,,,,,,,,,,,,,9,1.488999844,2,1.007999897,1,0,1200,982,1,1199,robbery,11118,2019-10-22_15h58.41.524,SurveyExpMetaMem,3.2.3,MacIntel,60
,,,,,,,,,,,,,,,,,,,,9,1.840999842,2,0.875,1,0,1200,1002,1,1199,wounds,11118,2019-10-22_15h58.41.524,SurveyExpMetaMem,3.2.3,MacIntel,60
,,,,,,,,,,,,,,,,,,,,7,1.713999987,3,0.960000038,1,0,1200,541,1,1199,apathy,11118,2019-10-22_15h58.41.524,SurveyExpMetaMem,3.2.3,MacIntel,60
,,,,,,,,,,,,,,,,,,,,5,1.539000034,5,0.572999954,1,0,1200,612,1,1199,propeller,11118,2019-10-22_15h58.41.524,SurveyExpMetaMem,3.2.3,MacIntel,60
,,,,,,,,,,,,,,,,,,,,7,2.405999899,5,2.291999817,1,0,1200,201,1,1199,gorilla,11118,2019-10-22_15h58.41.524,SurveyExpMetaMem,3.2.3,MacIntel,60
,,,,,,,,,,,,,,,,,,,,5,1.457000017,5,0.812999964,1,0,1200,585,1,1199,tatter,11118,2019-10-22_15h58.41.524,SurveyExpMetaMem,3.2.3,MacIntel,60
,,,,,,,,,,,,,,,,,,,,8,2.479000092,2,0.940000057,1,0,1200,1092,1,1199,rattlesnake,11118,2019-10-22_15h58.41.524,SurveyExpMetaMem,3.2.3,MacIntel,60
,,,,,,,,,,,,,,,,,,,,2,2.626999855,2,0.940999985,1,0,1200,408,1,1199,bore,11118,2019-10-22_15h58.41.524,SurveyExpMetaMem,3.2.3,MacIntel,60
,,,,,,,,,,,,,,,,,,,,5,1.471999884,5,0.7900002,1,0,1200,606,1,1199,easel,11118,2019-10-22_15h58.41.524,SurveyExpMetaMem,3.2.3,MacIntel,60
,,,,,,,,,,,,,,,,,,,,7,2.425000191,7,1.959000111,1,0,1200,19,1,1199,firefighter,11118,2019-10-22_15h58.41.524,SurveyExpMetaMem,3.2.3,MacIntel,60
,,,,,,,,,,,,,,,,,,,,5,1.911999941,5,1.525000095,1,0,1200,261,1,1199,windsurfers,11118,2019-10-22_15h58.41.524,SurveyExpMetaMem,3.2.3,MacIntel,60
,,,,,,,,,,,,,,,,,,,,8,3.157000065,7,1.84100008,1,0,1200,267,1,1199,bold,11118,2019-10-22_15h58.41.524,SurveyExpMetaMem,3.2.3,MacIntel,60
,,,,,,,,,,,,,,,,,,,,5,1.424000025,5,0.674999952,1,0,1200,151,1,1199,react,11118,2019-10-22_15h58.41.524,SurveyExpMetaMem,3.2.3,MacIntel,60
,,,,,,,,,,,,,,,,,,,,3,3.362999916,5,2.07799983,1,0,1200,399,1,1199,withdrawn,11118,2019-10-22_15h58.41.524,SurveyExpMetaMem,3.2.3,MacIntel,60
,,,,,,,,,,,,,,,,,,,,5,2.256000042,5,1.075000048,1,0,1200,152,1,1199,hire,11118,2019-10-22_15h58.41.524,SurveyExpMetaMem,3.2.3,MacIntel,60
,,,,,,,,,,,,,,,,,,,,5,3.72300005,5,1.093000174,1,0,1200,788,1,1199,cook,11118,2019-10-22_15h58.41.524,SurveyExpMetaMem,3.2.3,MacIntel,60
,,,,,,,,,,,,,,,,,,,,5,0.957000017,5,0.539999962,1,0,1200,699,1,1199,leg,11118,2019-10-22_15h58.41.524,SurveyExpMetaMem,3.2.3,MacIntel,60
,,,,,,,,,,,,,,,,,,,,6,2.088999987,6,1.476999998,1,0,1200,206,1,1199,comet,11118,2019-10-22_15h58.41.524,SurveyExpMetaMem,3.2.3,MacIntel,60
,,,,,,,,,,,,,,,,,,,,3,2.155999899,3,2.111999989,1,0,1200,374,1,1199,sluggish,11118,2019-10-22_15h58.41.524,SurveyExpMetaMem,3.2.3,MacIntel,60
,,,,,,,,,,,,,,,,,,,,5,1.139999866,5,0.424999952,1,0,1200,716,1,1199,blouse,11118,2019-10-22_15h58.41.524,SurveyExpMetaMem,3.2.3,MacIntel,60
,,,,,,,,,,,,,,,,,,,,7,1.960999966,9,1.398000002,1,0,1200,130,1,1199,great,11118,2019-10-22_15h58.41.524,SurveyExpMetaMem,3.2.3,MacIntel,60
,,,,,,,,,,,,,,,,,,,,7,4.107000113,3,0.845999956,1,0,1200,1004,1,1199,burglar,11118,2019-10-22_15h58.41.524,SurveyExpMetaMem,3.2.3,MacIntel,60
,,,,,,,,,,,,,,,,,,,,8,2.641000032,3,0.492000103,1,0,1200,1063,1,1199,quarrel,11118,2019-10-22_15h58.41.524,SurveyExpMetaMem,3.2.3,MacIntel,60
,,,,,,,,,,,,,,,,,,,,9,2.075000048,2,0.996000051,1,0,1200,986,1,1199,mad,11118,2019-10-22_15h58.41.524,SurveyExpMetaMem,3.2.3,MacIntel,60
,,,,,,,,,,,,,,,,,,,,5,3.094000101,5,0.764999866,1,0,1200,611,1,1199,herring,11118,2019-10-22_15h58.41.524,SurveyExpMetaMem,3.2.3,MacIntel,60
,,,,,,,,,,,,,,,,,,,,5,1.013000011,5,0.525000095,1,0,1200,617,1,1199,tomato,11118,2019-10-22_15h58.41.524,SurveyExpMetaMem,3.2.3,MacIntel,60
,,,,,,,,,,,,,,,,,,,,8,3.473999977,4,1.311000109,1,0,1200,1198,1,1199,lightning,11118,2019-10-22_15h58.41.524,SurveyExpMetaMem,3.2.3,MacIntel,60
,,,,,,,,,,,,,,,,,,,,5,1.77699995,5,0.507999897,1,0,1200,1178,1,1199,weight,11118,2019-10-22_15h58.41.524,SurveyExpMetaMem,3.2.3,MacIntel,60
,,,,,,,,,,,,,,,,,,,,8,2.030999899,2,0.732999802,1,0,1200,1020,1,1199,malice,11118,2019-10-22_15h58.41.524,SurveyExpMetaMem,3.2.3,MacIntel,60
,,,,,,,,,,,,,,,,,,,,7,2.562999964,7,1.30700016,1,0,1200,887,1,1199,elegant,11118,2019-10-22_15h58.41.524,SurveyExpMetaMem,3.2.3,MacIntel,60
,,,,,,,,,,,,,,,,,,,,7,1.420000076,7,0.412000179,1,0,1200,218,1,1199,charming,11118,2019-10-22_15h58.41.524,SurveyExpMetaMem,3.2.3,MacIntel,60
,,,,,,,,,,,,,,,,,,,,6,2.069999933,7,1.031999826,1,0,1200,247,1,1199,graduate,11118,2019-10-22_15h58.41.524,SurveyExpMetaMem,3.2.3,MacIntel,60
,,,,,,,,,,,,,,,,,,,,9,8.525000095,1,1.00999999,1,0,1200,902,1,1199,rejected,11118,2019-10-22_15h58.41.524,SurveyExpMetaMem,3.2.3,MacIntel,60
,,,,,,,,,,,,,,,,,,,,6,3.522000074,2,1.013000011,1,0,1200,345,1,1199,unfortunate,11118,2019-10-22_15h58.41.524,SurveyExpMetaMem,3.2.3,MacIntel,60
,,,,,,,,,,,,,,,,,,,,6,1.588000059,2,0.458999872,1,0,1200,520,1,1199,gullible,11118,2019-10-22_15h58.41.524,SurveyExpMetaMem,3.2.3,MacIntel,60
,,,,,,,,,,,,,,,,,,,,7,2.70600009,3,1.207999945,1,0,1200,1127,1,1199,spank,11118,2019-10-22_15h58.41.524,SurveyExpMetaMem,3.2.3,MacIntel,60
,,,,,,,,,,,,,,,,,,,,5,2.722000122,5,1.407999992,1,0,1200,625,1,1199,hat,11118,2019-10-22_15h58.41.524,SurveyExpMetaMem,3.2.3,MacIntel,60
,,,,,,,,,,,,,,,,,,,,5,8.361999989,5,1.193000078,1,0,1200,410,1,1199,tarnish,11118,2019-10-22_15h58.41.524,SurveyExpMetaMem,3.2.3,MacIntel,60
,,,,,,,,,,,,,,,,,,,,5,5.187999964,5,0.856999874,1,0,1200,642,1,1199,newspaper,11118,2019-10-22_15h58.41.524,SurveyExpMetaMem,3.2.3,MacIntel,60
,,,,,,,,,,,,,,,,,,,,1,2.677999973,5,1.873000145,1,0,1200,892,1,1199,untroubled,11118,2019-10-22_15h58.41.524,SurveyExpMetaMem,3.2.3,MacIntel,60
,,,,,,,,,,,,,,,,,,,,6,3.641000032,5,0.696000099,1,0,1200,509,1,1199,ash,11118,2019-10-22_15h58.41.524,SurveyExpMetaMem,3.2.3,MacIntel,60
,,,,,,,,,,,,,,,,,,,,7,2.763999939,6,3.537999868,1,0,1200,224,1,1199,strengthen,11118,2019-10-22_15h58.41.524,SurveyExpMetaMem,3.2.3,MacIntel,60
,,,,,,,,,,,,,,,,,,,,9,1.763000011,2,1.927000046,1,0,1200,950,1,1199,murder,11118,2019-10-22_15h58.41.524,SurveyExpMetaMem,3.2.3,MacIntel,60
,,,,,,,,,,,,,,,,,,,,7,4.05700016,7,1.266000032,1,0,1200,274,1,1199,song,11118,2019-10-22_15h58.41.524,SurveyExpMetaMem,3.2.3,MacIntel,60
,,,,,,,,,,,,,,,,,,,,8,1.954999924,6,0.99000001,1,0,1200,103,1,1199,conquest,11118,2019-10-22_15h58.41.524,SurveyExpMetaMem,3.2.3,MacIntel,60
,,,,,,,,,,,,,,,,,,,,5,2.167999983,5,0.822999954,1,0,1200,394,1,1199,dump,11118,2019-10-22_15h58.41.524,SurveyExpMetaMem,3.2.3,MacIntel,60
,,,,,,,,,,,,,,,,,,,,7,7.07400012,5,1.156999826,1,0,1200,558,1,1199,punk,11118,2019-10-22_15h58.41.524,SurveyExpMetaMem,3.2.3,MacIntel,60
,,,,,,,,,,,,,,,,,,,,6,2.752000093,8,0.84100008,1,0,1200,296,1,1199,awesome,11118,2019-10-22_15h58.41.524,SurveyExpMetaMem,3.2.3,MacIntel,60
,,,,,,,,,,,,,,,,,,,,6,3.360999823,2,1.890000105,1,0,1200,523,1,1199,witch,11118,2019-10-22_15h58.41.524,SurveyExpMetaMem,3.2.3,MacIntel,60
,,,,,,,,,,,,,,,,,,,,2,2.704999924,5,0.707000017,1,0,1200,697,1,1199,clarinet,11118,2019-10-22_15h58.41.524,SurveyExpMetaMem,3.2.3,MacIntel,60
,,,,,,,,,,,,,,,,,,,,6,2.54399991,8,1.74000001,1,0,1200,58,1,1199,boost,11118,2019-10-22_15h58.41.524,SurveyExpMetaMem,3.2.3,MacIntel,60
,,,,,,,,,,,,,,,,,,,,2,2.704999924,4,2.773000002,1,0,1200,433,1,1199,uninteresting,11118,2019-10-22_15h58.41.524,SurveyExpMetaMem,3.2.3,MacIntel,60
,,,,,,,,,,,,,,,,,,,,3,4.267999887,5,1.503999949,1,0,1200,734,1,1199,piano,11118,2019-10-22_15h58.41.524,SurveyExpMetaMem,3.2.3,MacIntel,60
,,,,,,,,,,,,,,,,,,,,3,2.406999826,5,0.563000202,1,0,1200,974,1,1199,roach,11118,2019-10-22_15h58.41.524,SurveyExpMetaMem,3.2.3,MacIntel,60
,,,,,,,,,,,,,,,,,,,,2,3.993999958,5,0.572999954,1,0,1200,1085,1,1199,sever,11118,2019-10-22_15h58.41.524,SurveyExpMetaMem,3.2.3,MacIntel,60
,,,,,,,,,,,,,,,,,,,,8,2.855000019,3,1.111999989,1,0,1200,1120,1,1199,gun,11118,2019-10-22_15h58.41.524,SurveyExpMetaMem,3.2.3,MacIntel,60
,,,,,,,,,,,,,,,,,,,,5,2.340999842,5,0.355999947,1,0,1200,91,1,1199,pretty,11118,2019-10-22_15h58.41.524,SurveyExpMetaMem,3.2.3,MacIntel,60
,,,,,,,,,,,,,,,,,,,,5,2.493000031,5,1.141000032,1,0,1200,110,1,1199,animal,11118,2019-10-22_15h58.41.524,SurveyExpMetaMem,3.2.3,MacIntel,60
,,,,,,,,,,,,,,,,,,,,3,2.679999828,5,0.392999887,1,0,1200,752,1,1199,milk,11118,2019-10-22_15h58.41.524,SurveyExpMetaMem,3.2.3,MacIntel,60
,,,,,,,,,,,,,,,,,,,,3,1.503999949,5,0.354000092,1,0,1200,513,1,1199,bland,11118,2019-10-22_15h58.41.524,SurveyExpMetaMem,3.2.3,MacIntel,60
,,,,,,,,,,,,,,,,,,,,6,1.988999844,3,1.398999929,1,0,1200,550,1,1199,fart,11118,2019-10-22_15h58.41.524,SurveyExpMetaMem,3.2.3,MacIntel,60
,,,,,,,,,,,,,,,,,,,,3,2.511000156,5,0.378999949,1,0,1200,212,1,1199,belief,11118,2019-10-22_15h58.41.524,SurveyExpMetaMem,3.2.3,MacIntel,60
,,,,,,,,,,,,,,,,,,,,7,2.174999952,8,1.990999937,1,0,1200,271,1,1199,applaud,11118,2019-10-22_15h58.41.524,SurveyExpMetaMem,3.2.3,MacIntel,60
,,,,,,,,,,,,,,,,,,,,2,1.938999891,5,1.19900012,1,0,1200,594,1,1199,moss,11118,2019-10-22_15h58.41.524,SurveyExpMetaMem,3.2.3,MacIntel,60
,,,,,,,,,,,,,,,,,,,,6,2.444000006,5,1.292999983,1,0,1200,76,1,1199,midnight,11118,2019-10-22_15h58.41.524,SurveyExpMetaMem,3.2.3,MacIntel,60
,,,,,,,,,,,,,,,,,,,,7,2.371000051,4,1.171999931,1,0,1200,507,1,1199,smudge,11118,2019-10-22_15h58.41.524,SurveyExpMetaMem,3.2.3,MacIntel,60
,,,,,,,,,,,,,,,,,,,,8,5.430000067,3,1.211000204,1,0,1200,952,1,1199,troubled,11118,2019-10-22_15h58.41.524,SurveyExpMetaMem,3.2.3,MacIntel,60
,,,,,,,,,,,,,,,,,,,,6,4.937999964,5,2.087999821,1,0,1200,592,1,1199,sweep,11118,2019-10-22_15h58.41.524,SurveyExpMetaMem,3.2.3,MacIntel,60
,,,,,,,,,,,,,,,,,,,,8,2.187999964,2,0.895999908,1,0,1200,1126,1,1199,offensive,11118,2019-10-22_15h58.41.524,SurveyExpMetaMem,3.2.3,MacIntel,60
,,,,,,,,,,,,,,,,,,,,7,2.457000017,1,0.961999893,1,0,1200,300,1,1199,unhappy,11118,2019-10-22_15h58.41.524,SurveyExpMetaMem,3.2.3,MacIntel,60
,,,,,,,,,,,,,,,,,,,,2,4.257999897,5,0.56099987,1,0,1200,694,1,1199,pecan,11118,2019-10-22_15h58.41.524,SurveyExpMetaMem,3.2.3,MacIntel,60
,,,,,,,,,,,,,,,,,,,,6,1.805999994,7,1.374000072,1,0,1200,231,1,1199,cherish,11118,2019-10-22_15h58.41.524,SurveyExpMetaMem,3.2.3,MacIntel,60
,,,,,,,,,,,,,,,,,,,,6,3.801999807,1,0.866000175,1,0,1200,316,1,1199,sorrow,11118,2019-10-22_15h58.41.524,SurveyExpMetaMem,3.2.3,MacIntel,60
,,,,,,,,,,,,,,,,,,,,7,3.04700017,1,0.607999802,1,0,1200,926,1,1199,dead,11118,2019-10-22_15h58.41.524,SurveyExpMetaMem,3.2.3,MacIntel,60
,,,,,,,,,,,,,,,,,,,,2,2.677000046,5,1.178000212,1,0,1200,358,1,1199,waste,11118,2019-10-22_15h58.41.524,SurveyExpMetaMem,3.2.3,MacIntel,60
,,,,,,,,,,,,,,,,,,,,1,1.972999811,5,0.881000042,1,0,1200,479,1,1199,period,11118,2019-10-22_15h58.41.524,SurveyExpMetaMem,3.2.3,MacIntel,60
,,,,,,,,,,,,,,,,,,,,3,1.881000042,5,1.075000048,1,0,1200,264,1,1199,thong,11118,2019-10-22_15h58.41.524,SurveyExpMetaMem,3.2.3,MacIntel,60
,,,,,,,,,,,,,,,,,,,,1,2.571999788,6,1.361000061,1,0,1200,773,1,1199,rational,11118,2019-10-22_15h58.41.524,SurveyExpMetaMem,3.2.3,MacIntel,60
,,,,,,,,,,,,,,,,,,,,5,3.039000034,5,0.537999868,1,0,1200,894,1,1199,sunset,11118,2019-10-22_15h58.41.524,SurveyExpMetaMem,3.2.3,MacIntel,60
,,,,,,,,,,,,,,,,,,,,6,4.150000095,2,0.772000074,1,0,1200,318,1,1199,disappointment,11118,2019-10-22_15h58.41.524,SurveyExpMetaMem,3.2.3,MacIntel,60
,,,,,,,,,,,,,,,,,,,,1,3.187000036,2,1.796999931,1,0,1200,359,1,1199,bored,11118,2019-10-22_15h58.41.524,SurveyExpMetaMem,3.2.3,MacIntel,60
,,,,,,,,,,,,,,,,,,,,5,4.036000013,2,1.759000063,1,0,1200,1084,1,1199,uneasy,11118,2019-10-22_15h58.41.524,SurveyExpMetaMem,3.2.3,MacIntel,60
,,,,,,,,,,,,,,,,,,,,7,6.891000032,8,1.82799983,1,0,1200,288,1,1199,tasty,11118,2019-10-22_15h58.41.524,SurveyExpMetaMem,3.2.3,MacIntel,60
,,,,,,,,,,,,,,,,,,,,7,2.104999781,9,1.177999973,1,0,1200,254,1,1199,crush,11118,2019-10-22_15h58.41.524,SurveyExpMetaMem,3.2.3,MacIntel,60
,,,,,,,,,,,,,,,,,,,,5,1.919000149,5,0.861999989,1,0,1200,532,1,1199,recede,11118,2019-10-22_15h58.41.524,SurveyExpMetaMem,3.2.3,MacIntel,60
,,,,,,,,,,,,,,,,,,,,4,3.514000177,3,0.726000071,1,0,1200,280,1,1199,cookout,11118,2019-10-22_15h58.41.524,SurveyExpMetaMem,3.2.3,MacIntel,60
,,,,,,,,,,,,,,,,,,,,3,2.538000107,9,0.570999861,1,0,1200,272,1,1199,confidence,11118,2019-10-22_15h58.41.524,SurveyExpMetaMem,3.2.3,MacIntel,60
,,,,,,,,,,,,,,,,,,,,3,3.842000008,8,0.578000069,1,0,1200,876,1,1199,politeness,11118,2019-10-22_15h58.41.524,SurveyExpMetaMem,3.2.3,MacIntel,60
,,,,,,,,,,,,,,,,,,,,5,3.155999899,6,2.811000109,1,0,1200,232,1,1199,prosper,11118,2019-10-22_15h58.41.524,SurveyExpMetaMem,3.2.3,MacIntel,60
,,,,,,,,,,,,,,,,,,,,5,4.707999945,1,1.157000065,1,0,1200,348,1,1199,impotent,11118,2019-10-22_15h58.41.524,SurveyExpMetaMem,3.2.3,MacIntel,60
,,,,,,,,,,,,,,,,,,,,3,2.635999918,6,1.173000097,1,0,1200,708,1,1199,nursery,11118,2019-10-22_15h58.41.524,SurveyExpMetaMem,3.2.3,MacIntel,60
,,,,,,,,,,,,,,,,,,,,7,4.291000128,2,1.124000072,1,0,1200,1143,1,1199,arrogant,11118,2019-10-22_15h58.41.524,SurveyExpMetaMem,3.2.3,MacIntel,60
,,,,,,,,,,,,,,,,,,,,5,1.59100008,5,0.544999838,1,0,1200,1091,1,1199,cram,11118,2019-10-22_15h58.41.524,SurveyExpMetaMem,3.2.3,MacIntel,60
,,,,,,,,,,,,,,,,,,,,8,3.894999981,3,1.164000034,1,0,1200,208,1,1199,wild,11118,2019-10-22_15h58.41.524,SurveyExpMetaMem,3.2.3,MacIntel,60
,,,,,,,,,,,,,,,,,,,,8,1.889999866,3,1.138999939,1,0,1200,1123,1,1199,haunt,11118,2019-10-22_15h58.41.524,SurveyExpMetaMem,3.2.3,MacIntel,60
,,,,,,,,,,,,,,,,,,,,3,2.904999971,6,1.24000001,1,0,1200,886,1,1199,sunflower,11118,2019-10-22_15h58.41.524,SurveyExpMetaMem,3.2.3,MacIntel,60
,,,,,,,,,,,,,,,,,,,,8,1.809999943,2,1.177000046,1,0,1200,1003,1,1199,jealousy,11118,2019-10-22_15h58.41.524,SurveyExpMetaMem,3.2.3,MacIntel,60
,,,,,,,,,,,,,,,,,,,,9,2.661000013,1,1.309999943,1,0,1200,1090,1,1199,destruction,11118,2019-10-22_15h58.41.524,SurveyExpMetaMem,3.2.3,MacIntel,60
,,,,,,,,,,,,,,,,,,,,7,2.427999973,3,1.194000006,1,0,1200,1074,1,1199,detain,11118,2019-10-22_15h58.41.524,SurveyExpMetaMem,3.2.3,MacIntel,60
,,,,,,,,,,,,,,,,,,,,3,3.190999985,5,1.589999914,1,0,1200,57,1,1199,important,11118,2019-10-22_15h58.41.524,SurveyExpMetaMem,3.2.3,MacIntel,60
,,,,,,,,,,,,,,,,,,,,6,3.671000004,5,0.491999865,1,0,1200,929,1,1199,mutilation,11118,2019-10-22_15h58.41.524,SurveyExpMetaMem,3.2.3,MacIntel,60
,,,,,,,,,,,,,,,,,,,,8,2.492000103,2,1.507999897,1,0,1200,1054,1,1199,jealous,11118,2019-10-22_15h58.41.524,SurveyExpMetaMem,3.2.3,MacIntel,60
,,,,,,,,,,,,,,,,,,,,2,2.822999954,5,0.645999908,1,0,1200,610,1,1199,miniature,11118,2019-10-22_15h58.41.524,SurveyExpMetaMem,3.2.3,MacIntel,60
,,,,,,,,,,,,,,,,,,,,6,2.355000019,3,2.006000042,1,0,1200,324,1,1199,inferiority,11118,2019-10-22_15h58.41.524,SurveyExpMetaMem,3.2.3,MacIntel,60
,,,,,,,,,,,,,,,,,,,,3,1.722999811,5,0.619999886,1,0,1200,497,1,1199,pungent,11118,2019-10-22_15h58.41.524,SurveyExpMetaMem,3.2.3,MacIntel,60
,,,,,,,,,,,,,,,,,,,,3,3.554000139,5,0.508999825,1,0,1200,160,1,1199,reunion,11118,2019-10-22_15h58.41.524,SurveyExpMetaMem,3.2.3,MacIntel,60
,,,,,,,,,,,,,,,,,,,,9,2.148999929,5,2.572999954,1,0,1200,144,1,1199,aroused,11118,2019-10-22_15h58.41.524,SurveyExpMetaMem,3.2.3,MacIntel,60
,,,,,,,,,,,,,,,,,,,,7,5.743999958,8,1.207999945,1,0,1200,798,1,1199,crystal,11118,2019-10-22_15h58.41.524,SurveyExpMetaMem,3.2.3,MacIntel,60
,,,,,,,,,,,,,,,,,,,,4,2.508000135,7,1.698000193,1,0,1200,229,1,1199,heaven,11118,2019-10-22_15h58.41.524,SurveyExpMetaMem,3.2.3,MacIntel,60
,,,,,,,,,,,,,,,,,,,,2,2.490999937,5,0.89199996,1,0,1200,586,1,1199,cab,11118,2019-10-22_15h58.41.524,SurveyExpMetaMem,3.2.3,MacIntel,60
,,,,,,,,,,,,,,,,,,,,2,1.460999966,5,0.872999907,1,0,1200,1138,1,1199,wail,11118,2019-10-22_15h58.41.524,SurveyExpMetaMem,3.2.3,MacIntel,60
,,,,,,,,,,,,,,,,,,,,2,1.194000006,5,0.726999998,1,0,1200,518,1,1199,report,11118,2019-10-22_15h58.41.524,SurveyExpMetaMem,3.2.3,MacIntel,60
,,,,,,,,,,,,,,,,,,,,4,2.377000093,5,1.308000088,1,0,1200,787,1,1199,dawn,11118,2019-10-22_15h58.41.524,SurveyExpMetaMem,3.2.3,MacIntel,60
,,,,,,,,,,,,,,,,,,,,5,3.539999962,1,1.295000076,1,0,1200,346,1,1199,alcoholism,11118,2019-10-22_15h58.41.524,SurveyExpMetaMem,3.2.3,MacIntel,60
,,,,,,,,,,,,,,,,,,,,9,2.971000195,8,1.825000048,1,0,1200,96,1,1199,joke,11118,2019-10-22_15h58.41.524,SurveyExpMetaMem,3.2.3,MacIntel,60
,,,,,,,,,,,,,,,,,,,,8,2.121999979,2,0.715000153,1,0,1200,918,1,1199,gunpoint,11118,2019-10-22_15h58.41.524,SurveyExpMetaMem,3.2.3,MacIntel,60
,,,,,,,,,,,,,,,,,,,,2,3.34100008,5,0.59100008,1,0,1200,621,1,1199,chew,11118,2019-10-22_15h58.41.524,SurveyExpMetaMem,3.2.3,MacIntel,60
,,,,,,,,,,,,,,,,,,,,2,2.741999865,5,0.878999949,1,0,1200,846,1,1199,able,11118,2019-10-22_15h58.41.524,SurveyExpMetaMem,3.2.3,MacIntel,60
,,,,,,,,,,,,,,,,,,,,7,2.256000042,3,0.827000141,1,0,1200,505,1,1199,exhaust,11118,2019-10-22_15h58.41.524,SurveyExpMetaMem,3.2.3,MacIntel,60
,,,,,,,,,,,,,,,,,,,,9,2.444000006,1,1.113000154,1,0,1200,1016,1,1199,awful,11118,2019-10-22_15h58.41.524,SurveyExpMetaMem,3.2.3,MacIntel,60
,,,,,,,,,,,,,,,,,,,,4,4.343000174,3,1.562999964,1,0,1200,515,1,1199,blues,11118,2019-10-22_15h58.41.524,SurveyExpMetaMem,3.2.3,MacIntel,60
,,,,,,,,,,,,,,,,,,,,2,2.371999979,5,0.559000015,1,0,1200,634,1,1199,glacier,11118,2019-10-22_15h58.41.524,SurveyExpMetaMem,3.2.3,MacIntel,60
,,,,,,,,,,,,,,,,,,,,3,4.325999975,2,1.122999907,1,0,1200,547,1,1199,cellar,11118,2019-10-22_15h58.41.524,SurveyExpMetaMem,3.2.3,MacIntel,60
,,,,,,,,,,,,,,,,,,,,9,2.434000015,1,0.857000113,1,0,1200,921,1,1199,humiliation,11118,2019-10-22_15h58.41.524,SurveyExpMetaMem,3.2.3,MacIntel,60
,,,,,,,,,,,,,,,,,,,,2,2.360000134,5,0.58100009,1,0,1200,452,1,1199,scapegoat,11118,2019-10-22_15h58.41.524,SurveyExpMetaMem,3.2.3,MacIntel,60
,,,,,,,,,,,,,,,,,,,,6,3.440999985,4,1.607000113,1,0,1200,140,1,1199,riches,11118,2019-10-22_15h58.41.524,SurveyExpMetaMem,3.2.3,MacIntel,60
,,,,,,,,,,,,,,,,,,,,4,3.826999903,7,0.661000013,1,0,1200,762,1,1199,orchestra,11118,2019-10-22_15h58.41.524,SurveyExpMetaMem,3.2.3,MacIntel,60
,,,,,,,,,,,,,,,,,,,,7,6.455000162,9,0.628000021,1,0,1200,282,1,1199,luck,11118,2019-10-22_15h58.41.524,SurveyExpMetaMem,3.2.3,MacIntel,60
,,,,,,,,,,,,,,,,,,,,5,3.305999994,2,0.531000137,1,0,1200,372,1,1199,inferior,11118,2019-10-22_15h58.41.524,SurveyExpMetaMem,3.2.3,MacIntel,60
,,,,,,,,,,,,,,,,,,,,3,3.223999977,5,1.44299984,1,0,1200,539,1,1199,novice,11118,2019-10-22_15h58.41.524,SurveyExpMetaMem,3.2.3,MacIntel,60
,,,,,,,,,,,,,,,,,,,,9,2.970999956,5,1.146999836,1,0,1200,1164,1,1199,battle,11118,2019-10-22_15h58.41.524,SurveyExpMetaMem,3.2.3,MacIntel,60
,,,,,,,,,,,,,,,,,,,,2,3.092000008,5,0.592000008,1,0,1200,751,1,1199,listen,11118,2019-10-22_15h58.41.524,SurveyExpMetaMem,3.2.3,MacIntel,60
,,,,,,,,,,,,,,,,,,,,9,1.993000031,3,2.138999939,1,0,1200,1152,1,1199,scream,11118,2019-10-22_15h58.41.524,SurveyExpMetaMem,3.2.3,MacIntel,60
,,,,,,,,,,,,,,,,,,,,4,3.544000149,2,0.947999954,1,0,1200,336,1,1199,wasteful,11118,2019-10-22_15h58.41.524,SurveyExpMetaMem,3.2.3,MacIntel,60
,,,,,,,,,,,,,,,,,,,,1,4.275000095,7,2.073999882,1,0,1200,754,1,1199,reflection,11118,2019-10-22_15h58.41.524,SurveyExpMetaMem,3.2.3,MacIntel,60
,,,,,,,,,,,,,,,,,,,,1,2.97300005,3,0.865999937,1,0,1200,402,1,1199,dismissive,11118,2019-10-22_15h58.41.524,SurveyExpMetaMem,3.2.3,MacIntel,60
,,,,,,,,,,,,,,,,,,,,3,2.125,5,0.54399991,1,0,1200,684,1,1199,send,11118,2019-10-22_15h58.41.524,SurveyExpMetaMem,3.2.3,MacIntel,60
,,,,,,,,,,,,,,,,,,,,9,4.930999994,1,0.957000017,1,0,1200,1073,1,1199,bitch,11118,2019-10-22_15h58.41.524,SurveyExpMetaMem,3.2.3,MacIntel,60
,,,,,,,,,,,,,,,,,,,,8,1.32799983,1,0.74000001,1,0,1200,1081,1,1199,damage,11118,2019-10-22_15h58.41.524,SurveyExpMetaMem,3.2.3,MacIntel,60
,,,,,,,,,,,,,,,,,,,,5,2.722999811,5,0.524000168,1,0,1200,305,1,1199,frown,11118,2019-10-22_15h58.41.524,SurveyExpMetaMem,3.2.3,MacIntel,60
,,,,,,,,,,,,,,,,,,,,4,4.167999983,9,0.909999847,1,0,1200,183,1,1199,congratulate,11118,2019-10-22_15h58.41.524,SurveyExpMetaMem,3.2.3,MacIntel,60
,,,,,,,,,,,,,,,,,,,,7,2.624000072,9,0.50999999,1,0,1200,148,1,1199,victory,11118,2019-10-22_15h58.41.524,SurveyExpMetaMem,3.2.3,MacIntel,60
,,,,,,,,,,,,,,,,,,,,7,5.940999985,3,1.154999971,1,0,1200,1121,1,1199,ban,11118,2019-10-22_15h58.41.524,SurveyExpMetaMem,3.2.3,MacIntel,60
,,,,,,,,,,,,,,,,,,,,9,1.551999807,3,0.507999897,1,0,1200,204,1,1199,crazy,11118,2019-10-22_15h58.41.524,SurveyExpMetaMem,3.2.3,MacIntel,60
,,,,,,,,,,,,,,,,,,,,5,1.70600009,5,0.707000017,1,0,1200,145,1,1199,me,11118,2019-10-22_15h58.41.524,SurveyExpMetaMem,3.2.3,MacIntel,60
,,,,,,,,,,,,,,,,,,,,9,3.860000134,1,0.843000174,1,0,1200,943,1,1199,trauma,11118,2019-10-22_15h58.41.524,SurveyExpMetaMem,3.2.3,MacIntel,60
,,,,,,,,,,,,,,,,,,,,8,3.467000008,7,1.122999907,1,0,1200,230,1,1199,eager,11118,2019-10-22_15h58.41.524,SurveyExpMetaMem,3.2.3,MacIntel,60
,,,,,,,,,,,,,,,,,,,,7,2.113000154,6,0.610999823,1,0,1200,445,1,1199,bleak,11118,2019-10-22_15h58.41.524,SurveyExpMetaMem,3.2.3,MacIntel,60
,,,,,,,,,,,,,,,,,,,,8,4.149000168,2,0.773999929,1,0,1200,1080,1,1199,broken,11118,2019-10-22_15h58.41.524,SurveyExpMetaMem,3.2.3,MacIntel,60
,,,,,,,,,,,,,,,,,,,,2,2.256000042,5,0.49000001,1,0,1200,63,1,1199,clothes,11118,2019-10-22_15h58.41.524,SurveyExpMetaMem,3.2.3,MacIntel,60
,,,,,,,,,,,,,,,,,,,,2,2.069999933,5,0.618999958,1,0,1200,252,1,1199,infatuated,11118,2019-10-22_15h58.41.524,SurveyExpMetaMem,3.2.3,MacIntel,60
,,,,,,,,,,,,,,,,,,,,3,1.9599998,6,0.576999903,1,0,1200,413,1,1199,deficient,11118,2019-10-22_15h58.41.524,SurveyExpMetaMem,3.2.3,MacIntel,60
,,,,,,,,,,,,,,,,,,,,3,4.422999859,8,1.424000025,1,0,1200,171,1,1199,imagination,11118,2019-10-22_15h58.41.524,SurveyExpMetaMem,3.2.3,MacIntel,60
,,,,,,,,,,,,,,,,,,,,2,1.552999973,5,0.444999933,1,0,1200,608,1,1199,carrot,11118,2019-10-22_15h58.41.524,SurveyExpMetaMem,3.2.3,MacIntel,60
,,,,,,,,,,,,,,,,,,,,4,3.56099987,3,0.970999956,1,0,1200,483,1,1199,condescension,11118,2019-10-22_15h58.41.524,SurveyExpMetaMem,3.2.3,MacIntel,60
,,,,,,,,,,,,,,,,,,,,5,2.878000021,4,1.220999956,1,0,1200,570,1,1199,muddy,11118,2019-10-22_15h58.41.524,SurveyExpMetaMem,3.2.3,MacIntel,60
,,,,,,,,,,,,,,,,,,,,8,1.80700016,2,1.095999956,1,0,1200,1175,1,1199,prostitute,11118,2019-10-22_15h58.41.524,SurveyExpMetaMem,3.2.3,MacIntel,60
,,,,,,,,,,,,,,,,,,,,9,1.394999981,1,0.490999937,1,0,1200,1056,1,1199,crime,11118,2019-10-22_15h58.41.524,SurveyExpMetaMem,3.2.3,MacIntel,60
,,,,,,,,,,,,,,,,,,,,3,2.843000174,2,0.5400002,1,0,1200,890,1,1199,carefree,11118,2019-10-22_15h58.41.524,SurveyExpMetaMem,3.2.3,MacIntel,60
,,,,,,,,,,,,,,,,,,,,9,1.390999794,1,0.465999842,1,0,1200,1140,1,1199,blood,11118,2019-10-22_15h58.41.524,SurveyExpMetaMem,3.2.3,MacIntel,60
,,,,,,,,,,,,,,,,,,,,7,2.562999964,3,0.507999897,1,0,1200,512,1,1199,insect,11118,2019-10-22_15h58.41.524,SurveyExpMetaMem,3.2.3,MacIntel,60
,,,,,,,,,,,,,,,,,,,,4,2.921000004,3,0.421000004,1,0,1200,350,1,1199,inadequate,11118,2019-10-22_15h58.41.524,SurveyExpMetaMem,3.2.3,MacIntel,60
,,,,,,,,,,,,,,,,,,,,4,1.272000074,3,0.436000109,1,0,1200,391,1,1199,detach,11118,2019-10-22_15h58.41.524,SurveyExpMetaMem,3.2.3,MacIntel,60
,,,,,,,,,,,,,,,,,,,,2,1.787999868,5,0.409000158,1,0,1200,748,1,1199,town,11118,2019-10-22_15h58.41.524,SurveyExpMetaMem,3.2.3,MacIntel,60
,,,,,,,,,,,,,,,,,,,,3,1.596999884,5,0.398000002,1,0,1200,860,1,1199,silk,11118,2019-10-22_15h58.41.524,SurveyExpMetaMem,3.2.3,MacIntel,60
,,,,,,,,,,,,,,,,,,,,6,2.694999933,9,1.391000032,1,0,1200,898,1,1199,kindness,11118,2019-10-22_15h58.41.524,SurveyExpMetaMem,3.2.3,MacIntel,60
,,,,,,,,,,,,,,,,,,,,2,2.209000111,1,0.990999937,1,0,1200,475,1,1199,nameless,11118,2019-10-22_15h58.41.524,SurveyExpMetaMem,3.2.3,MacIntel,60
,,,,,,,,,,,,,,,,,,,,9,1.794000149,2,0.748999834,1,0,1200,945,1,1199,demon,11118,2019-10-22_15h58.41.524,SurveyExpMetaMem,3.2.3,MacIntel,60
,,,,,,,,,,,,,,,,,,,,2,2.93900013,5,0.427999973,1,0,1200,1187,1,1199,drill,11118,2019-10-22_15h58.41.524,SurveyExpMetaMem,3.2.3,MacIntel,60
,,,,,,,,,,,,,,,,,,,,2,1.207000017,5,0.391000032,1,0,1200,220,1,1199,reef,11118,2019-10-22_15h58.41.524,SurveyExpMetaMem,3.2.3,MacIntel,60
,,,,,,,,,,,,,,,,,,,,2,2.947999954,3,0.521999836,1,0,1200,333,1,1199,weak,11118,2019-10-22_15h58.41.524,SurveyExpMetaMem,3.2.3,MacIntel,60
,,,,,,,,,,,,,,,,,,,,2,1.559000015,5,0.381000042,1,0,1200,651,1,1199,bathroom,11118,2019-10-22_15h58.41.524,SurveyExpMetaMem,3.2.3,MacIntel,60
,,,,,,,,,,,,,,,,,,,,3,9.493000031,5,1.842999935,1,0,1200,757,1,1199,sentiment,11118,2019-10-22_15h58.41.524,SurveyExpMetaMem,3.2.3,MacIntel,60
,,,,,,,,,,,,,,,,,,,,3,2.611999989,5,0.444000006,1,0,1200,423,1,1199,stain,11118,2019-10-22_15h58.41.524,SurveyExpMetaMem,3.2.3,MacIntel,60
,,,,,,,,,,,,,,,,,,,,8,1.756000042,2,0.857000113,1,0,1200,1024,1,1199,burn,11118,2019-10-22_15h58.41.524,SurveyExpMetaMem,3.2.3,MacIntel,60
,,,,,,,,,,,,,,,,,,,,9,1.806999922,3,1.874000072,1,0,1200,1196,1,1199,breathless,11118,2019-10-22_15h58.41.524,SurveyExpMetaMem,3.2.3,MacIntel,60
,,,,,,,,,,,,,,,,,,,,7,2.741000175,8,1.202000141,1,0,1200,235,1,1199,cheery,11118,2019-10-22_15h58.41.524,SurveyExpMetaMem,3.2.3,MacIntel,60
,,,,,,,,,,,,,,,,,,,,9,1.402999878,2,1.025999784,1,0,1200,1129,1,1199,spanking,11118,2019-10-22_15h58.41.524,SurveyExpMetaMem,3.2.3,MacIntel,60
,,,,,,,,,,,,,,,,,,,,2,2.241000175,5,0.546999931,1,0,1200,430,1,1199,cancel,11118,2019-10-22_15h58.41.524,SurveyExpMetaMem,3.2.3,MacIntel,60
,,,,,,,,,,,,,,,,,,,,7,4.853999853,4,1.174000025,1,0,1200,251,1,1199,meteor,11118,2019-10-22_15h58.41.524,SurveyExpMetaMem,3.2.3,MacIntel,60
,,,,,,,,,,,,,,,,,,,,2,1.953999996,5,0.345000029,1,0,1200,425,1,1199,crutch,11118,2019-10-22_15h58.41.524,SurveyExpMetaMem,3.2.3,MacIntel,60
,,,,,,,,,,,,,,,,,,,,7,4.20600009,9,0.490999937,1,0,1200,196,1,1199,smile,11118,2019-10-22_15h58.41.524,SurveyExpMetaMem,3.2.3,MacIntel,60
,,,,,,,,,,,,,,,,,,,,9,1.973999977,9,0.624000072,1,0,1200,78,1,1199,energetic,11118,2019-10-22_15h58.41.524,SurveyExpMetaMem,3.2.3,MacIntel,60
,,,,,,,,,,,,,,,,,,,,2,3.542000055,5,0.407999992,1,0,1200,257,1,1199,cockpit,11118,2019-10-22_15h58.41.524,SurveyExpMetaMem,3.2.3,MacIntel,60
,,,,,,,,,,,,,,,,,,,,9,1.861999989,2,0.82400012,1,0,1200,1186,1,1199,goddamn,11118,2019-10-22_15h58.41.524,SurveyExpMetaMem,3.2.3,MacIntel,60
,,,,,,,,,,,,,,,,,,,,9,1.108999968,2,0.443000078,1,0,1200,1038,1,1199,pervert,11118,2019-10-22_15h58.41.524,SurveyExpMetaMem,3.2.3,MacIntel,60
,,,,,,,,,,,,,,,,,,,,8,2.405999899,1,0.509000063,1,0,1200,1037,1,1199,scared,11118,2019-10-22_15h58.41.524,SurveyExpMetaMem,3.2.3,MacIntel,60
,,,,,,,,,,,,,,,,,,,,2,2.312999964,5,0.361000061,1,0,1200,640,1,1199,cabin,11118,2019-10-22_15h58.41.524,SurveyExpMetaMem,3.2.3,MacIntel,60
,,,,,,,,,,,,,,,,,,,,1,3.35800004,4,1.257999897,1,0,1200,428,1,1199,end,11118,2019-10-22_15h58.41.524,SurveyExpMetaMem,3.2.3,MacIntel,60
,,,,,,,,,,,,,,,,,,,,3,3.723999977,2,0.411000013,1,0,1200,373,1,1199,ignorance,11118,2019-10-22_15h58.41.524,SurveyExpMetaMem,3.2.3,MacIntel,60
,,,,,,,,,,,,,,,,,,,,2,1.957999945,5,0.39199996,1,0,1200,813,1,1199,walking,11118,2019-10-22_15h58.41.524,SurveyExpMetaMem,3.2.3,MacIntel,60
,,,,,,,,,,,,,,,,,,,,2,1.97300005,5,0.372999907,1,0,1200,260,1,1199,control,11118,2019-10-22_15h58.41.524,SurveyExpMetaMem,3.2.3,MacIntel,60
,,,,,,,,,,,,,,,,,,,,2,1.010999918,5,0.358999968,1,0,1200,454,1,1199,damp,11118,2019-10-22_15h58.41.524,SurveyExpMetaMem,3.2.3,MacIntel,60
,,,,,,,,,,,,,,,,,,,,2,1.690999985,5,0.391000032,1,0,1200,620,1,1199,spray,11118,2019-10-22_15h58.41.524,SurveyExpMetaMem,3.2.3,MacIntel,60
,,,,,,,,,,,,,,,,,,,,7,2.275999784,9,0.404000044,1,0,1200,195,1,1199,laughing,11118,2019-10-22_15h58.41.524,SurveyExpMetaMem,3.2.3,MacIntel,60
,,,,,,,,,,,,,,,,,,,,3,2.679999828,9,0.690999985,1,0,1200,166,1,1199,unite,11118,2019-10-22_15h58.41.524,SurveyExpMetaMem,3.2.3,MacIntel,60
,,,,,,,,,,,,,,,,,,,,4,1.95299983,9,0.442000151,1,0,1200,647,1,1199,accord,11118,2019-10-22_15h58.41.524,SurveyExpMetaMem,3.2.3,MacIntel,60
,,,,,,,,,,,,,,,,,,,,2,1.720999956,5,0.332000017,1,0,1200,965,1,1199,traffic,11118,2019-10-22_15h58.41.524,SurveyExpMetaMem,3.2.3,MacIntel,60
,,,,,,,,,,,,,,,,,,,,2,2.746999979,6,1.421999931,1,0,1200,842,1,1199,breathe,11118,2019-10-22_15h58.41.524,SurveyExpMetaMem,3.2.3,MacIntel,60
,,,,,,,,,,,,,,,,,,,,1,2.906000137,8,1.090999842,1,0,1200,881,1,1199,protected,11118,2019-10-22_15h58.41.524,SurveyExpMetaMem,3.2.3,MacIntel,60
,,,,,,,,,,,,,,,,,,,,9,1.562000036,1,0.963000059,1,0,1200,904,1,1199,murderer,11118,2019-10-22_15h58.41.524,SurveyExpMetaMem,3.2.3,MacIntel,60
,,,,,,,,,,,,,,,,,,,,2,1.657000065,5,0.424000025,1,0,1200,75,1,1199,actor,11118,2019-10-22_15h58.41.524,SurveyExpMetaMem,3.2.3,MacIntel,60
,,,,,,,,,,,,,,,,,,,,5,3.255000114,9,0.790999889,1,0,1200,15,1,1199,curiosity,11118,2019-10-22_15h58.41.524,SurveyExpMetaMem,3.2.3,MacIntel,60
,,,,,,,,,,,,,,,,,,,,2,3.438999891,5,0.323999882,1,0,1200,679,1,1199,yellow,11118,2019-10-22_15h58.41.524,SurveyExpMetaMem,3.2.3,MacIntel,60
,,,,,,,,,,,,,,,,,,,,2,5.725999832,7,0.678000212,1,0,1200,246,1,1199,complete,11118,2019-10-22_15h58.41.524,SurveyExpMetaMem,3.2.3,MacIntel,60
,,,,,,,,,,,,,,,,,,,,9,1.697000027,1,0.697999954,1,0,1200,1132,1,1199,anarchy,11118,2019-10-22_15h58.41.524,SurveyExpMetaMem,3.2.3,MacIntel,60
,,,,,,,,,,,,,,,,,,,,2,2.154999971,5,0.371999979,1,0,1200,404,1,1199,nuisance,11118,2019-10-22_15h58.41.524,SurveyExpMetaMem,3.2.3,MacIntel,60
,,,,,,,,,,,,,,,,,,,,8,3.372999907,3,1.690000057,1,0,1200,1110,1,1199,bastard,11118,2019-10-22_15h58.41.524,SurveyExpMetaMem,3.2.3,MacIntel,60
,,,,,,,,,,,,,,,,,,,,2,1.391000032,5,0.427999973,1,0,1200,698,1,1199,oven,11118,2019-10-22_15h58.41.524,SurveyExpMetaMem,3.2.3,MacIntel,60
,,,,,,,,,,,,,,,,,,,,8,1.791000128,2,0.974999905,1,0,1200,963,1,1199,dreadful,11118,2019-10-22_15h58.41.524,SurveyExpMetaMem,3.2.3,MacIntel,60
,,,,,,,,,,,,,,,,,,,,2,1.40899992,5,0.414000034,1,0,1200,1093,1,1199,hive,11118,2019-10-22_15h58.41.524,SurveyExpMetaMem,3.2.3,MacIntel,60
,,,,,,,,,,,,,,,,,,,,8,3.289000034,2,0.724999905,1,0,1200,308,1,1199,worthless,11118,2019-10-22_15h58.41.524,SurveyExpMetaMem,3.2.3,MacIntel,60
,,,,,,,,,,,,,,,,,,,,2,2.506000042,5,0.375999928,1,0,1200,531,1,1199,omit,11118,2019-10-22_15h58.41.524,SurveyExpMetaMem,3.2.3,MacIntel,60
,,,,,,,,,,,,,,,,,,,,2,2.57400012,7,0.457999945,1,0,1200,637,1,1199,flock,11118,2019-10-22_15h58.41.524,SurveyExpMetaMem,3.2.3,MacIntel,60
,,,,,,,,,,,,,,,,,,,,6,3.077000141,3,0.409000158,1,0,1200,369,1,1199,blind,11118,2019-10-22_15h58.41.524,SurveyExpMetaMem,3.2.3,MacIntel,60
,,,,,,,,,,,,,,,,,,,,8,2.674000025,2,0.891000032,1,0,1200,1099,1,1199,fire,11118,2019-10-22_15h58.41.524,SurveyExpMetaMem,3.2.3,MacIntel,60
,,,,,,,,,,,,,,,,,,,,9,1.187999964,1,0.455999851,1,0,1200,456,1,1199,piss,11118,2019-10-22_15h58.41.524,SurveyExpMetaMem,3.2.3,MacIntel,60
,,,,,,,,,,,,,,,,,,,,7,2.441999912,1,0.933000088,1,0,1200,1048,1,1199,paranoid,11118,2019-10-22_15h58.41.524,SurveyExpMetaMem,3.2.3,MacIntel,60
,,,,,,,,,,,,,,,,,,,,8,3.109000206,1,0.440999985,1,0,1200,462,1,1199,shallow,11118,2019-10-22_15h58.41.524,SurveyExpMetaMem,3.2.3,MacIntel,60
,,,,,,,,,,,,,,,,,,,,6,2.294999838,5,0.957000017,1,0,1200,783,1,1199,sprinkle,11118,2019-10-22_15h58.41.524,SurveyExpMetaMem,3.2.3,MacIntel,60
,,,,,,,,,,,,,,,,,,,,7,2.155999899,9,0.444000006,1,0,1200,124,1,1199,honeymoon,11118,2019-10-22_15h58.41.524,SurveyExpMetaMem,3.2.3,MacIntel,60
,,,,,,,,,,,,,,,,,,,,6,2.282000065,7,0.458000183,1,0,1200,556,1,1199,allege,11118,2019-10-22_15h58.41.524,SurveyExpMetaMem,3.2.3,MacIntel,60
,,,,,,,,,,,,,,,,,,,,2,1.726999998,5,0.424999952,1,0,1200,53,1,1199,lotion,11118,2019-10-22_15h58.41.524,SurveyExpMetaMem,3.2.3,MacIntel,60
,,,,,,,,,,,,,,,,,,,,2,3.625,5,0.340999842,1,0,1200,656,1,1199,number,11118,2019-10-22_15h58.41.524,SurveyExpMetaMem,3.2.3,MacIntel,60
,,,,,,,,,,,,,,,,,,,,5,2.407999992,5,0.524999857,1,0,1200,64,1,1199,brain,11118,2019-10-22_15h58.41.524,SurveyExpMetaMem,3.2.3,MacIntel,60
,,,,,,,,,,,,,,,,,,,,4,1.426000118,5,0.309000015,1,0,1200,778,1,1199,adorn,11118,2019-10-22_15h58.41.524,SurveyExpMetaMem,3.2.3,MacIntel,60
,,,,,,,,,,,,,,,,,,,,8,1.91899991,3,0.724999905,1,0,1200,1059,1,1199,harsh,11118,2019-10-22_15h58.41.524,SurveyExpMetaMem,3.2.3,MacIntel,60
,,,,,,,,,,,,,,,,,,,,2,2.756000042,6,0.628999949,1,0,1200,883,1,1199,sky,11118,2019-10-22_15h58.41.524,SurveyExpMetaMem,3.2.3,MacIntel,60
,,,,,,,,,,,,,,,,,,,,4,3.223999977,9,0.722999811,1,0,1200,139,1,1199,generosity,11118,2019-10-22_15h58.41.524,SurveyExpMetaMem,3.2.3,MacIntel,60
,,,,,,,,,,,,,,,,,,,,2,3.398000002,5,0.322000027,1,0,1200,710,1,1199,gender,11118,2019-10-22_15h58.41.524,SurveyExpMetaMem,3.2.3,MacIntel,60
,,,,,,,,,,,,,,,,,,,,9,3.273999929,1,0.656000137,1,0,1200,905,1,1199,suffocate,11118,2019-10-22_15h58.41.524,SurveyExpMetaMem,3.2.3,MacIntel,60
,,,,,,,,,,,,,,,,,,,,5,1.605000019,5,0.392999887,1,0,1200,66,1,1199,zest,11118,2019-10-22_15h58.41.524,SurveyExpMetaMem,3.2.3,MacIntel,60
,,,,,,,,,,,,,,,,,,,,3,2.618000031,8,0.829999924,1,0,1200,848,1,1199,graceful,11118,2019-10-22_15h58.41.524,SurveyExpMetaMem,3.2.3,MacIntel,60
,,,,,,,,,,,,,,,,,,,,9,1.437999964,1,2.598999977,1,0,1200,967,1,1199,horrible,11118,2019-10-22_15h58.41.524,SurveyExpMetaMem,3.2.3,MacIntel,60
,,,,,,,,,,,,,,,,,,,,2,3.657999992,5,0.309000015,1,0,1200,437,1,1199,blubber,11118,2019-10-22_15h58.41.524,SurveyExpMetaMem,3.2.3,MacIntel,60
,,,,,,,,,,,,,,,,,,,,4,4.639999866,2,0.897000074,1,0,1200,1018,1,1199,distress,11118,2019-10-22_15h58.41.524,SurveyExpMetaMem,3.2.3,MacIntel,60
,,,,,,,,,,,,,,,,,,,,2,2.039000034,5,0.315000057,1,0,1200,466,1,1199,gnaw,11118,2019-10-22_15h58.41.524,SurveyExpMetaMem,3.2.3,MacIntel,60
,,,,,,,,,,,,,,,,,,,,2,7.523000002,5,0.355000019,1,0,1200,843,1,1199,garden,11118,2019-10-22_15h58.41.524,SurveyExpMetaMem,3.2.3,MacIntel,60
,,,,,,,,,,,,,,,,,,,,6,2.257999897,5,0.809000015,1,0,1200,4,1,1199,night,11118,2019-10-22_15h58.41.524,SurveyExpMetaMem,3.2.3,MacIntel,60
,,,,,,,,,,,,,,,,,,,,8,1.942000151,2,0.779999971,1,0,1200,1095,1,1199,fright,11118,2019-10-22_15h58.41.524,SurveyExpMetaMem,3.2.3,MacIntel,60
,,,,,,,,,,,,,,,,,,,,7,1.555999994,3,0.447000027,1,0,1200,1160,1,1199,enlist,11118,2019-10-22_15h58.41.524,SurveyExpMetaMem,3.2.3,MacIntel,60
,,,,,,,,,,,,,,,,,,,,6,2.743000031,1,0.424000025,1,0,1200,1098,1,1199,confused,11118,2019-10-22_15h58.41.524,SurveyExpMetaMem,3.2.3,MacIntel,60
,,,,,,,,,,,,,,,,,,,,5,1.328999996,3,0.67599988,1,0,1200,349,1,1199,mope,11118,2019-10-22_15h58.41.524,SurveyExpMetaMem,3.2.3,MacIntel,60
,,,,,,,,,,,,,,,,,,,,3,4.493999958,5,0.407999992,1,0,1200,899,1,1199,relax,11118,2019-10-22_15h58.41.524,SurveyExpMetaMem,3.2.3,MacIntel,60
,,,,,,,,,,,,,,,,,,,,3,2.072000027,7,0.796999931,1,0,1200,238,1,1199,sunshine,11118,2019-10-22_15h58.41.524,SurveyExpMetaMem,3.2.3,MacIntel,60
,,,,,,,,,,,,,,,,,,,,8,2.707000017,2,1.546000004,1,0,1200,364,1,1199,stink,11118,2019-10-22_15h58.41.524,SurveyExpMetaMem,3.2.3,MacIntel,60
,,,,,,,,,,,,,,,,,,,,2,2.657999992,5,0.565000057,1,0,1200,660,1,1199,rock,11118,2019-10-22_15h58.41.524,SurveyExpMetaMem,3.2.3,MacIntel,60
,,,,,,,,,,,,,,,,,,,,2,3.023999929,5,0.342000008,1,0,1200,822,1,1199,clearer,11118,2019-10-22_15h58.41.524,SurveyExpMetaMem,3.2.3,MacIntel,60
,,,,,,,,,,,,,,,,,,,,2,2.667999983,5,0.258000135,1,0,1200,1182,1,1199,pierce,11118,2019-10-22_15h58.41.524,SurveyExpMetaMem,3.2.3,MacIntel,60
,,,,,,,,,,,,,,,,,,,,2,5.989000082,5,0.374000072,1,0,1200,289,1,1199,concert,11118,2019-10-22_15h58.41.524,SurveyExpMetaMem,3.2.3,MacIntel,60
,,,,,,,,,,,,,,,,,,,,2,8.370000124,5,0.394999981,1,0,1200,334,1,1199,trash,11118,2019-10-22_15h58.41.524,SurveyExpMetaMem,3.2.3,MacIntel,60
,,,,,,,,,,,,,,,,,,,,2,1.590000153,5,0.457999945,1,0,1200,150,1,1199,vodka,11118,2019-10-22_15h58.41.524,SurveyExpMetaMem,3.2.3,MacIntel,60
,,,,,,,,,,,,,,,,,,,,1,2.707000017,7,0.613999844,1,0,1200,753,1,1199,patience,11118,2019-10-22_15h58.41.524,SurveyExpMetaMem,3.2.3,MacIntel,60
,,,,,,,,,,,,,,,,,,,,2,1.559000015,5,0.368999958,1,0,1200,1191,1,1199,evade,11118,2019-10-22_15h58.41.524,SurveyExpMetaMem,3.2.3,MacIntel,60
,,,,,,,,,,,,,,,,,,,,9,1.694000006,2,0.523999929,1,0,1200,1174,1,1199,beast,11118,2019-10-22_15h58.41.524,SurveyExpMetaMem,3.2.3,MacIntel,60
,,,,,,,,,,,,,,,,,,,,1,3.872999907,4,1.070999861,1,0,1200,737,1,1199,lamb,11118,2019-10-22_15h58.41.524,SurveyExpMetaMem,3.2.3,MacIntel,60
,,,,,,,,,,,,,,,,,,,,9,4.907000065,7,1.389999866,1,0,1200,108,1,1199,naked,11118,2019-10-22_15h58.41.524,SurveyExpMetaMem,3.2.3,MacIntel,60
,,,,,,,,,,,,,,,,,,,,7,2.651000023,8,0.490999937,1,0,1200,294,1,1199,confident,11118,2019-10-22_15h58.41.524,SurveyExpMetaMem,3.2.3,MacIntel,60
,,,,,,,,,,,,,,,,,,,,2,2.190000057,7,1.610000134,1,0,1200,878,1,1199,sleep,11118,2019-10-22_15h58.41.524,SurveyExpMetaMem,3.2.3,MacIntel,60
,,,,,,,,,,,,,,,,,,,,7,2.642999887,7,1.225000143,1,0,1200,28,1,1199,energy,11118,2019-10-22_15h58.41.524,SurveyExpMetaMem,3.2.3,MacIntel,60
,,,,,,,,,,,,,,,,,,,,3,1.773000002,5,1.659000158,1,0,1200,1154,1,1199,politics,11118,2019-10-22_15h58.41.524,SurveyExpMetaMem,3.2.3,MacIntel,60
,,,,,,,,,,,,,,,,,,,,8,2.204999924,2,1.374000072,1,0,1200,908,1,1199,suffer,11118,2019-10-22_15h58.41.524,SurveyExpMetaMem,3.2.3,MacIntel,60
,,,,,,,,,,,,,,,,,,,,5,2.278000116,5,4.226999998,1,0,1200,841,1,1199,bathtub,11118,2019-10-22_15h58.41.524,SurveyExpMetaMem,3.2.3,MacIntel,60
,,,,,,,,,,,,,,,,,,,,3,4.148000002,2,1.374000072,1,0,1200,931,1,1199,overweight,11118,2019-10-22_15h58.41.524,SurveyExpMetaMem,3.2.3,MacIntel,60
,,,,,,,,,,,,,,,,,,,,3,2.02699995,5,0.376000166,1,0,1200,1190,1,1199,clench,11118,2019-10-22_15h58.41.524,SurveyExpMetaMem,3.2.3,MacIntel,60
,,,,,,,,,,,,,,,,,,,,3,2.954999924,5,0.328000069,1,0,1200,686,1,1199,phone,11118,2019-10-22_15h58.41.524,SurveyExpMetaMem,3.2.3,MacIntel,60
,,,,,,,,,,,,,,,,,,,,6,2.489000082,8,0.473999977,1,0,1200,42,1,1199,accomplish,11118,2019-10-22_15h58.41.524,SurveyExpMetaMem,3.2.3,MacIntel,60
,,,,,,,,,,,,,,,,,,,,4,3.642999887,8,0.606000185,1,0,1200,775,1,1199,pancakes,11118,2019-10-22_15h58.41.524,SurveyExpMetaMem,3.2.3,MacIntel,60
,,,,,,,,,,,,,,,,,,,,3,1.871999979,5,0.989000082,1,0,1200,681,1,1199,fig,11118,2019-10-22_15h58.41.524,SurveyExpMetaMem,3.2.3,MacIntel,60
,,,,,,,,,,,,,,,,,,,,8,2.321000099,7,0.993000031,1,0,1200,193,1,1199,party,11118,2019-10-22_15h58.41.524,SurveyExpMetaMem,3.2.3,MacIntel,60
,,,,,,,,,,,,,,,,,,,,8,2.414999962,5,0.59100008,1,0,1200,255,1,1199,ass,11118,2019-10-22_15h58.41.524,SurveyExpMetaMem,3.2.3,MacIntel,60
,,,,,,,,,,,,,,,,,,,,4,2.493999958,5,0.811999798,1,0,1200,736,1,1199,hawk,11118,2019-10-22_15h58.41.524,SurveyExpMetaMem,3.2.3,MacIntel,60
,,,,,,,,,,,,,,,,,,,,2,3.954999924,5,0.709000111,1,0,1200,1040,1,1199,communism,11118,2019-10-22_15h58.41.524,SurveyExpMetaMem,3.2.3,MacIntel,60
,,,,,,,,,,,,,,,,,,,,6,2.289999962,7,1.389999866,1,0,1200,97,1,1199,enthusiastic,11118,2019-10-22_15h58.41.524,SurveyExpMetaMem,3.2.3,MacIntel,60
,,,,,,,,,,,,,,,,,,,,3,3.858999968,3,2.592000008,1,0,1200,1181,1,1199,blade,11118,2019-10-22_15h58.41.524,SurveyExpMetaMem,3.2.3,MacIntel,60
,,,,,,,,,,,,,,,,,,,,5,7.95600009,5,0.358999968,1,0,1200,805,1,1199,autumn,11118,2019-10-22_15h58.41.524,SurveyExpMetaMem,3.2.3,MacIntel,60
,,,,,,,,,,,,,,,,,,,,5,2.312000036,5,0.342000008,1,0,1200,688,1,1199,jelly,11118,2019-10-22_15h58.41.524,SurveyExpMetaMem,3.2.3,MacIntel,60
,,,,,,,,,,,,,,,,,,,,7,6.928999901,2,0.479000092,1,0,1200,351,1,1199,germs,11118,2019-10-22_15h58.41.524,SurveyExpMetaMem,3.2.3,MacIntel,60
,,,,,,,,,,,,,,,,,,,,4,3.31400013,7,0.790999889,1,0,1200,270,1,1199,toddler,11118,2019-10-22_15h58.41.524,SurveyExpMetaMem,3.2.3,MacIntel,60
,,,,,,,,,,,,,,,,,,,,5,2.171999931,5,0.373000145,1,0,1200,418,1,1199,cheapskate,11118,2019-10-22_15h58.41.524,SurveyExpMetaMem,3.2.3,MacIntel,60
,,,,,,,,,,,,,,,,,,,,7,4.072000027,3,1.211999893,1,0,1200,427,1,1199,doubt,11118,2019-10-22_15h58.41.524,SurveyExpMetaMem,3.2.3,MacIntel,60
,,,,,,,,,,,,,,,,,,,,9,1.472000122,3,0.542000055,1,0,1200,1011,1,1199,robber,11118,2019-10-22_15h58.41.524,SurveyExpMetaMem,3.2.3,MacIntel,60
,,,,,,,,,,,,,,,,,,,,6,2.720999956,7,0.43200016,1,0,1200,712,1,1199,harvest,11118,2019-10-22_15h58.41.524,SurveyExpMetaMem,3.2.3,MacIntel,60
,,,,,,,,,,,,,,,,,,,,8,1.83100009,3,0.547999859,1,0,1200,1086,1,1199,irritate,11118,2019-10-22_15h58.41.524,SurveyExpMetaMem,3.2.3,MacIntel,60
,,,,,,,,,,,,,,,,,,,,9,1.239000082,2,0.441999912,1,0,1200,1161,1,1199,shock,11118,2019-10-22_15h58.41.524,SurveyExpMetaMem,3.2.3,MacIntel,60
,,,,,,,,,,,,,,,,,,,,5,1.786000013,5,0.375999928,1,0,1200,693,1,1199,key,11118,2019-10-22_15h58.41.524,SurveyExpMetaMem,3.2.3,MacIntel,60
,,,,,,,,,,,,,,,,,,,,6,2.628999949,7,0.740999937,1,0,1200,884,1,1199,grateful,11118,2019-10-22_15h58.41.524,SurveyExpMetaMem,3.2.3,MacIntel,60
,,,,,,,,,,,,,,,,,,,,3,2.371999979,7,0.455999851,1,0,1200,825,1,1199,swan,11118,2019-10-22_15h58.41.524,SurveyExpMetaMem,3.2.3,MacIntel,60
,,,,,,,,,,,,,,,,,,,,3,3.296000004,2,0.726000071,1,0,1200,496,1,1199,slow,11118,2019-10-22_15h58.41.524,SurveyExpMetaMem,3.2.3,MacIntel,60
,,,,,,,,,,,,,,,,,,,,5,2.029000044,8,0.506999969,1,0,1200,40,1,1199,kissing,11118,2019-10-22_15h58.41.524,SurveyExpMetaMem,3.2.3,MacIntel,60
,,,,,,,,,,,,,,,,,,,,7,3.105999947,1,1.006000042,1,0,1200,999,1,1199,burdened,11118,2019-10-22_15h58.41.524,SurveyExpMetaMem,3.2.3,MacIntel,60
,,,,,,,,,,,,,,,,,,,,4,2.460000038,1,0.421999931,1,0,1200,379,1,1199,slob,11118,2019-10-22_15h58.41.524,SurveyExpMetaMem,3.2.3,MacIntel,60
,,,,,,,,,,,,,,,,,,,,5,2.722000122,5,3.24000001,1,0,1200,623,1,1199,suburban,11118,2019-10-22_15h58.41.524,SurveyExpMetaMem,3.2.3,MacIntel,60
,,,,,,,,,,,,,,,,,,,,5,1.642000198,5,0.292000055,1,0,1200,673,1,1199,bedspread,11118,2019-10-22_15h58.41.524,SurveyExpMetaMem,3.2.3,MacIntel,60
,,,,,,,,,,,,,,,,,,,,5,2.322999954,3,0.447000027,1,0,1200,489,1,1199,timid,11118,2019-10-22_15h58.41.524,SurveyExpMetaMem,3.2.3,MacIntel,60
,,,,,,,,,,,,,,,,,,,,6,3.134000063,3,0.64199996,1,0,1200,320,1,1199,deformed,11118,2019-10-22_15h58.41.524,SurveyExpMetaMem,3.2.3,MacIntel,60
,,,,,,,,,,,,,,,,,,,,5,1.356999874,5,0.256000042,1,0,1200,128,1,1199,supper,11118,2019-10-22_15h58.41.524,SurveyExpMetaMem,3.2.3,MacIntel,60
,,,,,,,,,,,,,,,,,,,,5,2.536999941,5,0.210000038,1,0,1200,749,1,1199,glasses,11118,2019-10-22_15h58.41.524,SurveyExpMetaMem,3.2.3,MacIntel,60
,,,,,,,,,,,,,,,,,,,,3,3.690000057,5,0.765000105,1,0,1200,581,1,1199,dork,11118,2019-10-22_15h58.41.524,SurveyExpMetaMem,3.2.3,MacIntel,60
,,,,,,,,,,,,,,,,,,,,3,2.304999828,5,0.424000025,1,0,1200,643,1,1199,library,11118,2019-10-22_15h58.41.524,SurveyExpMetaMem,3.2.3,MacIntel,60
,,,,,,,,,,,,,,,,,,,,4,2.808000088,7,0.988000154,1,0,1200,228,1,1199,suite,11118,2019-10-22_15h58.41.524,SurveyExpMetaMem,3.2.3,MacIntel,60
,,,,,,,,,,,,,,,,,,,,5,3.174000025,7,0.836000204,1,0,1200,277,1,1199,cupcake,11118,2019-10-22_15h58.41.524,SurveyExpMetaMem,3.2.3,MacIntel,60
,,,,,,,,,,,,,,,,,,,,5,2.756999969,7,0.428999901,1,0,1200,780,1,1199,grass,11118,2019-10-22_15h58.41.524,SurveyExpMetaMem,3.2.3,MacIntel,60
,,,,,,,,,,,,,,,,,,,,8,1.77699995,2,0.513999939,1,0,1200,1156,1,1199,weapon,11118,2019-10-22_15h58.41.524,SurveyExpMetaMem,3.2.3,MacIntel,60
,,,,,,,,,,,,,,,,,,,,5,1.372999907,5,0.398000002,1,0,1200,632,1,1199,avenue,11118,2019-10-22_15h58.41.524,SurveyExpMetaMem,3.2.3,MacIntel,60
,,,,,,,,,,,,,,,,,,,,8,2.756999969,2,0.806999922,1,0,1200,973,1,1199,anger,11118,2019-10-22_15h58.41.524,SurveyExpMetaMem,3.2.3,MacIntel,60
,,,,,,,,,,,,,,,,,,,,5,1.84100008,5,0.33100009,1,0,1200,448,1,1199,depart,11118,2019-10-22_15h58.41.524,SurveyExpMetaMem,3.2.3,MacIntel,60
,,,,,,,,,,,,,,,,,,,,5,4.204999924,5,0.156999826,1,0,1200,650,1,1199,native,11118,2019-10-22_15h58.41.524,SurveyExpMetaMem,3.2.3,MacIntel,60
,,,,,,,,,,,,,,,,,,,,5,2.188999891,5,0.276000023,1,0,1200,639,1,1199,outlet,11118,2019-10-22_15h58.41.524,SurveyExpMetaMem,3.2.3,MacIntel,60
,,,,,,,,,,,,,,,,,,,,5,1.681999922,5,0.362999916,1,0,1200,721,1,1199,contemporary,11118,2019-10-22_15h58.41.524,SurveyExpMetaMem,3.2.3,MacIntel,60
,,,,,,,,,,,,,,,,,,,,8,1.806000233,3,0.473999977,1,0,1200,1007,1,1199,tornado,11118,2019-10-22_15h58.41.524,SurveyExpMetaMem,3.2.3,MacIntel,60
,,,,,,,,,,,,,,,,,,,,6,4.621999979,1,0.707999945,1,0,1200,1135,1,1199,thirsty,11118,2019-10-22_15h58.41.524,SurveyExpMetaMem,3.2.3,MacIntel,60
,,,,,,,,,,,,,,,,,,,,3,3.67200017,8,0.548000097,1,0,1200,862,1,1199,ease,11118,2019-10-22_15h58.41.524,SurveyExpMetaMem,3.2.3,MacIntel,60
,,,,,,,,,,,,,,,,,,,,9,1.42200017,1,0.482000113,1,0,1200,1047,1,1199,psycho,11118,2019-10-22_15h58.41.524,SurveyExpMetaMem,3.2.3,MacIntel,60
,,,,,,,,,,,,,,,,,,,,5,1.592999935,5,0.254999876,1,0,1200,755,1,1199,soap,11118,2019-10-22_15h58.41.524,SurveyExpMetaMem,3.2.3,MacIntel,60
,,,,,,,,,,,,,,,,,,,,6,2.874000072,9,0.460000038,1,0,1200,68,1,1199,perfect,11118,2019-10-22_15h58.41.524,SurveyExpMetaMem,3.2.3,MacIntel,60
,,,,,,,,,,,,,,,,,,,,8,2.357000113,1,0.475000143,1,0,1200,1027,1,1199,criticism,11118,2019-10-22_15h58.41.524,SurveyExpMetaMem,3.2.3,MacIntel,60
,,,,,,,,,,,,,,,,,,,,6,1.638999939,3,0.410000086,1,0,1200,603,1,1199,mane,11118,2019-10-22_15h58.41.524,SurveyExpMetaMem,3.2.3,MacIntel,60
,,,,,,,,,,,,,,,,,,,,5,1.643000126,5,0.315000057,1,0,1200,1173,1,1199,lurk,11118,2019-10-22_15h58.41.524,SurveyExpMetaMem,3.2.3,MacIntel,60
,,,,,,,,,,,,,,,,,,,,5,2.20600009,7,0.339999914,1,0,1200,568,1,1199,therapy,11118,2019-10-22_15h58.41.524,SurveyExpMetaMem,3.2.3,MacIntel,60
,,,,,,,,,,,,,,,,,,,,8,2.042000055,7,0.825999975,1,0,1200,286,1,1199,superstar,11118,2019-10-22_15h58.41.524,SurveyExpMetaMem,3.2.3,MacIntel,60
,,,,,,,,,,,,,,,,,,,,5,1.611000061,5,0.327000141,1,0,1200,730,1,1199,slogan,11118,2019-10-22_15h58.41.524,SurveyExpMetaMem,3.2.3,MacIntel,60
,,,,,,,,,,,,,,,,,,,,6,2.389999866,9,0.602999926,1,0,1200,868,1,1199,grace,11118,2019-10-22_15h58.41.524,SurveyExpMetaMem,3.2.3,MacIntel,60
,,,,,,,,,,,,,,,,,,,,5,2.028000116,5,0.291000128,1,0,1200,459,1,1199,heavy,11118,2019-10-22_15h58.41.524,SurveyExpMetaMem,3.2.3,MacIntel,60
,,,,,,,,,,,,,,,,,,,,7,2.144999981,6,1.010999918,1,0,1200,1180,1,1199,heat,11118,2019-10-22_15h58.41.524,SurveyExpMetaMem,3.2.3,MacIntel,60
,,,,,,,,,,,,,,,,,,,,5,1.111999989,5,0.290999889,1,0,1200,706,1,1199,cat,11118,2019-10-22_15h58.41.524,SurveyExpMetaMem,3.2.3,MacIntel,60
,,,,,,,,,,,,,,,,,,,,6,3.888999939,9,0.366000175,1,0,1200,37,1,1199,magnificence,11118,2019-10-22_15h58.41.524,SurveyExpMetaMem,3.2.3,MacIntel,60
,,,,,,,,,,,,,,,,,,,,4,2.28000021,9,0.363999844,1,0,1200,27,1,1199,gourmet,11118,2019-10-22_15h58.41.524,SurveyExpMetaMem,3.2.3,MacIntel,60
,,,,,,,,,,,,,,,,,,,,8,2.521000147,1,0.440999985,1,0,1200,1104,1,1199,avalanche,11118,2019-10-22_15h58.41.524,SurveyExpMetaMem,3.2.3,MacIntel,60
,,,,,,,,,,,,,,,,,,,,5,2.454999924,5,0.25999999,1,0,1200,339,1,1199,chore,11118,2019-10-22_15h58.41.524,SurveyExpMetaMem,3.2.3,MacIntel,60
,,,,,,,,,,,,,,,,,,,,8,1.791000128,7,0.641000032,1,0,1200,299,1,1199,champion,11118,2019-10-22_15h58.41.524,SurveyExpMetaMem,3.2.3,MacIntel,60
,,,,,,,,,,,,,,,,,,,,5,1.388999939,5,0.270999908,1,0,1200,913,1,1199,ulcer,11118,2019-10-22_15h58.41.524,SurveyExpMetaMem,3.2.3,MacIntel,60
,,,,,,,,,,,,,,,,,,,,5,8.112000227,5,0.275000095,1,0,1200,691,1,1199,circle,11118,2019-10-22_15h58.41.524,SurveyExpMetaMem,3.2.3,MacIntel,60
,,,,,,,,,,,,,,,,,,,,5,1.187000036,5,0.27699995,1,0,1200,2,1,1199,zealous,11118,2019-10-22_15h58.41.524,SurveyExpMetaMem,3.2.3,MacIntel,60
,,,,,,,,,,,,,,,,,,,,5,2.907000065,6,0.209000111,1,0,1200,178,1,1199,alive,11118,2019-10-22_15h58.41.524,SurveyExpMetaMem,3.2.3,MacIntel,60
,,,,,,,,,,,,,,,,,,,,5,2.32400012,5,0.35800004,1,0,1200,279,1,1199,bargain,11118,2019-10-22_15h58.41.524,SurveyExpMetaMem,3.2.3,MacIntel,60
,,,,,,,,,,,,,,,,,,,,7,1.991999865,5,0.390999794,1,0,1200,1117,1,1199,court,11118,2019-10-22_15h58.41.524,SurveyExpMetaMem,3.2.3,MacIntel,60
,,,,,,,,,,,,,,,,,,,,5,2.048000097,9,0.388999939,1,0,1200,72,1,1199,attract,11118,2019-10-22_15h58.41.524,SurveyExpMetaMem,3.2.3,MacIntel,60
,,,,,,,,,,,,,,,,,,,,5,1.983999968,5,0.506999969,1,0,1200,544,1,1199,snail,11118,2019-10-22_15h58.41.524,SurveyExpMetaMem,3.2.3,MacIntel,60
,,,,,,,,,,,,,,,,,,,,5,2.087999821,5,0.356999874,1,0,1200,332,1,1199,sewage,11118,2019-10-22_15h58.41.524,SurveyExpMetaMem,3.2.3,MacIntel,60
,,,,,,,,,,,,,,,,,,,,8,2.177000046,5,0.60800004,1,0,1200,5,1,1199,drunk,11118,2019-10-22_15h58.41.524,SurveyExpMetaMem,3.2.3,MacIntel,60
,,,,,,,,,,,,,,,,,,,,5,1.955999851,5,0.280999899,1,0,1200,498,1,1199,alimony,11118,2019-10-22_15h58.41.524,SurveyExpMetaMem,3.2.3,MacIntel,60
,,,,,,,,,,,,,,,,,,,,5,2.830000162,5,0.315000057,1,0,1200,665,1,1199,read,11118,2019-10-22_15h58.41.524,SurveyExpMetaMem,3.2.3,MacIntel,60
,,,,,,,,,,,,,,,,,,,,7,3.046999931,9,0.642000198,1,0,1200,95,1,1199,giggle,11118,2019-10-22_15h58.41.524,SurveyExpMetaMem,3.2.3,MacIntel,60
,,,,,,,,,,,,,,,,,,,,8,1.555999994,2,0.453999996,1,0,1200,1036,1,1199,anxiety,11118,2019-10-22_15h58.41.524,SurveyExpMetaMem,3.2.3,MacIntel,60
,,,,,,,,,,,,,,,,,,,,5,2.855000019,5,0.32400012,1,0,1200,636,1,1199,refine,11118,2019-10-22_15h58.41.524,SurveyExpMetaMem,3.2.3,MacIntel,60
,,,,,,,,,,,,,,,,,,,,3,2.592000008,3,0.873999834,1,0,1200,488,1,1199,rusty,11118,2019-10-22_15h58.41.524,SurveyExpMetaMem,3.2.3,MacIntel,60
,,,,,,,,,,,,,,,,,,,,5,2.039999962,5,0.309999943,1,0,1200,326,1,1199,scam,11118,2019-10-22_15h58.41.524,SurveyExpMetaMem,3.2.3,MacIntel,60
,,,,,,,,,,,,,,,,,,,,5,1.756999969,5,0.263000011,1,0,1200,850,1,1199,lake,11118,2019-10-22_15h58.41.524,SurveyExpMetaMem,3.2.3,MacIntel,60
,,,,,,,,,,,,,,,,,,,,5,1.423000097,5,0.23300004,1,0,1200,838,1,1199,nestle,11118,2019-10-22_15h58.41.524,SurveyExpMetaMem,3.2.3,MacIntel,60
,,,,,,,,,,,,,,,,,,,,6,3.673000097,1,0.641000032,1,0,1200,347,1,1199,unpleasant,11118,2019-10-22_15h58.41.524,SurveyExpMetaMem,3.2.3,MacIntel,60
,,,,,,,,,,,,,,,,,,,,5,2.268999815,5,0.225000143,1,0,1200,702,1,1199,den,11118,2019-10-22_15h58.41.524,SurveyExpMetaMem,3.2.3,MacIntel,60
,,,,,,,,,,,,,,,,,,,,4,3.524999857,2,0.532000065,1,0,1200,453,1,1199,prude,11118,2019-10-22_15h58.41.524,SurveyExpMetaMem,3.2.3,MacIntel,60
,,,,,,,,,,,,,,,,,,,,5,1.973999977,8,0.532000065,1,0,1200,245,1,1199,beach,11118,2019-10-22_15h58.41.524,SurveyExpMetaMem,3.2.3,MacIntel,60
,,,,,,,,,,,,,,,,,,,,7,2.739000082,2,0.588000059,1,0,1200,343,1,1199,fever,11118,2019-10-22_15h58.41.524,SurveyExpMetaMem,3.2.3,MacIntel,60
,,,,,,,,,,,,,,,,,,,,5,1.70600009,5,0.309000015,1,0,1200,529,1,1199,small,11118,2019-10-22_15h58.41.524,SurveyExpMetaMem,3.2.3,MacIntel,60
,,,,,,,,,,,,,,,,,,,,3,4.523000002,8,0.562999964,1,0,1200,800,1,1199,authentic,11118,2019-10-22_15h58.41.524,SurveyExpMetaMem,3.2.3,MacIntel,60
,,,,,,,,,,,,,,,,,,,,8,1.628000021,2,0.457000017,1,0,1200,1001,1,1199,rude,11118,2019-10-22_15h58.41.524,SurveyExpMetaMem,3.2.3,MacIntel,60
,,,,,,,,,,,,,,,,,,,,5,1.776000023,5,0.298000097,1,0,1200,412,1,1199,mucus,11118,2019-10-22_15h58.41.524,SurveyExpMetaMem,3.2.3,MacIntel,60
,,,,,,,,,,,,,,,,,,,,9,1.588999987,2,0.582000017,1,0,1200,167,1,1199,casino,11118,2019-10-22_15h58.41.524,SurveyExpMetaMem,3.2.3,MacIntel,60
,,,,,,,,,,,,,,,,,,,,6,2.420000076,7,0.707000017,1,0,1200,827,1,1199,saint,11118,2019-10-22_15h58.41.524,SurveyExpMetaMem,3.2.3,MacIntel,60
,,,,,,,,,,,,,,,,,,,,3,3.723999977,3,0.626999855,1,0,1200,635,1,1199,sensitive,11118,2019-10-22_15h58.41.524,SurveyExpMetaMem,3.2.3,MacIntel,60
,,,,,,,,,,,,,,,,,,,,5,1.105999947,5,0.390000105,1,0,1200,250,1,1199,erupt,11118,2019-10-22_15h58.41.524,SurveyExpMetaMem,3.2.3,MacIntel,60
,,,,,,,,,,,,,,,,,,,,7,4.089999914,5,0.421000004,1,0,1200,12,1,1199,mountain,11118,2019-10-22_15h58.41.524,SurveyExpMetaMem,3.2.3,MacIntel,60
,,,,,,,,,,,,,,,,,,,,9,1.671999931,2,0.799000025,1,0,1200,1062,1,1199,shoplifter,11118,2019-10-22_15h58.41.524,SurveyExpMetaMem,3.2.3,MacIntel,60
,,,,,,,,,,,,,,,,,,,,8,1.728000164,5,1.099000216,1,0,1200,988,1,1199,deserter,11118,2019-10-22_15h58.41.524,SurveyExpMetaMem,3.2.3,MacIntel,60
,,,,,,,,,,,,,,,,,,,,7,2.978999853,7,0.655999899,1,0,1200,89,1,1199,cruiseship,11118,2019-10-22_15h58.41.524,SurveyExpMetaMem,3.2.3,MacIntel,60
,,,,,,,,,,,,,,,,,,,,4,3.184000015,2,0.474999905,1,0,1200,396,1,1199,unpopular,11118,2019-10-22_15h58.41.524,SurveyExpMetaMem,3.2.3,MacIntel,60
,,,,,,,,,,,,,,,,,,,,4,3.055999994,1,0.460000038,1,0,1200,584,1,1199,anus,11118,2019-10-22_15h58.41.524,SurveyExpMetaMem,3.2.3,MacIntel,60
,,,,,,,,,,,,,,,,,,,,5,2.039999962,5,0.389999866,1,0,1200,463,1,1199,limp,11118,2019-10-22_15h58.41.524,SurveyExpMetaMem,3.2.3,MacIntel,60
,,,,,,,,,,,,,,,,,,,,5,1.605000019,3,0.457999945,1,0,1200,386,1,1199,pale,11118,2019-10-22_15h58.41.524,SurveyExpMetaMem,3.2.3,MacIntel,60
,,,,,,,,,,,,,,,,,,,,5,3.690000057,3,0.325000048,1,0,1200,381,1,1199,sloppy,11118,2019-10-22_15h58.41.524,SurveyExpMetaMem,3.2.3,MacIntel,60
,,,,,,,,,,,,,,,,,,,,6,2.842000008,3,0.460999966,1,0,1200,1071,1,1199,uncomfortable,11118,2019-10-22_15h58.41.524,SurveyExpMetaMem,3.2.3,MacIntel,60
,,,,,,,,,,,,,,,,,,,,7,1.563999891,5,0.904000044,1,0,1200,499,1,1199,stop,11118,2019-10-22_15h58.41.524,SurveyExpMetaMem,3.2.3,MacIntel,60
,,,,,,,,,,,,,,,,,,,,9,2.238000154,3,0.876000166,1,0,1200,1134,1,1199,obsessed,11118,2019-10-22_15h58.41.524,SurveyExpMetaMem,3.2.3,MacIntel,60
,,,,,,,,,,,,,,,,,,,,7,1.639999866,5,0.307999849,1,0,1200,1114,1,1199,foe,11118,2019-10-22_15h58.41.524,SurveyExpMetaMem,3.2.3,MacIntel,60
,,,,,,,,,,,,,,,,,,,,8,2.638999939,8,0.440000057,1,0,1200,101,1,1199,alien,11118,2019-10-22_15h58.41.524,SurveyExpMetaMem,3.2.3,MacIntel,60
,,,,,,,,,,,,,,,,,,,,7,5.722000122,5,0.306999922,1,0,1200,769,1,1199,relate,11118,2019-10-22_15h58.41.524,SurveyExpMetaMem,3.2.3,MacIntel,60
,,,,,,,,,,,,,,,,,,,,5,5.786000013,5,0.294999838,1,0,1200,65,1,1199,restaurant,11118,2019-10-22_15h58.41.524,SurveyExpMetaMem,3.2.3,MacIntel,60
,,,,,,,,,,,,,,,,,,,,5,1.006999969,5,0.325000048,1,0,1200,859,1,1199,serene,11118,2019-10-22_15h58.41.524,SurveyExpMetaMem,3.2.3,MacIntel,60
,,,,,,,,,,,,,,,,,,,,3,2.673999786,1,1.00999999,1,0,1200,903,1,1199,cancer,11118,2019-10-22_15h58.41.524,SurveyExpMetaMem,3.2.3,MacIntel,60
,,,,,,,,,,,,,,,,,,,,5,1.037999868,5,0.29399991,1,0,1200,652,1,1199,tend,11118,2019-10-22_15h58.41.524,SurveyExpMetaMem,3.2.3,MacIntel,60
,,,,,,,,,,,,,,,,,,,,7,1.805999994,9,0.545000076,1,0,1200,197,1,1199,happy,11118,2019-10-22_15h58.41.524,SurveyExpMetaMem,3.2.3,MacIntel,60
,,,,,,,,,,,,,,,,,,,,5,1.561000109,8,0.677999973,1,0,1200,158,1,1199,engage,11118,2019-10-22_15h58.41.524,SurveyExpMetaMem,3.2.3,MacIntel,60
,,,,,,,,,,,,,,,,,,,,5,1.707000017,5,0.273999929,1,0,1200,745,1,1199,inform,11118,2019-10-22_15h58.41.524,SurveyExpMetaMem,3.2.3,MacIntel,60
,,,,,,,,,,,,,,,,,,,,5,0.845999956,5,0.298000097,1,0,1200,766,1,1199,flag,11118,2019-10-22_15h58.41.524,SurveyExpMetaMem,3.2.3,MacIntel,60
,,,,,,,,,,,,,,,,,,,,9,2.506000042,2,0.45600009,1,0,1200,1009,1,1199,frightened,11118,2019-10-22_15h58.41.524,SurveyExpMetaMem,3.2.3,MacIntel,60
,,,,,,,,,,,,,,,,,,,,5,1.688999891,5,0.273999929,1,0,1200,156,1,1199,gym,11118,2019-10-22_15h58.41.524,SurveyExpMetaMem,3.2.3,MacIntel,60
,,,,,,,,,,,,,,,,,,,,5,0.838999987,5,0.276000023,1,0,1200,1153,1,1199,mangle,11118,2019-10-22_15h58.41.524,SurveyExpMetaMem,3.2.3,MacIntel,60
,,,,,,,,,,,,,,,,,,,,4,2.29399991,8,0.67599988,1,0,1200,92,1,1199,justice,11118,2019-10-22_15h58.41.524,SurveyExpMetaMem,3.2.3,MacIntel,60
,,,,,,,,,,,,,,,,,,,,3,2.2900002,7,0.453999996,1,0,1200,94,1,1199,engaged,11118,2019-10-22_15h58.41.524,SurveyExpMetaMem,3.2.3,MacIntel,60
,,,,,,,,,,,,,,,,,,,,5,1.076999903,5,0.262000084,1,0,1200,849,1,1199,blue,11118,2019-10-22_15h58.41.524,SurveyExpMetaMem,3.2.3,MacIntel,60
,,,,,,,,,,,,,,,,,,,,4,2.861000061,4,0.4599998,1,0,1200,583,1,1199,obey,11118,2019-10-22_15h58.41.524,SurveyExpMetaMem,3.2.3,MacIntel,60
,,,,,,,,,,,,,,,,,,,,5,1.505000114,5,0.224000216,1,0,1200,380,1,1199,expire,11118,2019-10-22_15h58.41.524,SurveyExpMetaMem,3.2.3,MacIntel,60
,,,,,,,,,,,,,,,,,,,,5,0.889999866,5,0.276000023,1,0,1200,663,1,1199,trout,11118,2019-10-22_15h58.41.524,SurveyExpMetaMem,3.2.3,MacIntel,60
,,,,,,,,,,,,,,,,,,,,5,0.924000025,5,0.312000036,1,0,1200,388,1,1199,mildew,11118,2019-10-22_15h58.41.524,SurveyExpMetaMem,3.2.3,MacIntel,60
,,,,,,,,,,,,,,,,,,,,5,1.705999851,5,0.296999931,1,0,1200,534,1,1199,rules,11118,2019-10-22_15h58.41.524,SurveyExpMetaMem,3.2.3,MacIntel,60
,,,,,,,,,,,,,,,,,,,,6,3.236000061,6,0.375,1,0,1200,121,1,1199,self,11118,2019-10-22_15h58.41.524,SurveyExpMetaMem,3.2.3,MacIntel,60
,,,,,,,,,,,,,,,,,,,,5,2.355999947,5,0.236999989,1,0,1200,879,1,1199,bird,11118,2019-10-22_15h58.41.524,SurveyExpMetaMem,3.2.3,MacIntel,60
,,,,,,,,,,,,,,,,,,,,7,1.846999884,7,0.638999939,1,0,1200,26,1,1199,inspired,11118,2019-10-22_15h58.41.524,SurveyExpMetaMem,3.2.3,MacIntel,60
,,,,,,,,,,,,,,,,,,,,9,3.857000113,2,0.406000137,1,0,1200,303,1,1199,death,11118,2019-10-22_15h58.41.524,SurveyExpMetaMem,3.2.3,MacIntel,60
,,,,,,,,,,,,,,,,,,,,9,3.356999874,4,1.232000113,1,0,1200,1087,1,1199,affair,11118,2019-10-22_15h58.41.524,SurveyExpMetaMem,3.2.3,MacIntel,60
,,,,,,,,,,,,,,,,,,,,5,1.92200017,5,0.340999842,1,0,1200,801,1,1199,noon,11118,2019-10-22_15h58.41.524,SurveyExpMetaMem,3.2.3,MacIntel,60
,,,,,,,,,,,,,,,,,,,,8,3.70600009,7,1.025999784,1,0,1200,73,1,1199,rhythm,11118,2019-10-22_15h58.41.524,SurveyExpMetaMem,3.2.3,MacIntel,60
,,,,,,,,,,,,,,,,,,,,5,1.163000107,5,0.286000013,1,0,1200,619,1,1199,pulpit,11118,2019-10-22_15h58.41.524,SurveyExpMetaMem,3.2.3,MacIntel,60
,,,,,,,,,,,,,,,,,,,,5,4.589999914,5,0.207000017,1,0,1200,134,1,1199,dollar,11118,2019-10-22_15h58.41.524,SurveyExpMetaMem,3.2.3,MacIntel,60
,,,,,,,,,,,,,,,,,,,,9,8.724999905,6,1.476000071,1,0,1200,811,1,1199,tenderness,11118,2019-10-22_15h58.41.524,SurveyExpMetaMem,3.2.3,MacIntel,60
,,,,,,,,,,,,,,,,,,,,5,1.118000031,5,0.255000114,1,0,1200,836,1,1199,lounge,11118,2019-10-22_15h58.41.524,SurveyExpMetaMem,3.2.3,MacIntel,60
,,,,,,,,,,,,,,,,,,,,3,2.322999954,1,1.078000069,1,0,1200,344,1,1199,pessimistic,11118,2019-10-22_15h58.41.524,SurveyExpMetaMem,3.2.3,MacIntel,60
,,,,,,,,,,,,,,,,,,,,7,1.508000135,9,0.907000065,1,0,1200,857,1,1199,thankful,11118,2019-10-22_15h58.41.524,SurveyExpMetaMem,3.2.3,MacIntel,60
,,,,,,,,,,,,,,,,,,,,5,1.641000032,5,0.308000088,1,0,1200,213,1,1199,fair,11118,2019-10-22_15h58.41.524,SurveyExpMetaMem,3.2.3,MacIntel,60
,,,,,,,,,,,,,,,,,,,,5,0.887000084,5,0.292000055,1,0,1200,809,1,1199,boy,11118,2019-10-22_15h58.41.524,SurveyExpMetaMem,3.2.3,MacIntel,60
,,,,,,,,,,,,,,,,,,,,9,1.57400012,2,0.589999914,1,0,1200,1194,1,1199,obsession,11118,2019-10-22_15h58.41.524,SurveyExpMetaMem,3.2.3,MacIntel,60
,,,,,,,,,,,,,,,,,,,,8,2.502000093,3,0.810000181,1,0,1200,1046,1,1199,unsafe,11118,2019-10-22_15h58.41.524,SurveyExpMetaMem,3.2.3,MacIntel,60
,,,,,,,,,,,,,,,,,,,,8,1.805000067,3,0.513999939,1,0,1200,39,1,1199,birth,11118,2019-10-22_15h58.41.524,SurveyExpMetaMem,3.2.3,MacIntel,60
,,,,,,,,,,,,,,,,,,,,5,3.242000103,8,0.479000092,1,0,1200,295,1,1199,passion,11118,2019-10-22_15h58.41.524,SurveyExpMetaMem,3.2.3,MacIntel,60
,,,,,,,,,,,,,,,,,,,,5,1.514999866,9,0.454999924,1,0,1200,36,1,1199,puppy,11118,2019-10-22_15h58.41.524,SurveyExpMetaMem,3.2.3,MacIntel,60
,,,,,,,,,,,,,,,,,,,,5,4.07400012,5,0.212000132,1,0,1200,723,1,1199,cinnamon,11118,2019-10-22_15h58.41.524,SurveyExpMetaMem,3.2.3,MacIntel,60
,,,,,,,,,,,,,,,,,,,,5,1.621999979,5,0.223999977,1,0,1200,9,1,1199,try,11118,2019-10-22_15h58.41.524,SurveyExpMetaMem,3.2.3,MacIntel,60
,,,,,,,,,,,,,,,,,,,,5,3.659000158,3,0.642999887,1,0,1200,502,1,1199,crap,11118,2019-10-22_15h58.41.524,SurveyExpMetaMem,3.2.3,MacIntel,60
,,,,,,,,,,,,,,,,,,,,5,1.806999922,5,0.208999872,1,0,1200,687,1,1199,skinny,11118,2019-10-22_15h58.41.524,SurveyExpMetaMem,3.2.3,MacIntel,60
,,,,,,,,,,,,,,,,,,,,9,1.19299984,7,0.792999983,1,0,1200,45,1,1199,sex,11118,2019-10-22_15h58.41.524,SurveyExpMetaMem,3.2.3,MacIntel,60
,,,,,,,,,,,,,,,,,,,,5,1.572999954,5,0.315000057,1,0,1200,563,1,1199,stupor,11118,2019-10-22_15h58.41.524,SurveyExpMetaMem,3.2.3,MacIntel,60
,,,,,,,,,,,,,,,,,,,,5,2.756000042,5,0.305999994,1,0,1200,1105,1,1199,flee,11118,2019-10-22_15h58.41.524,SurveyExpMetaMem,3.2.3,MacIntel,60
,,,,,,,,,,,,,,,,,,,,3,5.703999996,2,0.342000008,1,0,1200,325,1,1199,disability,11118,2019-10-22_15h58.41.524,SurveyExpMetaMem,3.2.3,MacIntel,60
,,,,,,,,,,,,,,,,,,,,8,4.171000004,3,0.514999866,1,0,1200,417,1,1199,dummy,11118,2019-10-22_15h58.41.524,SurveyExpMetaMem,3.2.3,MacIntel,60
,,,,,,,,,,,,,,,,,,,,9,1.924999952,2,2.143000126,1,0,1200,998,1,1199,virus,11118,2019-10-22_15h58.41.524,SurveyExpMetaMem,3.2.3,MacIntel,60
,,,,,,,,,,,,,,,,,,,,9,1.222000122,2,0.661000013,1,0,1200,971,1,1199,crash,11118,2019-10-22_15h58.41.524,SurveyExpMetaMem,3.2.3,MacIntel,60
,,,,,,,,,,,,,,,,,,,,6,1.811000109,4,0.542000055,1,0,1200,573,1,1199,cease,11118,2019-10-22_15h58.41.524,SurveyExpMetaMem,3.2.3,MacIntel,60
,,,,,,,,,,,,,,,,,,,,5,2.375,5,0.263000011,1,0,1200,654,1,1199,brief,11118,2019-10-22_15h58.41.524,SurveyExpMetaMem,3.2.3,MacIntel,60
,,,,,,,,,,,,,,,,,,,,5,0.825000048,5,0.292000055,1,0,1200,790,1,1199,binoculars,11118,2019-10-22_15h58.41.524,SurveyExpMetaMem,3.2.3,MacIntel,60
,,,,,,,,,,,,,,,,,,,,7,1.671000004,5,0.272000074,1,0,1200,1166,1,1199,compulsive,11118,2019-10-22_15h58.41.524,SurveyExpMetaMem,3.2.3,MacIntel,60
,,,,,,,,,,,,,,,,,,,,6,2.120999813,5,0.488999844,1,0,1200,482,1,1199,cell,11118,2019-10-22_15h58.41.524,SurveyExpMetaMem,3.2.3,MacIntel,60
,,,,,,,,,,,,,,,,,,,,7,1.773000002,3,0.405999899,1,0,1200,442,1,1199,foolish,11118,2019-10-22_15h58.41.524,SurveyExpMetaMem,3.2.3,MacIntel,60
,,,,,,,,,,,,,,,,,,,,5,3.042000055,5,0.278000116,1,0,1200,283,1,1199,elated,11118,2019-10-22_15h58.41.524,SurveyExpMetaMem,3.2.3,MacIntel,60
,,,,,,,,,,,,,,,,,,,,6,1.804000139,4,0.43900013,1,0,1200,588,1,1199,bandage,11118,2019-10-22_15h58.41.524,SurveyExpMetaMem,3.2.3,MacIntel,60
,,,,,,,,,,,,,,,,,,,,2,3.09100008,5,1.072000027,1,0,1200,61,1,1199,zoom,11118,2019-10-22_15h58.41.524,SurveyExpMetaMem,3.2.3,MacIntel,60
,,,,,,,,,,,,,,,,,,,,5,1.580999851,5,0.269999981,1,0,1200,1146,1,1199,bug,11118,2019-10-22_15h58.41.524,SurveyExpMetaMem,3.2.3,MacIntel,60
,,,,,,,,,,,,,,,,,,,,8,1.740999937,3,0.639999866,1,0,1200,978,1,1199,starving,11118,2019-10-22_15h58.41.524,SurveyExpMetaMem,3.2.3,MacIntel,60
,,,,,,,,,,,,,,,,,,,,5,1.642999887,5,0.273999929,1,0,1200,265,1,1199,invent,11118,2019-10-22_15h58.41.524,SurveyExpMetaMem,3.2.3,MacIntel,60
,,,,,,,,,,,,,,,,,,,,3,3.021999836,1,1.70600009,1,0,1200,329,1,1199,worse,11118,2019-10-22_15h58.41.524,SurveyExpMetaMem,3.2.3,MacIntel,60
,,,,,,,,,,,,,,,,,,,,6,2.130000114,1,0.464000225,1,0,1200,1100,1,1199,evil,11118,2019-10-22_15h58.41.524,SurveyExpMetaMem,3.2.3,MacIntel,60
,,,,,,,,,,,,,,,,,,,,5,1.023999929,5,0.223999977,1,0,1200,779,1,1199,shampoo,11118,2019-10-22_15h58.41.524,SurveyExpMetaMem,3.2.3,MacIntel,60
,,,,,,,,,,,,,,,,,,,,5,1.171999931,5,0.224999905,1,0,1200,795,1,1199,soup,11118,2019-10-22_15h58.41.524,SurveyExpMetaMem,3.2.3,MacIntel,60
,,,,,,,,,,,,,,,,,,,,5,1.375,5,0.230000019,1,0,1200,724,1,1199,owl,11118,2019-10-22_15h58.41.524,SurveyExpMetaMem,3.2.3,MacIntel,60
,,,,,,,,,,,,,,,,,,,,5,1.940000057,3,0.326000214,1,0,1200,484,1,1199,leave,11118,2019-10-22_15h58.41.524,SurveyExpMetaMem,3.2.3,MacIntel,60
,,,,,,,,,,,,,,,,,,,,3,3.098999977,7,0.389000177,1,0,1200,172,1,1199,potential,11118,2019-10-22_15h58.41.524,SurveyExpMetaMem,3.2.3,MacIntel,60
,,,,,,,,,,,,,,,,,,,,5,2.641000032,5,0.196000099,1,0,1200,641,1,1199,writer,11118,2019-10-22_15h58.41.524,SurveyExpMetaMem,3.2.3,MacIntel,60
,,,,,,,,,,,,,,,,,,,,5,1.058000088,5,0.142000198,1,0,1200,1192,1,1199,startled,11118,2019-10-22_15h58.41.524,SurveyExpMetaMem,3.2.3,MacIntel,60
,,,,,,,,,,,,,,,,,,,,5,1.269999981,5,0.261000156,1,0,1200,729,1,1199,velvet,11118,2019-10-22_15h58.41.524,SurveyExpMetaMem,3.2.3,MacIntel,60
,,,,,,,,,,,,,,,,,,,,7,2.661999941,7,0.742000103,1,0,1200,71,1,1199,spirit,11118,2019-10-22_15h58.41.524,SurveyExpMetaMem,3.2.3,MacIntel,60
,,,,,,,,,,,,,,,,,,,,5,3.041000128,2,0.357000113,1,0,1200,429,1,1199,cough,11118,2019-10-22_15h58.41.524,SurveyExpMetaMem,3.2.3,MacIntel,60
,,,,,,,,,,,,,,,,,,,,8,5.144999981,5,1.108999968,1,0,1200,0,1,1199,dragon,11118,2019-10-22_15h58.41.524,SurveyExpMetaMem,3.2.3,MacIntel,60
,,,,,,,,,,,,,,,,,,,,8,1.638999939,8,0.773000002,1,0,1200,199,1,1199,laughter,11118,2019-10-22_15h58.41.524,SurveyExpMetaMem,3.2.3,MacIntel,60
,,,,,,,,,,,,,,,,,,,,9,1.180000067,9,0.307999849,1,0,1200,268,1,1199,tickle,11118,2019-10-22_15h58.41.524,SurveyExpMetaMem,3.2.3,MacIntel,60
,,,,,,,,,,,,,,,,,,,,5,2.710000038,5,0.224999905,1,0,1200,50,1,1199,bolt,11118,2019-10-22_15h58.41.524,SurveyExpMetaMem,3.2.3,MacIntel,60
,,,,,,,,,,,,,,,,,,,,3,4.789000034,8,0.792999983,1,0,1200,891,1,1199,kind,11118,2019-10-22_15h58.41.524,SurveyExpMetaMem,3.2.3,MacIntel,60
,,,,,,,,,,,,,,,,,,,,3,3.193000078,3,0.35800004,1,0,1200,443,1,1199,incorrect,11118,2019-10-22_15h58.41.524,SurveyExpMetaMem,3.2.3,MacIntel,60
,,,,,,,,,,,,,,,,,,,,5,2.355999947,5,0.272000074,1,0,1200,615,1,1199,lad,11118,2019-10-22_15h58.41.524,SurveyExpMetaMem,3.2.3,MacIntel,60
,,,,,,,,,,,,,,,,,,,,3,2.226000071,8,0.345999956,1,0,1200,106,1,1199,voyage,11118,2019-10-22_15h58.41.524,SurveyExpMetaMem,3.2.3,MacIntel,60
,,,,,,,,,,,,,,,,,,,,5,2.424000025,8,0.362999916,1,0,1200,114,1,1199,raise,11118,2019-10-22_15h58.41.524,SurveyExpMetaMem,3.2.3,MacIntel,60
,,,,,,,,,,,,,,,,,,,,5,1.979000092,5,0.279000044,1,0,1200,993,1,1199,remorse,11118,2019-10-22_15h58.41.524,SurveyExpMetaMem,3.2.3,MacIntel,60
,,,,,,,,,,,,,,,,,,,,5,1.157000065,5,0.309000015,1,0,1200,599,1,1199,obstinate,11118,2019-10-22_15h58.41.524,SurveyExpMetaMem,3.2.3,MacIntel,60
,,,,,,,,,,,,,,,,,,,,5,1.289000034,5,0.295000076,1,0,1200,776,1,1199,doll,11118,2019-10-22_15h58.41.524,SurveyExpMetaMem,3.2.3,MacIntel,60
,,,,,,,,,,,,,,,,,,,,5,1.241999865,5,0.279999971,1,0,1200,214,1,1199,revive,11118,2019-10-22_15h58.41.524,SurveyExpMetaMem,3.2.3,MacIntel,60
,,,,,,,,,,,,,,,,,,,,8,4.355999947,2,0.723999977,1,0,1200,960,1,1199,irritated,11118,2019-10-22_15h58.41.524,SurveyExpMetaMem,3.2.3,MacIntel,60
,,,,,,,,,,,,,,,,,,,,5,1.521000147,5,0.398999929,1,0,1200,941,1,1199,leprosy,11118,2019-10-22_15h58.41.524,SurveyExpMetaMem,3.2.3,MacIntel,60
,,,,,,,,,,,,,,,,,,,,5,1.824999809,5,0.342000008,1,0,1200,331,1,1199,casket,11118,2019-10-22_15h58.41.524,SurveyExpMetaMem,3.2.3,MacIntel,60
,,,,,,,,,,,,,,,,,,,,5,1.894999981,8,0.323999882,1,0,1200,796,1,1199,rose,11118,2019-10-22_15h58.41.524,SurveyExpMetaMem,3.2.3,MacIntel,60
,,,,,,,,,,,,,,,,,,,,5,3.674000025,5,0.310000181,1,0,1200,129,1,1199,fly,11118,2019-10-22_15h58.41.524,SurveyExpMetaMem,3.2.3,MacIntel,60
,,,,,,,,,,,,,,,,,,,,5,2.07400012,6,0.338000059,1,0,1200,840,1,1199,cuisine,11118,2019-10-22_15h58.41.524,SurveyExpMetaMem,3.2.3,MacIntel,60
,,,,,,,,,,,,,,,,,,,,7,2.156000137,2,0.381000042,1,0,1200,964,1,1199,grieve,11118,2019-10-22_15h58.41.524,SurveyExpMetaMem,3.2.3,MacIntel,60
,,,,,,,,,,,,,,,,,,,,5,2.590000153,5,0.325000048,1,0,1200,874,1,1199,butterfly,11118,2019-10-22_15h58.41.524,SurveyExpMetaMem,3.2.3,MacIntel,60
,,,,,,,,,,,,,,,,,,,,2,1.707999945,3,1.055999994,1,0,1200,527,1,1199,passive,11118,2019-10-22_15h58.41.524,SurveyExpMetaMem,3.2.3,MacIntel,60
,,,,,,,,,,,,,,,,,,,,8,1.99000001,5,0.973999977,1,0,1200,51,1,1199,body,11118,2019-10-22_15h58.41.524,SurveyExpMetaMem,3.2.3,MacIntel,60
,,,,,,,,,,,,,,,,,,,,8,1.756000042,8,1.75999999,1,0,1200,84,1,1199,eat,11118,2019-10-22_15h58.41.524,SurveyExpMetaMem,3.2.3,MacIntel,60
,,,,,,,,,,,,,,,,,,,,9,2.105000019,8,1.07400012,1,0,1200,47,1,1199,enjoy,11118,2019-10-22_15h58.41.524,SurveyExpMetaMem,3.2.3,MacIntel,60
,,,,,,,,,,,,,,,,,,,,2,1.672999859,3,0.757999897,1,0,1200,490,1,1199,detached,11118,2019-10-22_15h58.41.524,SurveyExpMetaMem,3.2.3,MacIntel,60
,,,,,,,,,,,,,,,,,,,,9,2.525000095,2,0.578000069,1,0,1200,1058,1,1199,bloody,11118,2019-10-22_15h58.41.524,SurveyExpMetaMem,3.2.3,MacIntel,60
,,,,,,,,,,,,,,,,,,,,5,1.371999979,5,0.342000008,1,0,1200,667,1,1199,dew,11118,2019-10-22_15h58.41.524,SurveyExpMetaMem,3.2.3,MacIntel,60
,,,,,,,,,,,,,,,,,,,,8,2.088000059,4,0.958999872,1,0,1200,117,1,1199,powerful,11118,2019-10-22_15h58.41.524,SurveyExpMetaMem,3.2.3,MacIntel,60
,,,,,,,,,,,,,,,,,,,,3,2.595000029,7,0.980000019,1,0,1200,258,1,1199,children,11118,2019-10-22_15h58.41.524,SurveyExpMetaMem,3.2.3,MacIntel,60
,,,,,,,,,,,,,,,,,,,,8,2.738999844,2,0.756999969,1,0,1200,1167,1,1199,bribe,11118,2019-10-22_15h58.41.524,SurveyExpMetaMem,3.2.3,MacIntel,60
,,,,,,,,,,,,,,,,,,,,7,2.704999924,7,0.759000063,1,0,1200,175,1,1199,playground,11118,2019-10-22_15h58.41.524,SurveyExpMetaMem,3.2.3,MacIntel,60
,,,,,,,,,,,,,,,,,,,,5,1.490999937,5,0.661999941,1,0,1200,865,1,1199,bliss,11118,2019-10-22_15h58.41.524,SurveyExpMetaMem,3.2.3,MacIntel,60
,,,,,,,,,,,,,,,,,,,,3,3.539000034,8,0.60800004,1,0,1200,882,1,1199,gentle,11118,2019-10-22_15h58.41.524,SurveyExpMetaMem,3.2.3,MacIntel,60
,,,,,,,,,,,,,,,,,,,,5,1.730999947,5,0.605999947,1,0,1200,14,1,1199,attain,11118,2019-10-22_15h58.41.524,SurveyExpMetaMem,3.2.3,MacIntel,60
,,,,,,,,,,,,,,,,,,,,8,2.843000174,3,0.58100009,1,0,1200,1008,1,1199,gang,11118,2019-10-22_15h58.41.524,SurveyExpMetaMem,3.2.3,MacIntel,60
,,,,,,,,,,,,,,,,,,,,5,1.405999899,5,0.509000063,1,0,1200,1043,1,1199,scold,11118,2019-10-22_15h58.41.524,SurveyExpMetaMem,3.2.3,MacIntel,60
,,,,,,,,,,,,,,,,,,,,9,2.130000114,9,1.979000092,1,0,1200,180,1,1199,embrace,11118,2019-10-22_15h58.41.524,SurveyExpMetaMem,3.2.3,MacIntel,60
,,,,,,,,,,,,,,,,,,,,7,2.309000015,9,0.590000153,1,0,1200,292,1,1199,birthday,11118,2019-10-22_15h58.41.524,SurveyExpMetaMem,3.2.3,MacIntel,60
,,,,,,,,,,,,,,,,,,,,3,4.621999979,7,1.11500001,1,0,1200,826,1,1199,poem,11118,2019-10-22_15h58.41.524,SurveyExpMetaMem,3.2.3,MacIntel,60
,,,,,,,,,,,,,,,,,,,,5,6.605999947,5,0.226000071,1,0,1200,104,1,1199,freeway,11118,2019-10-22_15h58.41.524,SurveyExpMetaMem,3.2.3,MacIntel,60
,,,,,,,,,,,,,,,,,,,,5,0.821000099,5,0.31400013,1,0,1200,761,1,1199,corn,11118,2019-10-22_15h58.41.524,SurveyExpMetaMem,3.2.3,MacIntel,60
,,,,,,,,,,,,,,,,,,,,5,1.656999826,7,0.302000046,1,0,1200,875,1,1199,fluffy,11118,2019-10-22_15h58.41.524,SurveyExpMetaMem,3.2.3,MacIntel,60
,,,,,,,,,,,,,,,,,,,,5,3.004999876,5,0.523999929,1,0,1200,700,1,1199,frog,11118,2019-10-22_15h58.41.524,SurveyExpMetaMem,3.2.3,MacIntel,60
,,,,,,,,,,,,,,,,,,,,7,2.161000013,8,0.241999865,1,0,1200,236,1,1199,amaze,11118,2019-10-22_15h58.41.524,SurveyExpMetaMem,3.2.3,MacIntel,60
,,,,,,,,,,,,,,,,,,,,5,1.58100009,5,0.326999903,1,0,1200,447,1,1199,dishes,11118,2019-10-22_15h58.41.524,SurveyExpMetaMem,3.2.3,MacIntel,60
,,,,,,,,,,,,,,,,,,,,5,2.713999987,2,0.558000088,1,0,1200,957,1,1199,debt,11118,2019-10-22_15h58.41.524,SurveyExpMetaMem,3.2.3,MacIntel,60
,,,,,,,,,,,,,,,,,,,,8,2.909999847,2,0.463000059,1,0,1200,925,1,1199,disloyal,11118,2019-10-22_15h58.41.524,SurveyExpMetaMem,3.2.3,MacIntel,60
,,,,,,,,,,,,,,,,,,,,6,2.378999949,3,0.595000029,1,0,1200,1082,1,1199,hazard,11118,2019-10-22_15h58.41.524,SurveyExpMetaMem,3.2.3,MacIntel,60
,,,,,,,,,,,,,,,,,,,,6,2.304000139,7,0.296999931,1,0,1200,1094,1,1199,disruptive,11118,2019-10-22_15h58.41.524,SurveyExpMetaMem,3.2.3,MacIntel,60
,,,,,,,,,,,,,,,,,,,,6,7.772000074,8,0.58100009,1,0,1200,186,1,1199,holiday,11118,2019-10-22_15h58.41.524,SurveyExpMetaMem,3.2.3,MacIntel,60
,,,,,,,,,,,,,,,,,,,,7,3.241000175,4,0.424000025,1,0,1200,1096,1,1199,flood,11118,2019-10-22_15h58.41.524,SurveyExpMetaMem,3.2.3,MacIntel,60
,,,,,,,,,,,,,,,,,,,,5,2.221999884,5,0.387000084,1,0,1200,772,1,1199,ornament,11118,2019-10-22_15h58.41.524,SurveyExpMetaMem,3.2.3,MacIntel,60
,,,,,,,,,,,,,,,,,,,,9,5.805999994,2,0.907999992,1,0,1200,997,1,1199,injury,11118,2019-10-22_15h58.41.524,SurveyExpMetaMem,3.2.3,MacIntel,60
,,,,,,,,,,,,,,,,,,,,8,1.190000057,4,0.540999889,1,0,1200,1109,1,1199,germ,11118,2019-10-22_15h58.41.524,SurveyExpMetaMem,3.2.3,MacIntel,60
,,,,,,,,,,,,,,,,,,,,7,3.208999872,8,0.707999945,1,0,1200,192,1,1199,pleased,11118,2019-10-22_15h58.41.524,SurveyExpMetaMem,3.2.3,MacIntel,60
,,,,,,,,,,,,,,,,,,,,8,1.356000185,3,0.430000067,1,0,1200,1005,1,1199,pissed,11118,2019-10-22_15h58.41.524,SurveyExpMetaMem,3.2.3,MacIntel,60
,,,,,,,,,,,,,,,,,,,,4,2.00999999,2,1.207999945,1,0,1200,1077,1,1199,unsure,11118,2019-10-22_15h58.41.524,SurveyExpMetaMem,3.2.3,MacIntel,60
,,,,,,,,,,,,,,,,,,,,5,1.871000051,5,0.749000072,1,0,1200,461,1,1199,ail,11118,2019-10-22_15h58.41.524,SurveyExpMetaMem,3.2.3,MacIntel,60
,,,,,,,,,,,,,,,,,,,,7,1.933000088,5,0.654999971,1,0,1200,995,1,1199,cult,11118,2019-10-22_15h58.41.524,SurveyExpMetaMem,3.2.3,MacIntel,60
,,,,,,,,,,,,,,,,,,,,8,4.322999954,2,0.462999821,1,0,1200,337,1,1199,stinks,11118,2019-10-22_15h58.41.524,SurveyExpMetaMem,3.2.3,MacIntel,60
,,,,,,,,,,,,,,,,,,,,8,1.346000195,5,0.823999882,1,0,1200,243,1,1199,fame,11118,2019-10-22_15h58.41.524,SurveyExpMetaMem,3.2.3,MacIntel,60
,,,,,,,,,,,,,,,,,,,,3,2.10800004,8,0.559000015,1,0,1200,35,1,1199,bright,11118,2019-10-22_15h58.41.524,SurveyExpMetaMem,3.2.3,MacIntel,60
,,,,,,,,,,,,,,,,,,,,8,3.611999989,2,0.54399991,1,0,1200,980,1,1199,liar,11118,2019-10-22_15h58.41.524,SurveyExpMetaMem,3.2.3,MacIntel,60
,,,,,,,,,,,,,,,,,,,,5,3.061999798,7,0.626999855,1,0,1200,269,1,1199,extravagant,11118,2019-10-22_15h58.41.524,SurveyExpMetaMem,3.2.3,MacIntel,60
,,,,,,,,,,,,,,,,,,,,5,2.687000036,5,0.407000065,1,0,1200,742,1,1199,window,11118,2019-10-22_15h58.41.524,SurveyExpMetaMem,3.2.3,MacIntel,60
,,,,,,,,,,,,,,,,,,,,5,1.621999979,5,0.475000143,1,0,1200,728,1,1199,patio,11118,2019-10-22_15h58.41.524,SurveyExpMetaMem,3.2.3,MacIntel,60
,,,,,,,,,,,,,,,,,,,,8,2.326999903,2,0.457000017,1,0,1200,940,1,1199,war,11118,2019-10-22_15h58.41.524,SurveyExpMetaMem,3.2.3,MacIntel,60
,,,,,,,,,,,,,,,,,,,,5,1.309000015,5,0.521000147,1,0,1200,807,1,1199,person,11118,2019-10-22_15h58.41.524,SurveyExpMetaMem,3.2.3,MacIntel,60
,,,,,,,,,,,,,,,,,,,,7,3.048000097,8,0.747999907,1,0,1200,273,1,1199,worthwhile,11118,2019-10-22_15h58.41.524,SurveyExpMetaMem,3.2.3,MacIntel,60
,,,,,,,,,,,,,,,,,,,,5,1.595000029,5,0.496000051,1,0,1200,638,1,1199,quench,11118,2019-10-22_15h58.41.524,SurveyExpMetaMem,3.2.3,MacIntel,60
,,,,,,,,,,,,,,,,,,,,5,1.096000195,5,0.506000042,1,0,1200,806,1,1199,tree,11118,2019-10-22_15h58.41.524,SurveyExpMetaMem,3.2.3,MacIntel,60
,,,,,,,,,,,,,,,,,,,,7,1.99000001,8,0.409000158,1,0,1200,11,1,1199,astonished,11118,2019-10-22_15h58.41.524,SurveyExpMetaMem,3.2.3,MacIntel,60
,,,,,,,,,,,,,,,,,,,,5,3.963000059,5,0.506999969,1,0,1200,249,1,1199,award,11118,2019-10-22_15h58.41.524,SurveyExpMetaMem,3.2.3,MacIntel,60
,,,,,,,,,,,,,,,,,,,,5,1.789999962,5,0.460000038,1,0,1200,578,1,1199,govern,11118,2019-10-22_15h58.41.524,SurveyExpMetaMem,3.2.3,MacIntel,60
,,,,,,,,,,,,,,,,,,,,5,1.405999899,5,0.473999977,1,0,1200,567,1,1199,folly,11118,2019-10-22_15h58.41.524,SurveyExpMetaMem,3.2.3,MacIntel,60
,,,,,,,,,,,,,,,,,,,,5,1.340999842,5,0.493999958,1,0,1200,321,1,1199,wart,11118,2019-10-22_15h58.41.524,SurveyExpMetaMem,3.2.3,MacIntel,60
,,,,,,,,,,,,,,,,,,,,5,1.388999939,5,0.562000036,1,0,1200,390,1,1199,impair,11118,2019-10-22_15h58.41.524,SurveyExpMetaMem,3.2.3,MacIntel,60
,,,,,,,,,,,,,,,,,,,,5,1.463000059,5,0.523000002,1,0,1200,864,1,1199,blanket,11118,2019-10-22_15h58.41.524,SurveyExpMetaMem,3.2.3,MacIntel,60
,,,,,,,,,,,,,,,,,,,,5,1.697999954,5,0.539000034,1,0,1200,786,1,1199,afternoon,11118,2019-10-22_15h58.41.524,SurveyExpMetaMem,3.2.3,MacIntel,60
,,,,,,,,,,,,,,,,,,,,5,1.792999983,5,0.447999954,1,0,1200,802,1,1199,familiar,11118,2019-10-22_15h58.41.524,SurveyExpMetaMem,3.2.3,MacIntel,60
,,,,,,,,,,,,,,,,,,,,5,1.713000059,5,0.457000017,1,0,1200,113,1,1199,bridesmaid,11118,2019-10-22_15h58.41.524,SurveyExpMetaMem,3.2.3,MacIntel,60
,,,,,,,,,,,,,,,,,,,,3,2.730000019,5,0.441999912,1,0,1200,869,1,1199,assure,11118,2019-10-22_15h58.41.524,SurveyExpMetaMem,3.2.3,MacIntel,60
,,,,,,,,,,,,,,,,,,,,7,1.7099998,4,0.907000065,1,0,1200,1111,1,1199,bruise,11118,2019-10-22_15h58.41.524,SurveyExpMetaMem,3.2.3,MacIntel,60
,,,,,,,,,,,,,,,,,,,,9,1.537000179,2,0.74000001,1,0,1200,1089,1,1199,ridicule,11118,2019-10-22_15h58.41.524,SurveyExpMetaMem,3.2.3,MacIntel,60
,,,,,,,,,,,,,,,,,,,,6,3.480000019,6,0.593000174,1,0,1200,13,1,1199,mingle,11118,2019-10-22_15h58.41.524,SurveyExpMetaMem,3.2.3,MacIntel,60
,,,,,,,,,,,,,,,,,,,,3,3.409000158,2,0.625999928,1,0,1200,382,1,1199,vulnerable,11118,2019-10-22_15h58.41.524,SurveyExpMetaMem,3.2.3,MacIntel,60
,,,,,,,,,,,,,,,,,,,,5,2.424999952,5,0.492999792,1,0,1200,576,1,1199,policy,11118,2019-10-22_15h58.41.524,SurveyExpMetaMem,3.2.3,MacIntel,60
,,,,,,,,,,,,,,,,,,,,5,1.177000046,5,0.743999958,1,0,1200,1159,1,1199,rifle,11118,2019-10-22_15h58.41.524,SurveyExpMetaMem,3.2.3,MacIntel,60
,,,,,,,,,,,,,,,,,,,,7,2.368999958,9,0.547999859,1,0,1200,173,1,1199,hope,11118,2019-10-22_15h58.41.524,SurveyExpMetaMem,3.2.3,MacIntel,60
,,,,,,,,,,,,,,,,,,,,3,2.272000074,2,0.682999849,1,0,1200,480,1,1199,hinder,11118,2019-10-22_15h58.41.524,SurveyExpMetaMem,3.2.3,MacIntel,60
,,,,,,,,,,,,,,,,,,,,5,1.255000114,5,0.488000154,1,0,1200,824,1,1199,favor,11118,2019-10-22_15h58.41.524,SurveyExpMetaMem,3.2.3,MacIntel,60
,,,,,,,,,,,,,,,,,,,,5,2.322999954,5,0.491999865,1,0,1200,360,1,1199,dandruff,11118,2019-10-22_15h58.41.524,SurveyExpMetaMem,3.2.3,MacIntel,60
,,,,,,,,,,,,,,,,,,,,3,3.704999924,2,0.481999874,1,0,1200,450,1,1199,overcast,11118,2019-10-22_15h58.41.524,SurveyExpMetaMem,3.2.3,MacIntel,60
,,,,,,,,,,,,,,,,,,,,8,5.272000074,7,0.569000006,1,0,1200,298,1,1199,success,11118,2019-10-22_15h58.41.524,SurveyExpMetaMem,3.2.3,MacIntel,60
,,,,,,,,,,,,,,,,,,,,8,1.570999861,2,0.52699995,1,0,1200,949,1,1199,thief,11118,2019-10-22_15h58.41.524,SurveyExpMetaMem,3.2.3,MacIntel,60
,,,,,,,,,,,,,,,,,,,,4,2.347999811,2,0.49000001,1,0,1200,528,1,1199,dirt,11118,2019-10-22_15h58.41.524,SurveyExpMetaMem,3.2.3,MacIntel,60
,,,,,,,,,,,,,,,,,,,,5,2.723999977,2,0.49000001,1,0,1200,1053,1,1199,surgery,11118,2019-10-22_15h58.41.524,SurveyExpMetaMem,3.2.3,MacIntel,60
,,,,,,,,,,,,,,,,,,,,9,2.143999815,8,0.723999977,1,0,1200,297,1,1199,pleasure,11118,2019-10-22_15h58.41.524,SurveyExpMetaMem,3.2.3,MacIntel,60
,,,,,,,,,,,,,,,,,,,,6,2.928999901,5,1.258000135,1,0,1200,55,1,1199,rare,11118,2019-10-22_15h58.41.524,SurveyExpMetaMem,3.2.3,MacIntel,60
,,,,,,,,,,,,,,,,,,,,4,7.520999908,5,0.690999985,1,0,1200,1023,1,1199,disorder,11118,2019-10-22_15h58.41.524,SurveyExpMetaMem,3.2.3,MacIntel,60
,,,,,,,,,,,,,,,,,,,,5,1.504999876,5,0.508000135,1,0,1200,6,1,1199,chest,11118,2019-10-22_15h58.41.524,SurveyExpMetaMem,3.2.3,MacIntel,60
,,,,,,,,,,,,,,,,,,,,5,1.513000011,5,0.473999977,1,0,1200,764,1,1199,coin,11118,2019-10-22_15h58.41.524,SurveyExpMetaMem,3.2.3,MacIntel,60
,,,,,,,,,,,,,,,,,,,,5,1.305999994,5,0.491999865,1,0,1200,572,1,1199,cast,11118,2019-10-22_15h58.41.524,SurveyExpMetaMem,3.2.3,MacIntel,60
,,,,,,,,,,,,,,,,,,,,7,2.39199996,3,0.544000149,1,0,1200,516,1,1199,smug,11118,2019-10-22_15h58.41.524,SurveyExpMetaMem,3.2.3,MacIntel,60
,,,,,,,,,,,,,,,,,,,,5,1.459000111,5,0.470999956,1,0,1200,38,1,1199,cheeseburger,11118,2019-10-22_15h58.41.524,SurveyExpMetaMem,3.2.3,MacIntel,60
,,,,,,,,,,,,,,,,,,,,8,2.569999933,3,0.556999922,1,0,1200,922,1,1199,nightmare,11118,2019-10-22_15h58.41.524,SurveyExpMetaMem,3.2.3,MacIntel,60
,,,,,,,,,,,,,,,,,,,,5,1.805999994,2,0.485000134,1,0,1200,309,1,1199,homeless,11118,2019-10-22_15h58.41.524,SurveyExpMetaMem,3.2.3,MacIntel,60
,,,,,,,,,,,,,,,,,,,,7,2.886999846,2,0.590999842,1,0,1200,469,1,1199,resent,11118,2019-10-22_15h58.41.524,SurveyExpMetaMem,3.2.3,MacIntel,60
,,,,,,,,,,,,,,,,,,,,5,2.023000002,5,0.556999922,1,0,1200,266,1,1199,juice,11118,2019-10-22_15h58.41.524,SurveyExpMetaMem,3.2.3,MacIntel,60
,,,,,,,,,,,,,,,,,,,,5,2.273000002,5,0.529999971,1,0,1200,571,1,1199,marrow,11118,2019-10-22_15h58.41.524,SurveyExpMetaMem,3.2.3,MacIntel,60
,,,,,,,,,,,,,,,,,,,,5,1.372999907,5,0.463999987,1,0,1200,668,1,1199,unit,11118,2019-10-22_15h58.41.524,SurveyExpMetaMem,3.2.3,MacIntel,60
,,,,,,,,,,,,,,,,,,,,5,1.49000001,5,0.428999901,1,0,1200,210,1,1199,elephant,11118,2019-10-22_15h58.41.524,SurveyExpMetaMem,3.2.3,MacIntel,60
,,,,,,,,,,,,,,,,,,,,5,1.67200017,5,0.388999939,1,0,1200,553,1,1199,corner,11118,2019-10-22_15h58.41.524,SurveyExpMetaMem,3.2.3,MacIntel,60
,,,,,,,,,,,,,,,,,,,,5,1.20299983,5,0.424000025,1,0,1200,540,1,1199,derelict,11118,2019-10-22_15h58.41.524,SurveyExpMetaMem,3.2.3,MacIntel,60
,,,,,,,,,,,,,,,,,,,,5,2.039000034,2,0.83100009,1,0,1200,426,1,1199,con,11118,2019-10-22_15h58.41.524,SurveyExpMetaMem,3.2.3,MacIntel,60
,,,,,,,,,,,,,,,,,,,,7,2.488999844,3,0.927000046,1,0,1200,1032,1,1199,exam,11118,2019-10-22_15h58.41.524,SurveyExpMetaMem,3.2.3,MacIntel,60
,,,,,,,,,,,,,,,,,,,,7,1.657999992,7,0.763000011,1,0,1200,34,1,1199,personality,11118,2019-10-22_15h58.41.524,SurveyExpMetaMem,3.2.3,MacIntel,60
,,,,,,,,,,,,,,,,,,,,5,1.276000023,5,0.507999897,1,0,1200,774,1,1199,leaves,11118,2019-10-22_15h58.41.524,SurveyExpMetaMem,3.2.3,MacIntel,60
,,,,,,,,,,,,,,,,,,,,5,1.563999891,5,0.503999949,1,0,1200,830,1,1199,pear,11118,2019-10-22_15h58.41.524,SurveyExpMetaMem,3.2.3,MacIntel,60
,,,,,,,,,,,,,,,,,,,,5,1.023000002,5,0.446000099,1,0,1200,276,1,1199,pastry,11118,2019-10-22_15h58.41.524,SurveyExpMetaMem,3.2.3,MacIntel,60
,,,,,,,,,,,,,,,,,,,,7,2.197000027,8,0.424000025,1,0,1200,52,1,1199,dare,11118,2019-10-22_15h58.41.524,SurveyExpMetaMem,3.2.3,MacIntel,60
,,,,,,,,,,,,,,,,,,,,7,1.805000067,3,0.441999912,1,0,1200,457,1,1199,confuse,11118,2019-10-22_15h58.41.524,SurveyExpMetaMem,3.2.3,MacIntel,60
,,,,,,,,,,,,,,,,,,,,5,1.605000019,5,0.446999788,1,0,1200,996,1,1199,sting,11118,2019-10-22_15h58.41.524,SurveyExpMetaMem,3.2.3,MacIntel,60
,,,,,,,,,,,,,,,,,,,,5,1.259000063,5,0.415999889,1,0,1200,719,1,1199,western,11118,2019-10-22_15h58.41.524,SurveyExpMetaMem,3.2.3,MacIntel,60
,,,,,,,,,,,,,,,,,,,,8,1.795000076,9,0.407000065,1,0,1200,194,1,1199,celebration,11118,2019-10-22_15h58.41.524,SurveyExpMetaMem,3.2.3,MacIntel,60
,,,,,,,,,,,,,,,,,,,,3,2.277999878,2,0.444000006,1,0,1200,387,1,1199,tax,11118,2019-10-22_15h58.41.524,SurveyExpMetaMem,3.2.3,MacIntel,60
,,,,,,,,,,,,,,,,,,,,5,1.211999893,5,0.402000189,1,0,1200,743,1,1199,herbal,11118,2019-10-22_15h58.41.524,SurveyExpMetaMem,3.2.3,MacIntel,60
,,,,,,,,,,,,,,,,,,,,5,1.156000137,5,0.444000006,1,0,1200,763,1,1199,vegetables,11118,2019-10-22_15h58.41.524,SurveyExpMetaMem,3.2.3,MacIntel,60
,,,,,,,,,,,,,,,,,,,,5,2.092000008,5,0.391000032,1,0,1200,522,1,1199,cleft,11118,2019-10-22_15h58.41.524,SurveyExpMetaMem,3.2.3,MacIntel,60
,,,,,,,,,,,,,,,,,,,,5,1.241000175,5,0.409000158,1,0,1200,1103,1,1199,mob,11118,2019-10-22_15h58.41.524,SurveyExpMetaMem,3.2.3,MacIntel,60
,,,,,,,,,,,,,,,,,,,,7,1.65899992,8,0.406999826,1,0,1200,81,1,1199,best,11118,2019-10-22_15h58.41.524,SurveyExpMetaMem,3.2.3,MacIntel,60
,,,,,,,,,,,,,,,,,,,,6,3.822000027,2,0.389999866,1,0,1200,467,1,1199,FALSE,11118,2019-10-22_15h58.41.524,SurveyExpMetaMem,3.2.3,MacIntel,60
,,,,,,,,,,,,,,,,,,,,3,1.958999872,3,0.410000086,1,0,1200,376,1,1199,incompetent,11118,2019-10-22_15h58.41.524,SurveyExpMetaMem,3.2.3,MacIntel,60
,,,,,,,,,,,,,,,,,,,,5,3.910000086,7,1.129000187,1,0,1200,880,1,1199,security,11118,2019-10-22_15h58.41.524,SurveyExpMetaMem,3.2.3,MacIntel,60
,,,,,,,,,,,,,,,,,,,,3,7.954999924,6,0.84100008,1,0,1200,858,1,1199,donate,11118,2019-10-22_15h58.41.524,SurveyExpMetaMem,3.2.3,MacIntel,60
,,,,,,,,,,,,,,,,,,,,5,2.355999947,5,0.488000154,1,0,1200,1102,1,1199,nuclear,11118,2019-10-22_15h58.41.524,SurveyExpMetaMem,3.2.3,MacIntel,60
,,,,,,,,,,,,,,,,,,,,8,1.841999769,2,0.49000001,1,0,1200,915,1,1199,abuse,11118,2019-10-22_15h58.41.524,SurveyExpMetaMem,3.2.3,MacIntel,60
,,,,,,,,,,,,,,,,,,,,9,1.024999857,1,0.476999998,1,0,1200,1022,1,1199,creepy,11118,2019-10-22_15h58.41.524,SurveyExpMetaMem,3.2.3,MacIntel,60
,,,,,,,,,,,,,,,,,,,,5,1.325999975,5,0.380000114,1,0,1200,644,1,1199,farm,11118,2019-10-22_15h58.41.524,SurveyExpMetaMem,3.2.3,MacIntel,60
,,,,,,,,,,,,,,,,,,,,9,2.22300005,2,0.461999893,1,0,1200,956,1,1199,crushed,11118,2019-10-22_15h58.41.524,SurveyExpMetaMem,3.2.3,MacIntel,60
,,,,,,,,,,,,,,,,,,,,5,2.096999884,5,0.451999903,1,0,1200,669,1,1199,plaza,11118,2019-10-22_15h58.41.524,SurveyExpMetaMem,3.2.3,MacIntel,60
,,,,,,,,,,,,,,,,,,,,6,2.421999931,2,0.440999985,1,0,1200,446,1,1199,greedy,11118,2019-10-22_15h58.41.524,SurveyExpMetaMem,3.2.3,MacIntel,60
,,,,,,,,,,,,,,,,,,,,5,1.511000156,5,0.477999926,1,0,1200,678,1,1199,lightbulb,11118,2019-10-22_15h58.41.524,SurveyExpMetaMem,3.2.3,MacIntel,60
,,,,,,,,,,,,,,,,,,,,5,1.313999891,5,0.491000175,1,0,1200,861,1,1199,nectar,11118,2019-10-22_15h58.41.524,SurveyExpMetaMem,3.2.3,MacIntel,60
,,,,,,,,,,,,,,,,,,,,5,2.460000038,5,0.479000092,1,0,1200,449,1,1199,egotistical,11118,2019-10-22_15h58.41.524,SurveyExpMetaMem,3.2.3,MacIntel,60
,,,,,,,,,,,,,,,,,,,,7,3.657999992,3,0.490999937,1,0,1200,958,1,1199,traitor,11118,2019-10-22_15h58.41.524,SurveyExpMetaMem,3.2.3,MacIntel,60
,,,,,,,,,,,,,,,,,,,,6,2.922999859,1,0.496999979,1,0,1200,323,1,1199,ungrateful,11118,2019-10-22_15h58.41.524,SurveyExpMetaMem,3.2.3,MacIntel,60
,,,,,,,,,,,,,,,,,,,,7,4.828999996,9,0.411000013,1,0,1200,123,1,1199,favorite,11118,2019-10-22_15h58.41.524,SurveyExpMetaMem,3.2.3,MacIntel,60
,,,,,,,,,,,,,,,,,,,,5,1.440999985,5,0.356999874,1,0,1200,645,1,1199,telescope,11118,2019-10-22_15h58.41.524,SurveyExpMetaMem,3.2.3,MacIntel,60
,,,,,,,,,,,,,,,,,,,,5,1.144999981,5,0.389999866,1,0,1200,219,1,1199,know,11118,2019-10-22_15h58.41.524,SurveyExpMetaMem,3.2.3,MacIntel,60
,,,,,,,,,,,,,,,,,,,,9,3.338999987,3,0.481000185,1,0,1200,1049,1,1199,electrocute,11118,2019-10-22_15h58.41.524,SurveyExpMetaMem,3.2.3,MacIntel,60
,,,,,,,,,,,,,,,,,,,,7,2.992000103,1,0.542000055,1,0,1200,955,1,1199,drown,11118,2019-10-22_15h58.41.524,SurveyExpMetaMem,3.2.3,MacIntel,60
,,,,,,,,,,,,,,,,,,,,5,1.116999865,5,0.391000032,1,0,1200,87,1,1199,cookie,11118,2019-10-22_15h58.41.524,SurveyExpMetaMem,3.2.3,MacIntel,60
,,,,,,,,,,,,,,,,,,,,5,1.159000158,5,0.440999985,1,0,1200,659,1,1199,hair,11118,2019-10-22_15h58.41.524,SurveyExpMetaMem,3.2.3,MacIntel,60
,,,,,,,,,,,,,,,,,,,,5,1.289000034,5,0.426000118,1,0,1200,582,1,1199,cling,11118,2019-10-22_15h58.41.524,SurveyExpMetaMem,3.2.3,MacIntel,60
,,,,,,,,,,,,,,,,,,,,7,1.25999999,5,0.375,1,0,1200,503,1,1199,sludge,11118,2019-10-22_15h58.41.524,SurveyExpMetaMem,3.2.3,MacIntel,60
,,,,,,,,,,,,,,,,,,,,6,2.627000093,9,0.443000078,1,0,1200,1150,1,1199,forceful,11118,2019-10-22_15h58.41.524,SurveyExpMetaMem,3.2.3,MacIntel,60
,,,,,,,,,,,,,,,,,,,,8,1.839000225,9,0.365999937,1,0,1200,185,1,1199,flirt,11118,2019-10-22_15h58.41.524,SurveyExpMetaMem,3.2.3,MacIntel,60
,,,,,,,,,,,,,,,,,,,,8,1.823000193,4,0.476000071,1,0,1200,1122,1,1199,gossip,11118,2019-10-22_15h58.41.524,SurveyExpMetaMem,3.2.3,MacIntel,60
,,,,,,,,,,,,,,,,,,,,5,3.275999784,1,0.539999962,1,0,1200,947,1,1199,shame,11118,2019-10-22_15h58.41.524,SurveyExpMetaMem,3.2.3,MacIntel,60
,,,,,,,,,,,,,,,,,,,,5,2.388999939,5,0.424999952,1,0,1200,951,1,1199,castrate,11118,2019-10-22_15h58.41.524,SurveyExpMetaMem,3.2.3,MacIntel,60
,,,,,,,,,,,,,,,,,,,,5,2.470000029,5,0.423999786,1,0,1200,685,1,1199,makeup,11118,2019-10-22_15h58.41.524,SurveyExpMetaMem,3.2.3,MacIntel,60
,,,,,,,,,,,,,,,,,,,,5,1.173000097,5,0.45600009,1,0,1200,855,1,1199,girl,11118,2019-10-22_15h58.41.524,SurveyExpMetaMem,3.2.3,MacIntel,60
,,,,,,,,,,,,,,,,,,,,5,1.240999937,5,0.512000084,1,0,1200,460,1,1199,rag,11118,2019-10-22_15h58.41.524,SurveyExpMetaMem,3.2.3,MacIntel,60
,,,,,,,,,,,,,,,,,,,,5,1.157999992,3,0.842000008,1,0,1200,1107,1,1199,snake,11118,2019-10-22_15h58.41.524,SurveyExpMetaMem,3.2.3,MacIntel,60
,,,,,,,,,,,,,,,,,,,,5,1.172999859,5,0.506999969,1,0,1200,856,1,1199,leisurely,11118,2019-10-22_15h58.41.524,SurveyExpMetaMem,3.2.3,MacIntel,60
,,,,,,,,,,,,,,,,,,,,5,1.173000097,7,0.488999844,1,0,1200,893,1,1199,nature,11118,2019-10-22_15h58.41.524,SurveyExpMetaMem,3.2.3,MacIntel,60
,,,,,,,,,,,,,,,,,,,,5,2.412999868,7,0.476000071,1,0,1200,854,1,1199,river,11118,2019-10-22_15h58.41.524,SurveyExpMetaMem,3.2.3,MacIntel,60
,,,,,,,,,,,,,,,,,,,,7,1.672999859,9,0.474999905,1,0,1200,90,1,1199,satisfaction,11118,2019-10-22_15h58.41.524,SurveyExpMetaMem,3.2.3,MacIntel,60
,,,,,,,,,,,,,,,,,,,,5,2.84100008,5,0.527999878,1,0,1200,524,1,1199,sigh,11118,2019-10-22_15h58.41.524,SurveyExpMetaMem,3.2.3,MacIntel,60
,,,,,,,,,,,,,,,,,,,,5,2.522000074,3,0.391000032,1,0,1200,395,1,1199,lack,11118,2019-10-22_15h58.41.524,SurveyExpMetaMem,3.2.3,MacIntel,60
,,,,,,,,,,,,,,,,,,,,5,1.057999849,5,0.481999874,1,0,1200,765,1,1199,candid,11118,2019-10-22_15h58.41.524,SurveyExpMetaMem,3.2.3,MacIntel,60
,,,,,,,,,,,,,,,,,,,,7,1.704999924,9,0.507000208,1,0,1200,242,1,1199,triumph,11118,2019-10-22_15h58.41.524,SurveyExpMetaMem,3.2.3,MacIntel,60
,,,,,,,,,,,,,,,,,,,,5,1.562999964,5,0.590999842,1,0,1200,1118,1,1199,frantic,11118,2019-10-22_15h58.41.524,SurveyExpMetaMem,3.2.3,MacIntel,60
,,,,,,,,,,,,,,,,,,,,5,1.210000038,5,0.513999939,1,0,1200,107,1,1199,sandwich,11118,2019-10-22_15h58.41.524,SurveyExpMetaMem,3.2.3,MacIntel,60
,,,,,,,,,,,,,,,,,,,,5,1.140000105,5,0.556999922,1,0,1200,602,1,1199,vegetable,11118,2019-10-22_15h58.41.524,SurveyExpMetaMem,3.2.3,MacIntel,60
,,,,,,,,,,,,,,,,,,,,5,1.275000095,5,0.539000034,1,0,1200,511,1,1199,slouch,11118,2019-10-22_15h58.41.524,SurveyExpMetaMem,3.2.3,MacIntel,60
,,,,,,,,,,,,,,,,,,,,5,1.608999968,4,0.675000191,1,0,1200,676,1,1199,straighten,11118,2019-10-22_15h58.41.524,SurveyExpMetaMem,3.2.3,MacIntel,60
,,,,,,,,,,,,,,,,,,,,5,1.63499999,5,0.605999947,1,0,1200,1017,1,1199,aggravated,11118,2019-10-22_15h58.41.524,SurveyExpMetaMem,3.2.3,MacIntel,60
,,,,,,,,,,,,,,,,,,,,5,2.907999992,7,0.55700016,1,0,1200,126,1,1199,rich,11118,2019-10-22_15h58.41.524,SurveyExpMetaMem,3.2.3,MacIntel,60
,,,,,,,,,,,,,,,,,,,,9,2.656999826,2,0.576000214,1,0,1200,1015,1,1199,frighten,11118,2019-10-22_15h58.41.524,SurveyExpMetaMem,3.2.3,MacIntel,60
,,,,,,,,,,,,,,,,,,,,5,1.289000034,5,0.440999985,1,0,1200,1147,1,1199,demand,11118,2019-10-22_15h58.41.524,SurveyExpMetaMem,3.2.3,MacIntel,60
,,,,,,,,,,,,,,,,,,,,5,1.604000092,5,0.440000057,1,0,1200,591,1,1199,bereavement,11118,2019-10-22_15h58.41.524,SurveyExpMetaMem,3.2.3,MacIntel,60
,,,,,,,,,,,,,,,,,,,,7,2.562000036,5,0.529999971,1,0,1200,1170,1,1199,police,11118,2019-10-22_15h58.41.524,SurveyExpMetaMem,3.2.3,MacIntel,60
,,,,,,,,,,,,,,,,,,,,9,1.473999977,3,0.507999897,1,0,1200,1171,1,1199,chaos,11118,2019-10-22_15h58.41.524,SurveyExpMetaMem,3.2.3,MacIntel,60
,,,,,,,,,,,,,,,,,,,,5,1.528000116,5,0.497999907,1,0,1200,10,1,1199,cheerleader,11118,2019-10-22_15h58.41.524,SurveyExpMetaMem,3.2.3,MacIntel,60
,,,,,,,,,,,,,,,,,,,,5,1.373000145,5,0.506000042,1,0,1200,1010,1,1199,arson,11118,2019-10-22_15h58.41.524,SurveyExpMetaMem,3.2.3,MacIntel,60
,,,,,,,,,,,,,,,,,,,,5,1.625999928,5,1.321000099,1,0,1200,521,1,1199,laundry,11118,2019-10-22_15h58.41.524,SurveyExpMetaMem,3.2.3,MacIntel,60
,,,,,,,,,,,,,,,,,,,,7,2.138000011,7,0.564999819,1,0,1200,98,1,1199,affection,11118,2019-10-22_15h58.41.524,SurveyExpMetaMem,3.2.3,MacIntel,60
,,,,,,,,,,,,,,,,,,,,5,1.422999859,5,0.496999979,1,0,1200,560,1,1199,spurn,11118,2019-10-22_15h58.41.524,SurveyExpMetaMem,3.2.3,MacIntel,60
,,,,,,,,,,,,,,,,,,,,3,2.311000109,6,0.624000072,1,0,1200,717,1,1199,modest,11118,2019-10-22_15h58.41.524,SurveyExpMetaMem,3.2.3,MacIntel,60
,,,,,,,,,,,,,,,,,,,,5,1.676000118,5,0.708000183,1,0,1200,233,1,1199,exhilaration,11118,2019-10-22_15h58.41.524,SurveyExpMetaMem,3.2.3,MacIntel,60
,,,,,,,,,,,,,,,,,,,,7,2.075999975,4,1.362999916,1,0,1200,1067,1,1199,wicked,11118,2019-10-22_15h58.41.524,SurveyExpMetaMem,3.2.3,MacIntel,60
,,,,,,,,,,,,,,,,,,,,5,2.524000168,7,0.842000008,1,0,1200,46,1,1199,god,11118,2019-10-22_15h58.41.524,SurveyExpMetaMem,3.2.3,MacIntel,60
,,,,,,,,,,,,,,,,,,,,5,1.256000042,5,0.526000023,1,0,1200,1034,1,1199,pester,11118,2019-10-22_15h58.41.524,SurveyExpMetaMem,3.2.3,MacIntel,60
,,,,,,,,,,,,,,,,,,,,8,1.65500021,3,0.689999819,1,0,1200,1051,1,1199,insane,11118,2019-10-22_15h58.41.524,SurveyExpMetaMem,3.2.3,MacIntel,60
,,,,,,,,,,,,,,,,,,,,8,1.378999949,1,0.674999952,1,0,1200,1070,1,1199,bleed,11118,2019-10-22_15h58.41.524,SurveyExpMetaMem,3.2.3,MacIntel,60
,,,,,,,,,,,,,,,,,,,,7,3.022000074,7,0.547999859,1,0,1200,54,1,1199,alcohol,11118,2019-10-22_15h58.41.524,SurveyExpMetaMem,3.2.3,MacIntel,60
,,,,,,,,,,,,,,,,,,,,4,3.45600009,1,0.473999977,1,0,1200,302,1,1199,loneliness,11118,2019-10-22_15h58.41.524,SurveyExpMetaMem,3.2.3,MacIntel,60
,,,,,,,,,,,,,,,,,,,,5,2.537000179,7,1.002000093,1,0,1200,147,1,1199,cure,11118,2019-10-22_15h58.41.524,SurveyExpMetaMem,3.2.3,MacIntel,60
,,,,,,,,,,,,,,,,,,,,5,3.171000004,1,0.440000057,1,0,1200,906,1,1199,syphilis,11118,2019-10-22_15h58.41.524,SurveyExpMetaMem,3.2.3,MacIntel,60
,,,,,,,,,,,,,,,,,,,,5,1.122999907,5,0.506999969,1,0,1200,86,1,1199,talent,11118,2019-10-22_15h58.41.524,SurveyExpMetaMem,3.2.3,MacIntel,60
,,,,,,,,,,,,,,,,,,,,5,1.277999878,5,0.523999929,1,0,1200,597,1,1199,drool,11118,2019-10-22_15h58.41.524,SurveyExpMetaMem,3.2.3,MacIntel,60
,,,,,,,,,,,,,,,,,,,,5,1.806999922,5,0.49000001,1,0,1200,41,1,1199,progress,11118,2019-10-22_15h58.41.524,SurveyExpMetaMem,3.2.3,MacIntel,60
,,,,,,,,,,,,,,,,,,,,5,1.988000154,5,0.583999872,1,0,1200,501,1,1199,dustpan,11118,2019-10-22_15h58.41.524,SurveyExpMetaMem,3.2.3,MacIntel,60
,,,,,,,,,,,,,,,,,,,,5,1.74000001,5,0.392000198,1,0,1200,504,1,1199,cane,11118,2019-10-22_15h58.41.524,SurveyExpMetaMem,3.2.3,MacIntel,60
,,,,,,,,,,,,,,,,,,,,7,3.15899992,5,0.459000111,1,0,1200,566,1,1199,obscure,11118,2019-10-22_15h58.41.524,SurveyExpMetaMem,3.2.3,MacIntel,60
,,,,,,,,,,,,,,,,,,,,7,2.804999828,3,0.470999956,1,0,1200,411,1,1199,bitter,11118,2019-10-22_15h58.41.524,SurveyExpMetaMem,3.2.3,MacIntel,60
,,,,,,,,,,,,,,,,,,,,9,2.124000072,2,0.657000065,1,0,1200,933,1,1199,afraid,11118,2019-10-22_15h58.41.524,SurveyExpMetaMem,3.2.3,MacIntel,60
,,,,,,,,,,,,,,,,,,,,9,1.171999931,1,0.562000036,1,0,1200,907,1,1199,terrorist,11118,2019-10-22_15h58.41.524,SurveyExpMetaMem,3.2.3,MacIntel,60
,,,,,,,,,,,,,,,,,,,,5,2.60800004,8,0.542000055,1,0,1200,43,1,1199,diamond,11118,2019-10-22_15h58.41.524,SurveyExpMetaMem,3.2.3,MacIntel,60
,,,,,,,,,,,,,,,,,,,,5,1.741000175,7,0.461999893,1,0,1200,671,1,1199,windmill,11118,2019-10-22_15h58.41.524,SurveyExpMetaMem,3.2.3,MacIntel,60
,,,,,,,,,,,,,,,,,,,,5,1.556999922,5,0.476000071,1,0,1200,554,1,1199,label,11118,2019-10-22_15h58.41.524,SurveyExpMetaMem,3.2.3,MacIntel,60
,,,,,,,,,,,,,,,,,,,,5,1.605000019,7,0.49000001,1,0,1200,735,1,1199,tea,11118,2019-10-22_15h58.41.524,SurveyExpMetaMem,3.2.3,MacIntel,60
