mouse_4.x,mouse_4.y,mouse_4.leftButton,mouse_4.midButton,mouse_4.rightButton,mouse.x,mouse.y,mouse.leftButton,mouse.midButton,mouse.rightButton,mouse_2.x,mouse_2.y,mouse_2.leftButton,mouse_2.midButton,mouse_2.rightButton,mouse_3.x,mouse_3.y,mouse_3.leftButton,mouse_3.midButton,mouse_3.rightButton,A_key_resp.keys,A_key_resp.rt,key_resp.keys,key_resp.rt,trials.thisRepN,trials.thisTrialN,trials.thisN,trials.thisIndex,trials.ran,trials.order,word,ParticipantID,date,expName,psychopyVersion,OS,frameRate
0.167497535,-0.072283168,1,0,0,0.167497535,-0.072283168,1,0,0,0.281156561,-0.191259575,1,0,0,0.281156561,-0.191259575,1,0,0,2,7.904999733,9,2.674000025,1,0,1200,90,1,1199,satisfaction,11119,2019-10-21_17h25.35.408,SurveyExpMetaMem,3.2.3,Win32,60
,,,,,,,,,,,,,,,,,,,,1,2.299999714,4,3.35800004,1,0,1200,746,1,1199,proper,11119,2019-10-21_17h25.35.408,SurveyExpMetaMem,3.2.3,Win32,60
,,,,,,,,,,,,,,,,,,,,6,7.138000011,1,3.355999708,1,0,1200,971,1,1199,crash,11119,2019-10-21_17h25.35.408,SurveyExpMetaMem,3.2.3,Win32,60
,,,,,,,,,,,,,,,,,,,,5,2.203999996,6,2.27699995,1,0,1200,807,1,1199,person,11119,2019-10-21_17h25.35.408,SurveyExpMetaMem,3.2.3,Win32,60
,,,,,,,,,,,,,,,,,,,,3,7.181999922,2,2.269999981,1,0,1200,342,1,1199,alienation,11119,2019-10-21_17h25.35.408,SurveyExpMetaMem,3.2.3,Win32,60
,,,,,,,,,,,,,,,,,,,,7,4.301000118,6,1.953000069,1,0,1200,533,1,1199,busy,11119,2019-10-21_17h25.35.408,SurveyExpMetaMem,3.2.3,Win32,60
,,,,,,,,,,,,,,,,,,,,6,3.652999878,2,4.273999929,1,0,1200,479,1,1199,period,11119,2019-10-21_17h25.35.408,SurveyExpMetaMem,3.2.3,Win32,60
,,,,,,,,,,,,,,,,,,,,6,3.3349998,7,5.052999735,1,0,1200,79,1,1199,dazzle,11119,2019-10-21_17h25.35.408,SurveyExpMetaMem,3.2.3,Win32,60
,,,,,,,,,,,,,,,,,,,,6,4.511999846,4,2.782000065,1,0,1200,789,1,1199,green,11119,2019-10-21_17h25.35.408,SurveyExpMetaMem,3.2.3,Win32,60
,,,,,,,,,,,,,,,,,,,,5,2.686999798,5,0.93599987,1,0,1200,761,1,1199,corn,11119,2019-10-21_17h25.35.408,SurveyExpMetaMem,3.2.3,Win32,60
,,,,,,,,,,,,,,,,,,,,6,7.621999979,4,2.481999874,1,0,1200,370,1,1199,rodent,11119,2019-10-21_17h25.35.408,SurveyExpMetaMem,3.2.3,Win32,60
,,,,,,,,,,,,,,,,,,,,1,2.416999817,3,2.69299984,1,0,1200,433,1,1199,uninteresting,11119,2019-10-21_17h25.35.408,SurveyExpMetaMem,3.2.3,Win32,60
,,,,,,,,,,,,,,,,,,,,3,4.57400012,6,3.098999977,1,0,1200,887,1,1199,elegant,11119,2019-10-21_17h25.35.408,SurveyExpMetaMem,3.2.3,Win32,60
,,,,,,,,,,,,,,,,,,,,1,2.169999838,6,3.572000027,1,0,1200,893,1,1199,nature,11119,2019-10-21_17h25.35.408,SurveyExpMetaMem,3.2.3,Win32,60
,,,,,,,,,,,,,,,,,,,,2,5.004999876,6,2.186999798,1,0,1200,714,1,1199,courtyard,11119,2019-10-21_17h25.35.408,SurveyExpMetaMem,3.2.3,Win32,60
,,,,,,,,,,,,,,,,,,,,7,5.199999809,6,2.289999962,1,0,1200,854,1,1199,river,11119,2019-10-21_17h25.35.408,SurveyExpMetaMem,3.2.3,Win32,60
,,,,,,,,,,,,,,,,,,,,1,4.036000013,2,3.467999935,1,0,1200,455,1,1199,chubby,11119,2019-10-21_17h25.35.408,SurveyExpMetaMem,3.2.3,Win32,60
,,,,,,,,,,,,,,,,,,,,7,2.991999865,6,8.329999924,1,0,1200,269,1,1199,extravagant,11119,2019-10-21_17h25.35.408,SurveyExpMetaMem,3.2.3,Win32,60
,,,,,,,,,,,,,,,,,,,,3,3.970999956,6,2.338000059,1,0,1200,114,1,1199,raise,11119,2019-10-21_17h25.35.408,SurveyExpMetaMem,3.2.3,Win32,60
,,,,,,,,,,,,,,,,,,,,2,4.833999872,6,1.706999779,1,0,1200,894,1,1199,sunset,11119,2019-10-21_17h25.35.408,SurveyExpMetaMem,3.2.3,Win32,60
,,,,,,,,,,,,,,,,,,,,7,3.351000071,1,2.372999907,1,0,1200,945,1,1199,demon,11119,2019-10-21_17h25.35.408,SurveyExpMetaMem,3.2.3,Win32,60
,,,,,,,,,,,,,,,,,,,,1,1.388999939,1,3.240999937,1,0,1200,895,1,1199,peace,11119,2019-10-21_17h25.35.408,SurveyExpMetaMem,3.2.3,Win32,60
,,,,,,,,,,,,,,,,,,,,7,5.319000006,2,2.319999933,1,0,1200,1167,1,1199,bribe,11119,2019-10-21_17h25.35.408,SurveyExpMetaMem,3.2.3,Win32,60
,,,,,,,,,,,,,,,,,,,,1,2.007999897,6,2.319999933,1,0,1200,826,1,1199,poem,11119,2019-10-21_17h25.35.408,SurveyExpMetaMem,3.2.3,Win32,60
,,,,,,,,,,,,,,,,,,,,3,3.188999891,2,1.554999828,1,0,1200,427,1,1199,doubt,11119,2019-10-21_17h25.35.408,SurveyExpMetaMem,3.2.3,Win32,60
,,,,,,,,,,,,,,,,,,,,3,16.08699989,1,3.914999962,1,0,1200,598,1,1199,feet,11119,2019-10-21_17h25.35.408,SurveyExpMetaMem,3.2.3,Win32,60
,,,,,,,,,,,,,,,,,,,,2,5.322000027,7,2.005000114,1,0,1200,729,1,1199,velvet,11119,2019-10-21_17h25.35.408,SurveyExpMetaMem,3.2.3,Win32,60
,,,,,,,,,,,,,,,,,,,,8,3.042999983,8,2.872999907,1,0,1200,264,1,1199,thong,11119,2019-10-21_17h25.35.408,SurveyExpMetaMem,3.2.3,Win32,60
,,,,,,,,,,,,,,,,,,,,7,1.953999996,6,3.00999999,1,0,1200,252,1,1199,infatuated,11119,2019-10-21_17h25.35.408,SurveyExpMetaMem,3.2.3,Win32,60
,,,,,,,,,,,,,,,,,,,,1,3.100000143,6,1.644000053,1,0,1200,883,1,1199,sky,11119,2019-10-21_17h25.35.408,SurveyExpMetaMem,3.2.3,Win32,60
,,,,,,,,,,,,,,,,,,,,2,3.875999928,2,1.888999939,1,0,1200,414,1,1199,pity,11119,2019-10-21_17h25.35.408,SurveyExpMetaMem,3.2.3,Win32,60
,,,,,,,,,,,,,,,,,,,,7,2.167000055,2,3.438999891,1,0,1200,1169,1,1199,enforcement,11119,2019-10-21_17h25.35.408,SurveyExpMetaMem,3.2.3,Win32,60
,,,,,,,,,,,,,,,,,,,,5,2.305999994,5,0.512999773,1,0,1200,498,1,1199,alimony,11119,2019-10-21_17h25.35.408,SurveyExpMetaMem,3.2.3,Win32,60
,,,,,,,,,,,,,,,,,,,,1,2.736999989,7,3.286999941,1,0,1200,878,1,1199,sleep,11119,2019-10-21_17h25.35.408,SurveyExpMetaMem,3.2.3,Win32,60
,,,,,,,,,,,,,,,,,,,,3,2.823999882,2,2.604999781,1,0,1200,1060,1,1199,dent,11119,2019-10-21_17h25.35.408,SurveyExpMetaMem,3.2.3,Win32,60
,,,,,,,,,,,,,,,,,,,,1,2.147000074,2,2.621999741,1,0,1200,925,1,1199,disloyal,11119,2019-10-21_17h25.35.408,SurveyExpMetaMem,3.2.3,Win32,60
,,,,,,,,,,,,,,,,,,,,6,2.036999941,6,1.373999834,1,0,1200,781,1,1199,emerald,11119,2019-10-21_17h25.35.408,SurveyExpMetaMem,3.2.3,Win32,60
,,,,,,,,,,,,,,,,,,,,2,2.088999987,6,2.789999723,1,0,1200,872,1,1199,dignified,11119,2019-10-21_17h25.35.408,SurveyExpMetaMem,3.2.3,Win32,60
,,,,,,,,,,,,,,,,,,,,7,5.065999746,2,3.287999868,1,0,1200,1161,1,1199,shock,11119,2019-10-21_17h25.35.408,SurveyExpMetaMem,3.2.3,Win32,60
,,,,,,,,,,,,,,,,,,,,1,1.785999775,2,2.273999929,1,0,1200,574,1,1199,distracted,11119,2019-10-21_17h25.35.408,SurveyExpMetaMem,3.2.3,Win32,60
,,,,,,,,,,,,,,,,,,,,7,2.177000046,6,1.439999819,1,0,1200,3,1,1199,nudist,11119,2019-10-21_17h25.35.408,SurveyExpMetaMem,3.2.3,Win32,60
,,,,,,,,,,,,,,,,,,,,1,3.338999987,4,6.67599988,1,0,1200,426,1,1199,con,11119,2019-10-21_17h25.35.408,SurveyExpMetaMem,3.2.3,Win32,60
,,,,,,,,,,,,,,,,,,,,1,1.650999784,6,3.440999985,1,0,1200,546,1,1199,solemn,11119,2019-10-21_17h25.35.408,SurveyExpMetaMem,3.2.3,Win32,60
,,,,,,,,,,,,,,,,,,,,7,2.438999891,1,3.095999956,1,0,1200,317,1,1199,cry,11119,2019-10-21_17h25.35.408,SurveyExpMetaMem,3.2.3,Win32,60
,,,,,,,,,,,,,,,,,,,,8,5.967999935,3,2.815999985,1,0,1200,1172,1,1199,overwhelmed,11119,2019-10-21_17h25.35.408,SurveyExpMetaMem,3.2.3,Win32,60
,,,,,,,,,,,,,,,,,,,,1,1.917999983,2,2.835999727,1,0,1200,345,1,1199,unfortunate,11119,2019-10-21_17h25.35.408,SurveyExpMetaMem,3.2.3,Win32,60
,,,,,,,,,,,,,,,,,,,,5,1.887000084,5,0.380999804,1,0,1200,619,1,1199,pulpit,11119,2019-10-21_17h25.35.408,SurveyExpMetaMem,3.2.3,Win32,60
,,,,,,,,,,,,,,,,,,,,3,1.76699996,7,1.522000074,1,0,1200,127,1,1199,glamorous,11119,2019-10-21_17h25.35.408,SurveyExpMetaMem,3.2.3,Win32,60
,,,,,,,,,,,,,,,,,,,,3,3.004999876,4,1.673999786,1,0,1200,476,1,1199,warden,11119,2019-10-21_17h25.35.408,SurveyExpMetaMem,3.2.3,Win32,60
,,,,,,,,,,,,,,,,,,,,8,3.819999933,4,8.606999874,1,0,1200,1134,1,1199,obsessed,11119,2019-10-21_17h25.35.408,SurveyExpMetaMem,3.2.3,Win32,60
,,,,,,,,,,,,,,,,,,,,4,3.523000002,6,1.890999794,1,0,1200,245,1,1199,beach,11119,2019-10-21_17h25.35.408,SurveyExpMetaMem,3.2.3,Win32,60
,,,,,,,,,,,,,,,,,,,,1,2.156999826,5,2.322999954,1,0,1200,683,1,1199,scarf,11119,2019-10-21_17h25.35.408,SurveyExpMetaMem,3.2.3,Win32,60
,,,,,,,,,,,,,,,,,,,,6,7.605000019,7,1.520999908,1,0,1200,39,1,1199,birth,11119,2019-10-21_17h25.35.408,SurveyExpMetaMem,3.2.3,Win32,60
,,,,,,,,,,,,,,,,,,,,5,2.859999895,5,0.522999763,1,0,1200,216,1,1199,vigorous,11119,2019-10-21_17h25.35.408,SurveyExpMetaMem,3.2.3,Win32,60
,,,,,,,,,,,,,,,,,,,,3,3.573999882,6,1.154999971,1,0,1200,520,1,1199,gullible,11119,2019-10-21_17h25.35.408,SurveyExpMetaMem,3.2.3,Win32,60
,,,,,,,,,,,,,,,,,,,,7,2.957999945,5,2.324999809,1,0,1200,1166,1,1199,compulsive,11119,2019-10-21_17h25.35.408,SurveyExpMetaMem,3.2.3,Win32,60
,,,,,,,,,,,,,,,,,,,,7,1.738999844,1,2.40899992,1,0,1200,1014,1,1199,destroy,11119,2019-10-21_17h25.35.408,SurveyExpMetaMem,3.2.3,Win32,60
,,,,,,,,,,,,,,,,,,,,5,1.572999954,6,2.483999968,1,0,1200,178,1,1199,alive,11119,2019-10-21_17h25.35.408,SurveyExpMetaMem,3.2.3,Win32,60
,,,,,,,,,,,,,,,,,,,,2,1.552999973,7,1.691999912,1,0,1200,853,1,1199,breeze,11119,2019-10-21_17h25.35.408,SurveyExpMetaMem,3.2.3,Win32,60
,,,,,,,,,,,,,,,,,,,,2,1.891000032,7,13.25399995,1,0,1200,47,1,1199,enjoy,11119,2019-10-21_17h25.35.408,SurveyExpMetaMem,3.2.3,Win32,60
,,,,,,,,,,,,,,,,,,,,8,6.967000008,2,1.888999939,1,0,1200,1076,1,1199,embarrassed,11119,2019-10-21_17h25.35.408,SurveyExpMetaMem,3.2.3,Win32,60
,,,,,,,,,,,,,,,,,,,,5,16.36799979,8,23.47000003,1,0,1200,640,1,1199,cabin,11119,2019-10-21_17h25.35.408,SurveyExpMetaMem,3.2.3,Win32,60
,,,,,,,,,,,,,,,,,,,,1,2.404999971,9,1.803999901,1,0,1200,862,1,1199,ease,11119,2019-10-21_17h25.35.408,SurveyExpMetaMem,3.2.3,Win32,60
,,,,,,,,,,,,,,,,,,,,2,12.83399987,8,3.018999815,1,0,1200,139,1,1199,generosity,11119,2019-10-21_17h25.35.408,SurveyExpMetaMem,3.2.3,Win32,60
,,,,,,,,,,,,,,,,,,,,4,3.205999851,7,53.05499983,1,0,1200,183,1,1199,congratulate,11119,2019-10-21_17h25.35.408,SurveyExpMetaMem,3.2.3,Win32,60
,,,,,,,,,,,,,,,,,,,,5,1.38499999,6,1.510999918,1,0,1200,763,1,1199,vegetables,11119,2019-10-21_17h25.35.408,SurveyExpMetaMem,3.2.3,Win32,60
,,,,,,,,,,,,,,,,,,,,3,3.101000071,8,2.454999924,1,0,1200,648,1,1199,beads,11119,2019-10-21_17h25.35.408,SurveyExpMetaMem,3.2.3,Win32,60
,,,,,,,,,,,,,,,,,,,,3,1.953000069,6,1.358999968,1,0,1200,804,1,1199,peach,11119,2019-10-21_17h25.35.408,SurveyExpMetaMem,3.2.3,Win32,60
,,,,,,,,,,,,,,,,,,,,5,25.15999985,6,1.105000019,1,0,1200,749,1,1199,glasses,11119,2019-10-21_17h25.35.408,SurveyExpMetaMem,3.2.3,Win32,60
,,,,,,,,,,,,,,,,,,,,2,1.997999907,1,1.798999786,1,0,1200,936,1,1199,assault,11119,2019-10-21_17h25.35.408,SurveyExpMetaMem,3.2.3,Win32,60
,,,,,,,,,,,,,,,,,,,,2,2.468999863,4,2.15899992,1,0,1200,1075,1,1199,apprehension,11119,2019-10-21_17h25.35.408,SurveyExpMetaMem,3.2.3,Win32,60
,,,,,,,,,,,,,,,,,,,,1,1.385999918,4,1.006999969,1,0,1200,489,1,1199,timid,11119,2019-10-21_17h25.35.408,SurveyExpMetaMem,3.2.3,Win32,60
,,,,,,,,,,,,,,,,,,,,4,28.2889998,7,1.092000008,1,0,1200,858,1,1199,donate,11119,2019-10-21_17h25.35.408,SurveyExpMetaMem,3.2.3,Win32,60
,,,,,,,,,,,,,,,,,,,,4,21.35399985,2,1.607999802,1,0,1200,545,1,1199,tar,11119,2019-10-21_17h25.35.408,SurveyExpMetaMem,3.2.3,Win32,60
,,,,,,,,,,,,,,,,,,,,7,1.720999956,8,1.288999796,1,0,1200,13,1,1199,mingle,11119,2019-10-21_17h25.35.408,SurveyExpMetaMem,3.2.3,Win32,60
,,,,,,,,,,,,,,,,,,,,6,11.98899984,7,1.69900012,1,0,1200,151,1,1199,react,11119,2019-10-21_17h25.35.408,SurveyExpMetaMem,3.2.3,Win32,60
,,,,,,,,,,,,,,,,,,,,3,1.684999943,7,136.273,1,0,1200,1196,1,1199,breathless,11119,2019-10-21_17h25.35.408,SurveyExpMetaMem,3.2.3,Win32,60
,,,,,,,,,,,,,,,,,,,,5,1.899999857,4,1.754999876,1,0,1200,668,1,1199,unit,11119,2019-10-21_17h25.35.408,SurveyExpMetaMem,3.2.3,Win32,60
,,,,,,,,,,,,,,,,,,,,1,369.0909998,3,1.470000029,1,0,1200,438,1,1199,dull,11119,2019-10-21_17h25.35.408,SurveyExpMetaMem,3.2.3,Win32,60
,,,,,,,,,,,,,,,,,,,,7,1.553999901,2,1.505999804,1,0,1200,1012,1,1199,gunshot,11119,2019-10-21_17h25.35.408,SurveyExpMetaMem,3.2.3,Win32,60
,,,,,,,,,,,,,,,,,,,,7,1.806999922,3,1.440999985,1,0,1200,1187,1,1199,drill,11119,2019-10-21_17h25.35.408,SurveyExpMetaMem,3.2.3,Win32,60
,,,,,,,,,,,,,,,,,,,,2,1.81099987,2,1.341999769,1,0,1200,952,1,1199,troubled,11119,2019-10-21_17h25.35.408,SurveyExpMetaMem,3.2.3,Win32,60
,,,,,,,,,,,,,,,,,,,,4,2.371000051,2,1.489000082,1,0,1200,382,1,1199,vulnerable,11119,2019-10-21_17h25.35.408,SurveyExpMetaMem,3.2.3,Win32,60
,,,,,,,,,,,,,,,,,,,,5,39.10599995,5,0.622999907,1,0,1200,768,1,1199,trait,11119,2019-10-21_17h25.35.408,SurveyExpMetaMem,3.2.3,Win32,60
,,,,,,,,,,,,,,,,,,,,4,2.679999828,7,1.539000034,1,0,1200,146,1,1199,congratulations,11119,2019-10-21_17h25.35.408,SurveyExpMetaMem,3.2.3,Win32,60
,,,,,,,,,,,,,,,,,,,,5,2.087000132,7,1.273999929,1,0,1200,203,1,1199,seal,11119,2019-10-21_17h25.35.408,SurveyExpMetaMem,3.2.3,Win32,60
,,,,,,,,,,,,,,,,,,,,5,1.539999723,5,0.370999813,1,0,1200,750,1,1199,porpoise,11119,2019-10-21_17h25.35.408,SurveyExpMetaMem,3.2.3,Win32,60
,,,,,,,,,,,,,,,,,,,,4,5.325000048,3,2.753000021,1,0,1200,451,1,1199,lame,11119,2019-10-21_17h25.35.408,SurveyExpMetaMem,3.2.3,Win32,60
,,,,,,,,,,,,,,,,,,,,6,1.758999825,7,1.172999859,1,0,1200,621,1,1199,chew,11119,2019-10-21_17h25.35.408,SurveyExpMetaMem,3.2.3,Win32,60
,,,,,,,,,,,,,,,,,,,,4,3.087999821,3,1.122999907,1,0,1200,1067,1,1199,wicked,11119,2019-10-21_17h25.35.408,SurveyExpMetaMem,3.2.3,Win32,60
,,,,,,,,,,,,,,,,,,,,2,3.53399992,7,1.553999901,1,0,1200,275,1,1199,brilliant,11119,2019-10-21_17h25.35.408,SurveyExpMetaMem,3.2.3,Win32,60
,,,,,,,,,,,,,,,,,,,,4,1.59800005,7,2.75399971,1,0,1200,576,1,1199,policy,11119,2019-10-21_17h25.35.408,SurveyExpMetaMem,3.2.3,Win32,60
,,,,,,,,,,,,,,,,,,,,5,4.672999859,7,1.089999914,1,0,1200,835,1,1199,helpful,11119,2019-10-21_17h25.35.408,SurveyExpMetaMem,3.2.3,Win32,60
,,,,,,,,,,,,,,,,,,,,3,2.151000023,4,1.760999918,1,0,1200,492,1,1199,naive,11119,2019-10-21_17h25.35.408,SurveyExpMetaMem,3.2.3,Win32,60
,,,,,,,,,,,,,,,,,,,,7,1.67599988,7,1.074999809,1,0,1200,938,1,1199,seasick,11119,2019-10-21_17h25.35.408,SurveyExpMetaMem,3.2.3,Win32,60
,,,,,,,,,,,,,,,,,,,,8,6.535999775,7,1.471999884,1,0,1200,32,1,1199,festival,11119,2019-10-21_17h25.35.408,SurveyExpMetaMem,3.2.3,Win32,60
,,,,,,,,,,,,,,,,,,,,8,8.723999977,1,1.414999962,1,0,1200,981,1,1199,rage,11119,2019-10-21_17h25.35.408,SurveyExpMetaMem,3.2.3,Win32,60
,,,,,,,,,,,,,,,,,,,,4,4.19299984,2,1.173000097,1,0,1200,864,1,1199,blanket,11119,2019-10-21_17h25.35.408,SurveyExpMetaMem,3.2.3,Win32,60
,,,,,,,,,,,,,,,,,,,,6,4.587999821,7,1.470000029,1,0,1200,1180,1,1199,heat,11119,2019-10-21_17h25.35.408,SurveyExpMetaMem,3.2.3,Win32,60
,,,,,,,,,,,,,,,,,,,,9,2.585000038,9,1.470999956,1,0,1200,20,1,1199,climax,11119,2019-10-21_17h25.35.408,SurveyExpMetaMem,3.2.3,Win32,60
,,,,,,,,,,,,,,,,,,,,4,3.470999956,6,1.520999908,1,0,1200,766,1,1199,flag,11119,2019-10-21_17h25.35.408,SurveyExpMetaMem,3.2.3,Win32,60
,,,,,,,,,,,,,,,,,,,,5,1.274999857,7,1.277999878,1,0,1200,753,1,1199,patience,11119,2019-10-21_17h25.35.408,SurveyExpMetaMem,3.2.3,Win32,60
,,,,,,,,,,,,,,,,,,,,7,2.101999998,2,1.325999975,1,0,1200,988,1,1199,deserter,11119,2019-10-21_17h25.35.408,SurveyExpMetaMem,3.2.3,Win32,60
,,,,,,,,,,,,,,,,,,,,5,1.303999901,5,0.355999947,1,0,1200,436,1,1199,mediocre,11119,2019-10-21_17h25.35.408,SurveyExpMetaMem,3.2.3,Win32,60
,,,,,,,,,,,,,,,,,,,,7,2.885999918,2,1.979999781,1,0,1200,956,1,1199,crushed,11119,2019-10-21_17h25.35.408,SurveyExpMetaMem,3.2.3,Win32,60
,,,,,,,,,,,,,,,,,,,,6,2.073999882,3,1.638999939,1,0,1200,880,1,1199,security,11119,2019-10-21_17h25.35.408,SurveyExpMetaMem,3.2.3,Win32,60
,,,,,,,,,,,,,,,,,,,,7,2.927999973,1,2.592000008,1,0,1200,583,1,1199,obey,11119,2019-10-21_17h25.35.408,SurveyExpMetaMem,3.2.3,Win32,60
,,,,,,,,,,,,,,,,,,,,6,8.23699975,8,1.82799983,1,0,1200,123,1,1199,favorite,11119,2019-10-21_17h25.35.408,SurveyExpMetaMem,3.2.3,Win32,60
,,,,,,,,,,,,,,,,,,,,5,1.303999901,7,1.022000074,1,0,1200,517,1,1199,habit,11119,2019-10-21_17h25.35.408,SurveyExpMetaMem,3.2.3,Win32,60
,,,,,,,,,,,,,,,,,,,,2,2.088999987,6,1.157999992,1,0,1200,377,1,1199,complain,11119,2019-10-21_17h25.35.408,SurveyExpMetaMem,3.2.3,Win32,60
,,,,,,,,,,,,,,,,,,,,1,1.287999868,4,2.394000053,1,0,1200,842,1,1199,breathe,11119,2019-10-21_17h25.35.408,SurveyExpMetaMem,3.2.3,Win32,60
,,,,,,,,,,,,,,,,,,,,1,1.635999918,6,1.822999954,1,0,1200,192,1,1199,pleased,11119,2019-10-21_17h25.35.408,SurveyExpMetaMem,3.2.3,Win32,60
,,,,,,,,,,,,,,,,,,,,3,1.917999983,2,1.845999956,1,0,1200,325,1,1199,disability,11119,2019-10-21_17h25.35.408,SurveyExpMetaMem,3.2.3,Win32,60
,,,,,,,,,,,,,,,,,,,,2,11.8210001,7,1.862999916,1,0,1200,799,1,1199,precise,11119,2019-10-21_17h25.35.408,SurveyExpMetaMem,3.2.3,Win32,60
,,,,,,,,,,,,,,,,,,,,2,1.836999893,3,1.289000034,1,0,1200,385,1,1199,tiresome,11119,2019-10-21_17h25.35.408,SurveyExpMetaMem,3.2.3,Win32,60
,,,,,,,,,,,,,,,,,,,,1,2.458999872,7,1.088999987,1,0,1200,841,1,1199,bathtub,11119,2019-10-21_17h25.35.408,SurveyExpMetaMem,3.2.3,Win32,60
,,,,,,,,,,,,,,,,,,,,7,2.903000116,8,1.188999891,1,0,1200,105,1,1199,curious,11119,2019-10-21_17h25.35.408,SurveyExpMetaMem,3.2.3,Win32,60
,,,,,,,,,,,,,,,,,,,,8,3.727999926,1,0.953000069,1,0,1200,907,1,1199,terrorist,11119,2019-10-21_17h25.35.408,SurveyExpMetaMem,3.2.3,Win32,60
,,,,,,,,,,,,,,,,,,,,2,12.45799994,7,1.157999992,1,0,1200,811,1,1199,tenderness,11119,2019-10-21_17h25.35.408,SurveyExpMetaMem,3.2.3,Win32,60
,,,,,,,,,,,,,,,,,,,,5,1.955999851,5,0.263999939,1,0,1200,771,1,1199,practical,11119,2019-10-21_17h25.35.408,SurveyExpMetaMem,3.2.3,Win32,60
,,,,,,,,,,,,,,,,,,,,7,5.384000063,2,1.220999956,1,0,1200,508,1,1199,haphazard,11119,2019-10-21_17h25.35.408,SurveyExpMetaMem,3.2.3,Win32,60
,,,,,,,,,,,,,,,,,,,,3,4.494999886,2,0.939999819,1,0,1200,597,1,1199,drool,11119,2019-10-21_17h25.35.408,SurveyExpMetaMem,3.2.3,Win32,60
,,,,,,,,,,,,,,,,,,,,1,1.210999966,2,1.789000034,1,0,1200,359,1,1199,bored,11119,2019-10-21_17h25.35.408,SurveyExpMetaMem,3.2.3,Win32,60
,,,,,,,,,,,,,,,,,,,,7,4.38499999,8,3.088999987,1,0,1200,272,1,1199,confidence,11119,2019-10-21_17h25.35.408,SurveyExpMetaMem,3.2.3,Win32,60
,,,,,,,,,,,,,,,,,,,,7,2.887000084,1,3.948999882,1,0,1200,1023,1,1199,disorder,11119,2019-10-21_17h25.35.408,SurveyExpMetaMem,3.2.3,Win32,60
,,,,,,,,,,,,,,,,,,,,2,4.562000036,3,1.323999882,1,0,1200,443,1,1199,incorrect,11119,2019-10-21_17h25.35.408,SurveyExpMetaMem,3.2.3,Win32,60
,,,,,,,,,,,,,,,,,,,,1,1.691999912,7,1.506999969,1,0,1200,174,1,1199,snow,11119,2019-10-21_17h25.35.408,SurveyExpMetaMem,3.2.3,Win32,60
,,,,,,,,,,,,,,,,,,,,4,1.967999935,2,3.322999954,1,0,1200,1086,1,1199,irritate,11119,2019-10-21_17h25.35.408,SurveyExpMetaMem,3.2.3,Win32,60
,,,,,,,,,,,,,,,,,,,,1,1.572999716,7,2.773000002,1,0,1200,284,1,1199,delight,11119,2019-10-21_17h25.35.408,SurveyExpMetaMem,3.2.3,Win32,60
,,,,,,,,,,,,,,,,,,,,1,1.704999924,9,0.924000025,1,0,1200,229,1,1199,heaven,11119,2019-10-21_17h25.35.408,SurveyExpMetaMem,3.2.3,Win32,60
,,,,,,,,,,,,,,,,,,,,2,3.663999796,3,0.836999893,1,0,1200,581,1,1199,dork,11119,2019-10-21_17h25.35.408,SurveyExpMetaMem,3.2.3,Win32,60
,,,,,,,,,,,,,,,,,,,,5,2.734999895,5,0.315999985,1,0,1200,622,1,1199,revere,11119,2019-10-21_17h25.35.408,SurveyExpMetaMem,3.2.3,Win32,60
,,,,,,,,,,,,,,,,,,,,2,2.484999895,4,1.039999962,1,0,1200,1072,1,1199,bothered,11119,2019-10-21_17h25.35.408,SurveyExpMetaMem,3.2.3,Win32,60
,,,,,,,,,,,,,,,,,,,,8,3.220999956,7,2.305999994,1,0,1200,52,1,1199,dare,11119,2019-10-21_17h25.35.408,SurveyExpMetaMem,3.2.3,Win32,60
,,,,,,,,,,,,,,,,,,,,4,2.355999947,2,2.26699996,1,0,1200,488,1,1199,rusty,11119,2019-10-21_17h25.35.408,SurveyExpMetaMem,3.2.3,Win32,60
,,,,,,,,,,,,,,,,,,,,1,1.119999886,7,1.828000069,1,0,1200,821,1,1199,cottage,11119,2019-10-21_17h25.35.408,SurveyExpMetaMem,3.2.3,Win32,60
,,,,,,,,,,,,,,,,,,,,8,3.816999912,3,1.121999741,1,0,1200,1147,1,1199,demand,11119,2019-10-21_17h25.35.408,SurveyExpMetaMem,3.2.3,Win32,60
,,,,,,,,,,,,,,,,,,,,7,1.569999933,8,1.193000078,1,0,1200,154,1,1199,race,11119,2019-10-21_17h25.35.408,SurveyExpMetaMem,3.2.3,Win32,60
,,,,,,,,,,,,,,,,,,,,9,1.434999943,7,2.003999949,1,0,1200,115,1,1199,sexual,11119,2019-10-21_17h25.35.408,SurveyExpMetaMem,3.2.3,Win32,60
,,,,,,,,,,,,,,,,,,,,8,2.936999798,2,1.203999996,1,0,1200,905,1,1199,suffocate,11119,2019-10-21_17h25.35.408,SurveyExpMetaMem,3.2.3,Win32,60
,,,,,,,,,,,,,,,,,,,,7,3.006999969,8,1.171000004,1,0,1200,180,1,1199,embrace,11119,2019-10-21_17h25.35.408,SurveyExpMetaMem,3.2.3,Win32,60
,,,,,,,,,,,,,,,,,,,,2,2.542999983,7,1.922999859,1,0,1200,161,1,1199,limousine,11119,2019-10-21_17h25.35.408,SurveyExpMetaMem,3.2.3,Win32,60
,,,,,,,,,,,,,,,,,,,,8,3.092000008,8,1.570999861,1,0,1200,258,1,1199,children,11119,2019-10-21_17h25.35.408,SurveyExpMetaMem,3.2.3,Win32,60
,,,,,,,,,,,,,,,,,,,,3,1.70299983,7,1.539999962,1,0,1200,210,1,1199,elephant,11119,2019-10-21_17h25.35.408,SurveyExpMetaMem,3.2.3,Win32,60
,,,,,,,,,,,,,,,,,,,,2,1.669999838,8,1.45600009,1,0,1200,30,1,1199,impressed,11119,2019-10-21_17h25.35.408,SurveyExpMetaMem,3.2.3,Win32,60
,,,,,,,,,,,,,,,,,,,,9,2.38499999,2,2.424999952,1,0,1200,1139,1,1199,scare,11119,2019-10-21_17h25.35.408,SurveyExpMetaMem,3.2.3,Win32,60
,,,,,,,,,,,,,,,,,,,,3,2.17599988,8,1.029999733,1,0,1200,666,1,1199,verify,11119,2019-10-21_17h25.35.408,SurveyExpMetaMem,3.2.3,Win32,60
,,,,,,,,,,,,,,,,,,,,7,3.571999788,3,1.263000011,1,0,1200,1024,1,1199,burn,11119,2019-10-21_17h25.35.408,SurveyExpMetaMem,3.2.3,Win32,60
,,,,,,,,,,,,,,,,,,,,7,10.24599981,2,1.096999884,1,0,1200,934,1,1199,sob,11119,2019-10-21_17h25.35.408,SurveyExpMetaMem,3.2.3,Win32,60
,,,,,,,,,,,,,,,,,,,,5,1.532999992,8,1.311999798,1,0,1200,657,1,1199,peanut,11119,2019-10-21_17h25.35.408,SurveyExpMetaMem,3.2.3,Win32,60
,,,,,,,,,,,,,,,,,,,,7,4.25999999,9,1.130999804,1,0,1200,96,1,1199,joke,11119,2019-10-21_17h25.35.408,SurveyExpMetaMem,3.2.3,Win32,60
,,,,,,,,,,,,,,,,,,,,3,1.287999868,8,0.955999851,1,0,1200,891,1,1199,kind,11119,2019-10-21_17h25.35.408,SurveyExpMetaMem,3.2.3,Win32,60
,,,,,,,,,,,,,,,,,,,,5,3.174999952,7,0.835999966,1,0,1200,820,1,1199,oxygen,11119,2019-10-21_17h25.35.408,SurveyExpMetaMem,3.2.3,Win32,60
,,,,,,,,,,,,,,,,,,,,7,5.948999882,2,1.058000088,1,0,1200,986,1,1199,mad,11119,2019-10-21_17h25.35.408,SurveyExpMetaMem,3.2.3,Win32,60
,,,,,,,,,,,,,,,,,,,,1,1.443000078,7,2.069999933,1,0,1200,897,1,1199,peaceful,11119,2019-10-21_17h25.35.408,SurveyExpMetaMem,3.2.3,Win32,60
,,,,,,,,,,,,,,,,,,,,2,2.21999979,7,1.187999964,1,0,1200,735,1,1199,tea,11119,2019-10-21_17h25.35.408,SurveyExpMetaMem,3.2.3,Win32,60
,,,,,,,,,,,,,,,,,,,,4,3.70299983,2,1.246999979,1,0,1200,1109,1,1199,germ,11119,2019-10-21_17h25.35.408,SurveyExpMetaMem,3.2.3,Win32,60
,,,,,,,,,,,,,,,,,,,,3,3.038999796,3,1.672999859,1,0,1200,339,1,1199,chore,11119,2019-10-21_17h25.35.408,SurveyExpMetaMem,3.2.3,Win32,60
,,,,,,,,,,,,,,,,,,,,2,1.840999842,2,2.256999969,1,0,1200,516,1,1199,smug,11119,2019-10-21_17h25.35.408,SurveyExpMetaMem,3.2.3,Win32,60
,,,,,,,,,,,,,,,,,,,,7,1.854000092,1,1.94299984,1,0,1200,994,1,1199,repulsed,11119,2019-10-21_17h25.35.408,SurveyExpMetaMem,3.2.3,Win32,60
,,,,,,,,,,,,,,,,,,,,3,4.095999718,4,2.007999897,1,0,1200,1140,1,1199,blood,11119,2019-10-21_17h25.35.408,SurveyExpMetaMem,3.2.3,Win32,60
,,,,,,,,,,,,,,,,,,,,2,4.784999847,8,1.47300005,1,0,1200,87,1,1199,cookie,11119,2019-10-21_17h25.35.408,SurveyExpMetaMem,3.2.3,Win32,60
,,,,,,,,,,,,,,,,,,,,9,1.805999756,6,2.005999804,1,0,1200,255,1,1199,ass,11119,2019-10-21_17h25.35.408,SurveyExpMetaMem,3.2.3,Win32,60
,,,,,,,,,,,,,,,,,,,,6,11.58799982,3,5.340000153,1,0,1200,736,1,1199,hawk,11119,2019-10-21_17h25.35.408,SurveyExpMetaMem,3.2.3,Win32,60
,,,,,,,,,,,,,,,,,,,,2,1.370000124,3,1.338999987,1,0,1200,1119,1,1199,confusion,11119,2019-10-21_17h25.35.408,SurveyExpMetaMem,3.2.3,Win32,60
,,,,,,,,,,,,,,,,,,,,3,2.256999969,2,4.788000107,1,0,1200,335,1,1199,decay,11119,2019-10-21_17h25.35.408,SurveyExpMetaMem,3.2.3,Win32,60
,,,,,,,,,,,,,,,,,,,,6,1.938999891,1,1.720999718,1,0,1200,928,1,1199,cruel,11119,2019-10-21_17h25.35.408,SurveyExpMetaMem,3.2.3,Win32,60
,,,,,,,,,,,,,,,,,,,,6,4.178999901,6,1.773000002,1,0,1200,555,1,1199,school,11119,2019-10-21_17h25.35.408,SurveyExpMetaMem,3.2.3,Win32,60
,,,,,,,,,,,,,,,,,,,,2,1.988999844,4,3.09499979,1,0,1200,273,1,1199,worthwhile,11119,2019-10-21_17h25.35.408,SurveyExpMetaMem,3.2.3,Win32,60
,,,,,,,,,,,,,,,,,,,,8,2.816999912,2,1.771999836,1,0,1200,900,1,1199,suicide,11119,2019-10-21_17h25.35.408,SurveyExpMetaMem,3.2.3,Win32,60
,,,,,,,,,,,,,,,,,,,,5,1.538999796,5,0.441999912,1,0,1200,560,1,1199,spurn,11119,2019-10-21_17h25.35.408,SurveyExpMetaMem,3.2.3,Win32,60
,,,,,,,,,,,,,,,,,,,,7,1.805999994,2,1.163999796,1,0,1200,1115,1,1199,invade,11119,2019-10-21_17h25.35.408,SurveyExpMetaMem,3.2.3,Win32,60
,,,,,,,,,,,,,,,,,,,,1,2.05099988,7,1.109999895,1,0,1200,228,1,1199,suite,11119,2019-10-21_17h25.35.408,SurveyExpMetaMem,3.2.3,Win32,60
,,,,,,,,,,,,,,,,,,,,8,3.955999851,1,1.039999962,1,0,1200,504,1,1199,cane,11119,2019-10-21_17h25.35.408,SurveyExpMetaMem,3.2.3,Win32,60
,,,,,,,,,,,,,,,,,,,,5,1.91899991,7,1.574999809,1,0,1200,607,1,1199,greyhound,11119,2019-10-21_17h25.35.408,SurveyExpMetaMem,3.2.3,Win32,60
,,,,,,,,,,,,,,,,,,,,2,1.385999918,7,0.941999912,1,0,1200,48,1,1199,excellence,11119,2019-10-21_17h25.35.408,SurveyExpMetaMem,3.2.3,Win32,60
,,,,,,,,,,,,,,,,,,,,8,2.152999878,2,1.198999882,1,0,1200,383,1,1199,messy,11119,2019-10-21_17h25.35.408,SurveyExpMetaMem,3.2.3,Win32,60
,,,,,,,,,,,,,,,,,,,,3,2.268999815,4,1.342999935,1,0,1200,506,1,1199,lower,11119,2019-10-21_17h25.35.408,SurveyExpMetaMem,3.2.3,Win32,60
,,,,,,,,,,,,,,,,,,,,1,2.923000097,7,2.454999924,1,0,1200,600,1,1199,parlor,11119,2019-10-21_17h25.35.408,SurveyExpMetaMem,3.2.3,Win32,60
,,,,,,,,,,,,,,,,,,,,8,2.434999943,3,1.007999897,1,0,1200,1120,1,1199,gun,11119,2019-10-21_17h25.35.408,SurveyExpMetaMem,3.2.3,Win32,60
,,,,,,,,,,,,,,,,,,,,2,1.736000061,3,1.223999977,1,0,1200,1030,1,1199,offend,11119,2019-10-21_17h25.35.408,SurveyExpMetaMem,3.2.3,Win32,60
,,,,,,,,,,,,,,,,,,,,5,2.019000053,5,0.323999882,1,0,1200,562,1,1199,average,11119,2019-10-21_17h25.35.408,SurveyExpMetaMem,3.2.3,Win32,60
,,,,,,,,,,,,,,,,,,,,2,3.46600008,6,4.003999949,1,0,1200,106,1,1199,voyage,11119,2019-10-21_17h25.35.408,SurveyExpMetaMem,3.2.3,Win32,60
,,,,,,,,,,,,,,,,,,,,5,1.94299984,5,0.322000027,1,0,1200,407,1,1199,handicap,11119,2019-10-21_17h25.35.408,SurveyExpMetaMem,3.2.3,Win32,60
,,,,,,,,,,,,,,,,,,,,5,1.207999945,5,0.286999941,1,0,1200,513,1,1199,bland,11119,2019-10-21_17h25.35.408,SurveyExpMetaMem,3.2.3,Win32,60
,,,,,,,,,,,,,,,,,,,,2,2.986999989,4,1.760999918,1,0,1200,651,1,1199,bathroom,11119,2019-10-21_17h25.35.408,SurveyExpMetaMem,3.2.3,Win32,60
,,,,,,,,,,,,,,,,,,,,7,2.279999971,7,2.019000053,1,0,1200,620,1,1199,spray,11119,2019-10-21_17h25.35.408,SurveyExpMetaMem,3.2.3,Win32,60
,,,,,,,,,,,,,,,,,,,,7,5.80099988,7,1.183999777,1,0,1200,234,1,1199,redeem,11119,2019-10-21_17h25.35.408,SurveyExpMetaMem,3.2.3,Win32,60
,,,,,,,,,,,,,,,,,,,,9,1.929999828,7,2.256999969,1,0,1200,167,1,1199,casino,11119,2019-10-21_17h25.35.408,SurveyExpMetaMem,3.2.3,Win32,60
,,,,,,,,,,,,,,,,,,,,5,1.66899991,5,0.337999821,1,0,1200,563,1,1199,stupor,11119,2019-10-21_17h25.35.408,SurveyExpMetaMem,3.2.3,Win32,60
,,,,,,,,,,,,,,,,,,,,2,2.036999941,2,0.950000048,1,0,1200,323,1,1199,ungrateful,11119,2019-10-21_17h25.35.408,SurveyExpMetaMem,3.2.3,Win32,60
,,,,,,,,,,,,,,,,,,,,1,1.361999989,7,1.052999735,1,0,1200,845,1,1199,honey,11119,2019-10-21_17h25.35.408,SurveyExpMetaMem,3.2.3,Win32,60
,,,,,,,,,,,,,,,,,,,,8,1.546000004,8,1.238999844,1,0,1200,132,1,1199,silly,11119,2019-10-21_17h25.35.408,SurveyExpMetaMem,3.2.3,Win32,60
,,,,,,,,,,,,,,,,,,,,4,2.16899991,6,1.059999943,1,0,1200,690,1,1199,similar,11119,2019-10-21_17h25.35.408,SurveyExpMetaMem,3.2.3,Win32,60
,,,,,,,,,,,,,,,,,,,,1,2.405999899,1,0.805000067,1,0,1200,515,1,1199,blues,11119,2019-10-21_17h25.35.408,SurveyExpMetaMem,3.2.3,Win32,60
,,,,,,,,,,,,,,,,,,,,7,3.039999723,3,1.119999886,1,0,1200,446,1,1199,greedy,11119,2019-10-21_17h25.35.408,SurveyExpMetaMem,3.2.3,Win32,60
,,,,,,,,,,,,,,,,,,,,2,1.822999954,2,1.722999811,1,0,1200,373,1,1199,ignorance,11119,2019-10-21_17h25.35.408,SurveyExpMetaMem,3.2.3,Win32,60
,,,,,,,,,,,,,,,,,,,,2,4.434999943,7,3.440999985,1,0,1200,855,1,1199,girl,11119,2019-10-21_17h25.35.408,SurveyExpMetaMem,3.2.3,Win32,60
,,,,,,,,,,,,,,,,,,,,7,8.249999762,8,1.97699976,1,0,1200,288,1,1199,tasty,11119,2019-10-21_17h25.35.408,SurveyExpMetaMem,3.2.3,Win32,60
,,,,,,,,,,,,,,,,,,,,8,1.752999783,2,1.143999815,1,0,1200,1065,1,1199,slap,11119,2019-10-21_17h25.35.408,SurveyExpMetaMem,3.2.3,Win32,60
,,,,,,,,,,,,,,,,,,,,3,1.338999987,2,1.646999836,1,0,1200,1126,1,1199,offensive,11119,2019-10-21_17h25.35.408,SurveyExpMetaMem,3.2.3,Win32,60
,,,,,,,,,,,,,,,,,,,,5,1.491999865,5,0.475999832,1,0,1200,658,1,1199,method,11119,2019-10-21_17h25.35.408,SurveyExpMetaMem,3.2.3,Win32,60
,,,,,,,,,,,,,,,,,,,,4,3.564999819,3,1.464999914,1,0,1200,1010,1,1199,arson,11119,2019-10-21_17h25.35.408,SurveyExpMetaMem,3.2.3,Win32,60
,,,,,,,,,,,,,,,,,,,,7,2.020999908,2,1.371000051,1,0,1200,1092,1,1199,rattlesnake,11119,2019-10-21_17h25.35.408,SurveyExpMetaMem,3.2.3,Win32,60
,,,,,,,,,,,,,,,,,,,,4,2.088000059,6,0.978999853,1,0,1200,647,1,1199,accord,11119,2019-10-21_17h25.35.408,SurveyExpMetaMem,3.2.3,Win32,60
,,,,,,,,,,,,,,,,,,,,8,1.555999756,2,7.875999928,1,0,1200,909,1,1199,terrified,11119,2019-10-21_17h25.35.408,SurveyExpMetaMem,3.2.3,Win32,60
,,,,,,,,,,,,,,,,,,,,7,2.104999781,7,1.11500001,1,0,1200,754,1,1199,reflection,11119,2019-10-21_17h25.35.408,SurveyExpMetaMem,3.2.3,Win32,60
,,,,,,,,,,,,,,,,,,,,2,1.54399991,8,4.270999908,1,0,1200,896,1,1199,cuddle,11119,2019-10-21_17h25.35.408,SurveyExpMetaMem,3.2.3,Win32,60
,,,,,,,,,,,,,,,,,,,,5,2.350000143,5,0.691999912,1,0,1200,661,1,1199,cow,11119,2019-10-21_17h25.35.408,SurveyExpMetaMem,3.2.3,Win32,60
,,,,,,,,,,,,,,,,,,,,8,1.722999811,2,1.779999971,1,0,1200,1036,1,1199,anxiety,11119,2019-10-21_17h25.35.408,SurveyExpMetaMem,3.2.3,Win32,60
,,,,,,,,,,,,,,,,,,,,8,1.674999952,9,1.221999884,1,0,1200,99,1,1199,funny,11119,2019-10-21_17h25.35.408,SurveyExpMetaMem,3.2.3,Win32,60
,,,,,,,,,,,,,,,,,,,,1,2.451999903,7,1.065999985,1,0,1200,643,1,1199,library,11119,2019-10-21_17h25.35.408,SurveyExpMetaMem,3.2.3,Win32,60
,,,,,,,,,,,,,,,,,,,,8,1.855999947,1,2.473999977,1,0,1200,55,1,1199,rare,11119,2019-10-21_17h25.35.408,SurveyExpMetaMem,3.2.3,Win32,60
,,,,,,,,,,,,,,,,,,,,6,3.770999908,3,43.69700003,1,0,1200,1066,1,1199,annoy,11119,2019-10-21_17h25.35.408,SurveyExpMetaMem,3.2.3,Win32,60
,,,,,,,,,,,,,,,,,,,,2,76.40899992,1,1.61500001,1,0,1200,304,1,1199,depression,11119,2019-10-21_17h25.35.408,SurveyExpMetaMem,3.2.3,Win32,60
,,,,,,,,,,,,,,,,,,,,7,8.860999823,8,4.852999926,1,0,1200,17,1,1199,outgoing,11119,2019-10-21_17h25.35.408,SurveyExpMetaMem,3.2.3,Win32,60
,,,,,,,,,,,,,,,,,,,,2,57.33200002,3,25.7889998,1,0,1200,369,1,1199,blind,11119,2019-10-21_17h25.35.408,SurveyExpMetaMem,3.2.3,Win32,60
,,,,,,,,,,,,,,,,,,,,7,1.919000149,8,1.253000021,1,0,1200,163,1,1199,gem,11119,2019-10-21_17h25.35.408,SurveyExpMetaMem,3.2.3,Win32,60
,,,,,,,,,,,,,,,,,,,,2,4.346999884,6,1.203999996,1,0,1200,809,1,1199,boy,11119,2019-10-21_17h25.35.408,SurveyExpMetaMem,3.2.3,Win32,60
,,,,,,,,,,,,,,,,,,,,7,15.86499977,3,1.75999999,1,0,1200,1038,1,1199,pervert,11119,2019-10-21_17h25.35.408,SurveyExpMetaMem,3.2.3,Win32,60
,,,,,,,,,,,,,,,,,,,,7,2.878000021,1,1.400000095,1,0,1200,920,1,1199,hurt,11119,2019-10-21_17h25.35.408,SurveyExpMetaMem,3.2.3,Win32,60
,,,,,,,,,,,,,,,,,,,,2,2.085999727,7,1.064999819,1,0,1200,130,1,1199,great,11119,2019-10-21_17h25.35.408,SurveyExpMetaMem,3.2.3,Win32,60
,,,,,,,,,,,,,,,,,,,,2,153.2189999,3,0.973999739,1,0,1200,587,1,1199,dissolve,11119,2019-10-21_17h25.35.408,SurveyExpMetaMem,3.2.3,Win32,60
,,,,,,,,,,,,,,,,,,,,7,1.421999931,7,1.059000015,1,0,1200,157,1,1199,reveal,11119,2019-10-21_17h25.35.408,SurveyExpMetaMem,3.2.3,Win32,60
,,,,,,,,,,,,,,,,,,,,5,1.870999813,5,0.306999922,1,0,1200,393,1,1199,droop,11119,2019-10-21_17h25.35.408,SurveyExpMetaMem,3.2.3,Win32,60
,,,,,,,,,,,,,,,,,,,,2,2.24000001,7,1.021000147,1,0,1200,129,1,1199,fly,11119,2019-10-21_17h25.35.408,SurveyExpMetaMem,3.2.3,Win32,60
,,,,,,,,,,,,,,,,,,,,2,2.240999937,7,0.854000092,1,0,1200,83,1,1199,appreciative,11119,2019-10-21_17h25.35.408,SurveyExpMetaMem,3.2.3,Win32,60
,,,,,,,,,,,,,,,,,,,,1,1.336999893,7,2.148000002,1,0,1200,189,1,1199,thoughtful,11119,2019-10-21_17h25.35.408,SurveyExpMetaMem,3.2.3,Win32,60
,,,,,,,,,,,,,,,,,,,,3,2.63499999,9,1.250999928,1,0,1200,85,1,1199,like,11119,2019-10-21_17h25.35.408,SurveyExpMetaMem,3.2.3,Win32,60
,,,,,,,,,,,,,,,,,,,,7,2.319999933,2,1.654999971,1,0,1200,1081,1,1199,damage,11119,2019-10-21_17h25.35.408,SurveyExpMetaMem,3.2.3,Win32,60
,,,,,,,,,,,,,,,,,,,,2,2.885999918,3,1.472999811,1,0,1200,1029,1,1199,abduction,11119,2019-10-21_17h25.35.408,SurveyExpMetaMem,3.2.3,Win32,60
,,,,,,,,,,,,,,,,,,,,7,2.103999853,6,1.855999947,1,0,1200,1099,1,1199,fire,11119,2019-10-21_17h25.35.408,SurveyExpMetaMem,3.2.3,Win32,60
,,,,,,,,,,,,,,,,,,,,8,1.49000001,6,1.907000065,1,0,1200,60,1,1199,bikini,11119,2019-10-21_17h25.35.408,SurveyExpMetaMem,3.2.3,Win32,60
,,,,,,,,,,,,,,,,,,,,7,2.194000006,8,1.309999943,1,0,1200,185,1,1199,flirt,11119,2019-10-21_17h25.35.408,SurveyExpMetaMem,3.2.3,Win32,60
,,,,,,,,,,,,,,,,,,,,7,4.157999992,3,1.863000154,1,0,1200,1174,1,1199,beast,11119,2019-10-21_17h25.35.408,SurveyExpMetaMem,3.2.3,Win32,60
,,,,,,,,,,,,,,,,,,,,2,1.794999838,7,1.027999878,1,0,1200,285,1,1199,gold,11119,2019-10-21_17h25.35.408,SurveyExpMetaMem,3.2.3,Win32,60
,,,,,,,,,,,,,,,,,,,,2,1.386999846,7,2.453999758,1,0,1200,732,1,1199,humble,11119,2019-10-21_17h25.35.408,SurveyExpMetaMem,3.2.3,Win32,60
,,,,,,,,,,,,,,,,,,,,1,1.368999958,7,1.10800004,1,0,1200,12,1,1199,mountain,11119,2019-10-21_17h25.35.408,SurveyExpMetaMem,3.2.3,Win32,60
,,,,,,,,,,,,,,,,,,,,1,1.304999828,7,1.997999907,1,0,1200,659,1,1199,hair,11119,2019-10-21_17h25.35.408,SurveyExpMetaMem,3.2.3,Win32,60
,,,,,,,,,,,,,,,,,,,,8,2.25,4,1.978999853,1,0,1200,1184,1,1199,reckless,11119,2019-10-21_17h25.35.408,SurveyExpMetaMem,3.2.3,Win32,60
,,,,,,,,,,,,,,,,,,,,2,3.754999876,7,0.97300005,1,0,1200,128,1,1199,supper,11119,2019-10-21_17h25.35.408,SurveyExpMetaMem,3.2.3,Win32,60
,,,,,,,,,,,,,,,,,,,,7,2.260999918,2,1.503999949,1,0,1200,1193,1,1199,damn,11119,2019-10-21_17h25.35.408,SurveyExpMetaMem,3.2.3,Win32,60
,,,,,,,,,,,,,,,,,,,,7,3.684000015,8,0.917000055,1,0,1200,143,1,1199,weekend,11119,2019-10-21_17h25.35.408,SurveyExpMetaMem,3.2.3,Win32,60
,,,,,,,,,,,,,,,,,,,,8,4.108999968,3,1.340999842,1,0,1200,482,1,1199,cell,11119,2019-10-21_17h25.35.408,SurveyExpMetaMem,3.2.3,Win32,60
,,,,,,,,,,,,,,,,,,,,9,1.601999998,7,1.657999754,1,0,1200,230,1,1199,eager,11119,2019-10-21_17h25.35.408,SurveyExpMetaMem,3.2.3,Win32,60
,,,,,,,,,,,,,,,,,,,,3,1.972999811,3,2.571000099,1,0,1200,423,1,1199,stain,11119,2019-10-21_17h25.35.408,SurveyExpMetaMem,3.2.3,Win32,60
,,,,,,,,,,,,,,,,,,,,4,2.504999876,7,2.269999981,1,0,1200,309,1,1199,homeless,11119,2019-10-21_17h25.35.408,SurveyExpMetaMem,3.2.3,Win32,60
,,,,,,,,,,,,,,,,,,,,7,10.70299983,8,5.875999928,1,0,1200,1093,1,1199,hive,11119,2019-10-21_17h25.35.408,SurveyExpMetaMem,3.2.3,Win32,60
,,,,,,,,,,,,,,,,,,,,1,4.339999914,7,0.818999767,1,0,1200,756,1,1199,plant,11119,2019-10-21_17h25.35.408,SurveyExpMetaMem,3.2.3,Win32,60
,,,,,,,,,,,,,,,,,,,,2,1.76699996,7,1.236999989,1,0,1200,212,1,1199,belief,11119,2019-10-21_17h25.35.408,SurveyExpMetaMem,3.2.3,Win32,60
,,,,,,,,,,,,,,,,,,,,2,1.937999964,7,3.004999876,1,0,1200,412,1,1199,mucus,11119,2019-10-21_17h25.35.408,SurveyExpMetaMem,3.2.3,Win32,60
,,,,,,,,,,,,,,,,,,,,3,1.50999999,8,6.826999903,1,0,1200,126,1,1199,rich,11119,2019-10-21_17h25.35.408,SurveyExpMetaMem,3.2.3,Win32,60
,,,,,,,,,,,,,,,,,,,,5,1.859999895,3,0.547999859,1,0,1200,942,1,1199,aggravation,11119,2019-10-21_17h25.35.408,SurveyExpMetaMem,3.2.3,Win32,60
,,,,,,,,,,,,,,,,,,,,7,9.119999886,3,1.231999874,1,0,1200,1181,1,1199,blade,11119,2019-10-21_17h25.35.408,SurveyExpMetaMem,3.2.3,Win32,60
,,,,,,,,,,,,,,,,,,,,7,2.253000021,8,0.871000051,1,0,1200,265,1,1199,invent,11119,2019-10-21_17h25.35.408,SurveyExpMetaMem,3.2.3,Win32,60
,,,,,,,,,,,,,,,,,,,,2,1.458999872,1,0.420999765,1,0,1200,316,1,1199,sorrow,11119,2019-10-21_17h25.35.408,SurveyExpMetaMem,3.2.3,Win32,60
,,,,,,,,,,,,,,,,,,,,2,5.525000095,8,1.887999773,1,0,1200,69,1,1199,special,11119,2019-10-21_17h25.35.408,SurveyExpMetaMem,3.2.3,Win32,60
,,,,,,,,,,,,,,,,,,,,2,2.394999981,3,0.842999935,1,0,1200,413,1,1199,deficient,11119,2019-10-21_17h25.35.408,SurveyExpMetaMem,3.2.3,Win32,60
,,,,,,,,,,,,,,,,,,,,1,1.565000057,1,1.423000097,1,0,1200,310,1,1199,lonely,11119,2019-10-21_17h25.35.408,SurveyExpMetaMem,3.2.3,Win32,60
,,,,,,,,,,,,,,,,,,,,1,1.319999933,8,0.691999912,1,0,1200,744,1,1199,village,11119,2019-10-21_17h25.35.408,SurveyExpMetaMem,3.2.3,Win32,60
,,,,,,,,,,,,,,,,,,,,5,2.110999823,2,1.404999971,1,0,1200,336,1,1199,wasteful,11119,2019-10-21_17h25.35.408,SurveyExpMetaMem,3.2.3,Win32,60
,,,,,,,,,,,,,,,,,,,,2,6.47300005,3,0.957000017,1,0,1200,970,1,1199,worry,11119,2019-10-21_17h25.35.408,SurveyExpMetaMem,3.2.3,Win32,60
,,,,,,,,,,,,,,,,,,,,1,4.636999846,7,0.855999947,1,0,1200,892,1,1199,untroubled,11119,2019-10-21_17h25.35.408,SurveyExpMetaMem,3.2.3,Win32,60
,,,,,,,,,,,,,,,,,,,,1,2.930999756,7,0.770999908,1,0,1200,98,1,1199,affection,11119,2019-10-21_17h25.35.408,SurveyExpMetaMem,3.2.3,Win32,60
,,,,,,,,,,,,,,,,,,,,1,2.871999979,6,0.719000101,1,0,1200,615,1,1199,lad,11119,2019-10-21_17h25.35.408,SurveyExpMetaMem,3.2.3,Win32,60
,,,,,,,,,,,,,,,,,,,,1,2.03399992,2,1.279000044,1,0,1200,328,1,1199,disgrace,11119,2019-10-21_17h25.35.408,SurveyExpMetaMem,3.2.3,Win32,60
,,,,,,,,,,,,,,,,,,,,1,1.802999735,9,0.916999817,1,0,1200,173,1,1199,hope,11119,2019-10-21_17h25.35.408,SurveyExpMetaMem,3.2.3,Win32,60
,,,,,,,,,,,,,,,,,,,,1,2.057999849,5,0.504999876,1,0,1200,18,1,1199,mail,11119,2019-10-21_17h25.35.408,SurveyExpMetaMem,3.2.3,Win32,60
,,,,,,,,,,,,,,,,,,,,3,2.273999929,2,3.325000048,1,0,1200,503,1,1199,sludge,11119,2019-10-21_17h25.35.408,SurveyExpMetaMem,3.2.3,Win32,60
,,,,,,,,,,,,,,,,,,,,8,3.269000053,9,1.269999981,1,0,1200,63,1,1199,clothes,11119,2019-10-21_17h25.35.408,SurveyExpMetaMem,3.2.3,Win32,60
,,,,,,,,,,,,,,,,,,,,9,2.354000092,2,4.026000023,1,0,1200,1127,1,1199,spank,11119,2019-10-21_17h25.35.408,SurveyExpMetaMem,3.2.3,Win32,60
,,,,,,,,,,,,,,,,,,,,5,2.268999815,8,5.020999908,1,0,1200,518,1,1199,report,11119,2019-10-21_17h25.35.408,SurveyExpMetaMem,3.2.3,Win32,60
,,,,,,,,,,,,,,,,,,,,2,1.977999926,7,1.727999926,1,0,1200,181,1,1199,fascinate,11119,2019-10-21_17h25.35.408,SurveyExpMetaMem,3.2.3,Win32,60
,,,,,,,,,,,,,,,,,,,,1,2.666999817,7,1.134999752,1,0,1200,673,1,1199,bedspread,11119,2019-10-21_17h25.35.408,SurveyExpMetaMem,3.2.3,Win32,60
,,,,,,,,,,,,,,,,,,,,1,1.611999989,2,2.019999981,1,0,1200,916,1,1199,starvation,11119,2019-10-21_17h25.35.408,SurveyExpMetaMem,3.2.3,Win32,60
,,,,,,,,,,,,,,,,,,,,4,4.568000078,2,1.099999905,1,0,1200,963,1,1199,dreadful,11119,2019-10-21_17h25.35.408,SurveyExpMetaMem,3.2.3,Win32,60
,,,,,,,,,,,,,,,,,,,,3,1.884000063,2,0.861000061,1,0,1200,588,1,1199,bandage,11119,2019-10-21_17h25.35.408,SurveyExpMetaMem,3.2.3,Win32,60
,,,,,,,,,,,,,,,,,,,,3,1.636999846,1,0.964999914,1,0,1200,919,1,1199,loss,11119,2019-10-21_17h25.35.408,SurveyExpMetaMem,3.2.3,Win32,60
,,,,,,,,,,,,,,,,,,,,4,1.789000034,3,0.924999952,1,0,1200,514,1,1199,defer,11119,2019-10-21_17h25.35.408,SurveyExpMetaMem,3.2.3,Win32,60
,,,,,,,,,,,,,,,,,,,,8,1.803999901,3,1.781999826,1,0,1200,494,1,1199,butcher,11119,2019-10-21_17h25.35.408,SurveyExpMetaMem,3.2.3,Win32,60
,,,,,,,,,,,,,,,,,,,,7,1.556999922,3,0.946000099,1,0,1200,1008,1,1199,gang,11119,2019-10-21_17h25.35.408,SurveyExpMetaMem,3.2.3,Win32,60
,,,,,,,,,,,,,,,,,,,,8,1.488999844,4,1.486000061,1,0,1200,1130,1,1199,slut,11119,2019-10-21_17h25.35.408,SurveyExpMetaMem,3.2.3,Win32,60
,,,,,,,,,,,,,,,,,,,,1,1.184999943,3,1.790999889,1,0,1200,416,1,1199,boring,11119,2019-10-21_17h25.35.408,SurveyExpMetaMem,3.2.3,Win32,60
,,,,,,,,,,,,,,,,,,,,4,7.501999855,7,1.305000067,1,0,1200,1195,1,1199,speech,11119,2019-10-21_17h25.35.408,SurveyExpMetaMem,3.2.3,Win32,60
,,,,,,,,,,,,,,,,,,,,1,1.612999916,8,0.912999868,1,0,1200,833,1,1199,nice,11119,2019-10-21_17h25.35.408,SurveyExpMetaMem,3.2.3,Win32,60
,,,,,,,,,,,,,,,,,,,,7,1.66899991,7,1.592999935,1,0,1200,206,1,1199,comet,11119,2019-10-21_17h25.35.408,SurveyExpMetaMem,3.2.3,Win32,60
,,,,,,,,,,,,,,,,,,,,4,1.671999931,3,1.627000093,1,0,1200,550,1,1199,fart,11119,2019-10-21_17h25.35.408,SurveyExpMetaMem,3.2.3,Win32,60
,,,,,,,,,,,,,,,,,,,,3,2.235999823,8,1.305999756,1,0,1200,276,1,1199,pastry,11119,2019-10-21_17h25.35.408,SurveyExpMetaMem,3.2.3,Win32,60
,,,,,,,,,,,,,,,,,,,,2,4.130000114,7,1.108999968,1,0,1200,122,1,1199,prince,11119,2019-10-21_17h25.35.408,SurveyExpMetaMem,3.2.3,Win32,60
,,,,,,,,,,,,,,,,,,,,7,1.902999878,8,1.022000074,1,0,1200,1194,1,1199,obsession,11119,2019-10-21_17h25.35.408,SurveyExpMetaMem,3.2.3,Win32,60
,,,,,,,,,,,,,,,,,,,,7,2.220999956,4,1.421999931,1,0,1200,19,1,1199,firefighter,11119,2019-10-21_17h25.35.408,SurveyExpMetaMem,3.2.3,Win32,60
,,,,,,,,,,,,,,,,,,,,1,1.806999922,1,0.479000092,1,0,1200,1013,1,1199,guilty,11119,2019-10-21_17h25.35.408,SurveyExpMetaMem,3.2.3,Win32,60
,,,,,,,,,,,,,,,,,,,,7,2.519999981,8,0.64199996,1,0,1200,261,1,1199,windsurfers,11119,2019-10-21_17h25.35.408,SurveyExpMetaMem,3.2.3,Win32,60
,,,,,,,,,,,,,,,,,,,,5,1.737999916,2,0.860000134,1,0,1200,388,1,1199,mildew,11119,2019-10-21_17h25.35.408,SurveyExpMetaMem,3.2.3,Win32,60
,,,,,,,,,,,,,,,,,,,,1,2.895999908,7,0.589999914,1,0,1200,847,1,1199,moon,11119,2019-10-21_17h25.35.408,SurveyExpMetaMem,3.2.3,Win32,60
,,,,,,,,,,,,,,,,,,,,3,1.905999899,7,0.704999924,1,0,1200,723,1,1199,cinnamon,11119,2019-10-21_17h25.35.408,SurveyExpMetaMem,3.2.3,Win32,60
,,,,,,,,,,,,,,,,,,,,7,2.741999865,2,0.792000055,1,0,1200,1009,1,1199,frightened,11119,2019-10-21_17h25.35.408,SurveyExpMetaMem,3.2.3,Win32,60
,,,,,,,,,,,,,,,,,,,,2,4.713000059,7,1.273999929,1,0,1200,664,1,1199,quiet,11119,2019-10-21_17h25.35.408,SurveyExpMetaMem,3.2.3,Win32,60
,,,,,,,,,,,,,,,,,,,,7,2.086999893,2,1.363999844,1,0,1200,1087,1,1199,affair,11119,2019-10-21_17h25.35.408,SurveyExpMetaMem,3.2.3,Win32,60
,,,,,,,,,,,,,,,,,,,,1,1.256000042,7,1.647000074,1,0,1200,77,1,1199,adore,11119,2019-10-21_17h25.35.408,SurveyExpMetaMem,3.2.3,Win32,60
,,,,,,,,,,,,,,,,,,,,5,3.703999758,7,2.319999933,1,0,1200,386,1,1199,pale,11119,2019-10-21_17h25.35.408,SurveyExpMetaMem,3.2.3,Win32,60
,,,,,,,,,,,,,,,,,,,,1,2.299999952,8,1.070999861,1,0,1200,838,1,1199,nestle,11119,2019-10-21_17h25.35.408,SurveyExpMetaMem,3.2.3,Win32,60
,,,,,,,,,,,,,,,,,,,,2,1.220000029,3,1.371999979,1,0,1200,457,1,1199,confuse,11119,2019-10-21_17h25.35.408,SurveyExpMetaMem,3.2.3,Win32,60
,,,,,,,,,,,,,,,,,,,,1,5.353999853,3,1.770999908,1,0,1200,311,1,1199,discomfort,11119,2019-10-21_17h25.35.408,SurveyExpMetaMem,3.2.3,Win32,60
,,,,,,,,,,,,,,,,,,,,7,1.203999996,8,1.263999939,1,0,1200,141,1,1199,surprise,11119,2019-10-21_17h25.35.408,SurveyExpMetaMem,3.2.3,Win32,60
,,,,,,,,,,,,,,,,,,,,5,1.302999973,5,0.358999968,1,0,1200,395,1,1199,lack,11119,2019-10-21_17h25.35.408,SurveyExpMetaMem,3.2.3,Win32,60
,,,,,,,,,,,,,,,,,,,,5,1.113999844,5,0.288000107,1,0,1200,798,1,1199,crystal,11119,2019-10-21_17h25.35.408,SurveyExpMetaMem,3.2.3,Win32,60
,,,,,,,,,,,,,,,,,,,,5,1.064999819,5,0.245999813,1,0,1200,740,1,1199,groceries,11119,2019-10-21_17h25.35.408,SurveyExpMetaMem,3.2.3,Win32,60
,,,,,,,,,,,,,,,,,,,,6,2.105999947,6,1.963999987,1,0,1200,491,1,1199,meek,11119,2019-10-21_17h25.35.408,SurveyExpMetaMem,3.2.3,Win32,60
,,,,,,,,,,,,,,,,,,,,8,1.705999851,2,1.037999868,1,0,1200,977,1,1199,choke,11119,2019-10-21_17h25.35.408,SurveyExpMetaMem,3.2.3,Win32,60
,,,,,,,,,,,,,,,,,,,,1,1.611000061,2,1.535999775,1,0,1200,943,1,1199,trauma,11119,2019-10-21_17h25.35.408,SurveyExpMetaMem,3.2.3,Win32,60
,,,,,,,,,,,,,,,,,,,,7,2.96999979,3,1.522000074,1,0,1200,429,1,1199,cough,11119,2019-10-21_17h25.35.408,SurveyExpMetaMem,3.2.3,Win32,60
,,,,,,,,,,,,,,,,,,,,5,1.105999947,5,0.210999966,1,0,1200,663,1,1199,trout,11119,2019-10-21_17h25.35.408,SurveyExpMetaMem,3.2.3,Win32,60
,,,,,,,,,,,,,,,,,,,,6,4.687999725,2,3.042000055,1,0,1200,434,1,1199,frail,11119,2019-10-21_17h25.35.408,SurveyExpMetaMem,3.2.3,Win32,60
,,,,,,,,,,,,,,,,,,,,5,1.217999935,5,0.234999895,1,0,1200,579,1,1199,bus,11119,2019-10-21_17h25.35.408,SurveyExpMetaMem,3.2.3,Win32,60
,,,,,,,,,,,,,,,,,,,,5,5.473999977,5,0.159999847,1,0,1200,617,1,1199,tomato,11119,2019-10-21_17h25.35.408,SurveyExpMetaMem,3.2.3,Win32,60
,,,,,,,,,,,,,,,,,,,,6,2.229000092,4,0.873999834,1,0,1200,445,1,1199,bleak,11119,2019-10-21_17h25.35.408,SurveyExpMetaMem,3.2.3,Win32,60
,,,,,,,,,,,,,,,,,,,,8,2.490999937,8,0.171999931,1,0,1200,730,1,1199,slogan,11119,2019-10-21_17h25.35.408,SurveyExpMetaMem,3.2.3,Win32,60
,,,,,,,,,,,,,,,,,,,,2,2.412999868,2,0.354000092,1,0,1200,837,1,1199,responsible,11119,2019-10-21_17h25.35.408,SurveyExpMetaMem,3.2.3,Win32,60
,,,,,,,,,,,,,,,,,,,,2,8.75999999,7,1.547999859,1,0,1200,653,1,1199,detail,11119,2019-10-21_17h25.35.408,SurveyExpMetaMem,3.2.3,Win32,60
,,,,,,,,,,,,,,,,,,,,7,5.422999859,2,1.368999958,1,0,1200,397,1,1199,complaint,11119,2019-10-21_17h25.35.408,SurveyExpMetaMem,3.2.3,Win32,60
,,,,,,,,,,,,,,,,,,,,7,1.937000036,8,1.287999868,1,0,1200,82,1,1199,stunning,11119,2019-10-21_17h25.35.408,SurveyExpMetaMem,3.2.3,Win32,60
,,,,,,,,,,,,,,,,,,,,8,2.847000122,8,1.321999788,1,0,1200,0,1,1199,dragon,11119,2019-10-21_17h25.35.408,SurveyExpMetaMem,3.2.3,Win32,60
,,,,,,,,,,,,,,,,,,,,1,2.905999899,7,1.197999716,1,0,1200,635,1,1199,sensitive,11119,2019-10-21_17h25.35.408,SurveyExpMetaMem,3.2.3,Win32,60
,,,,,,,,,,,,,,,,,,,,2,3.384999752,3,1.005999804,1,0,1200,1057,1,1199,deceit,11119,2019-10-21_17h25.35.408,SurveyExpMetaMem,3.2.3,Win32,60
,,,,,,,,,,,,,,,,,,,,5,1.510999918,5,0.237999916,1,0,1200,741,1,1199,wheat,11119,2019-10-21_17h25.35.408,SurveyExpMetaMem,3.2.3,Win32,60
,,,,,,,,,,,,,,,,,,,,7,2.218999863,2,0.703999758,1,0,1200,1052,1,1199,angry,11119,2019-10-21_17h25.35.408,SurveyExpMetaMem,3.2.3,Win32,60
,,,,,,,,,,,,,,,,,,,,4,2.585999966,6,1.319000006,1,0,1200,1178,1,1199,weight,11119,2019-10-21_17h25.35.408,SurveyExpMetaMem,3.2.3,Win32,60
,,,,,,,,,,,,,,,,,,,,6,3.035000086,7,0.940000057,1,0,1200,278,1,1199,king,11119,2019-10-21_17h25.35.408,SurveyExpMetaMem,3.2.3,Win32,60
,,,,,,,,,,,,,,,,,,,,5,1.203999996,5,0.243999958,1,0,1200,656,1,1199,number,11119,2019-10-21_17h25.35.408,SurveyExpMetaMem,3.2.3,Win32,60
,,,,,,,,,,,,,,,,,,,,2,3.404000044,2,0.404999971,1,0,1200,7,1,1199,duet,11119,2019-10-21_17h25.35.408,SurveyExpMetaMem,3.2.3,Win32,60
,,,,,,,,,,,,,,,,,,,,7,3.670999765,7,0.960999966,1,0,1200,36,1,1199,puppy,11119,2019-10-21_17h25.35.408,SurveyExpMetaMem,3.2.3,Win32,60
,,,,,,,,,,,,,,,,,,,,7,2.477999926,2,0.703999758,1,0,1200,470,1,1199,cynical,11119,2019-10-21_17h25.35.408,SurveyExpMetaMem,3.2.3,Win32,60
,,,,,,,,,,,,,,,,,,,,2,4.0849998,7,0.822000027,1,0,1200,836,1,1199,lounge,11119,2019-10-21_17h25.35.408,SurveyExpMetaMem,3.2.3,Win32,60
,,,,,,,,,,,,,,,,,,,,5,1.294999838,5,0.237999916,1,0,1200,556,1,1199,allege,11119,2019-10-21_17h25.35.408,SurveyExpMetaMem,3.2.3,Win32,60
,,,,,,,,,,,,,,,,,,,,2,1.438999891,8,1.324999809,1,0,1200,237,1,1199,beautiful,11119,2019-10-21_17h25.35.408,SurveyExpMetaMem,3.2.3,Win32,60
,,,,,,,,,,,,,,,,,,,,5,2.5849998,5,0.204999924,1,0,1200,571,1,1199,marrow,11119,2019-10-21_17h25.35.408,SurveyExpMetaMem,3.2.3,Win32,60
,,,,,,,,,,,,,,,,,,,,7,1.721999884,2,0.9599998,1,0,1200,969,1,1199,whore,11119,2019-10-21_17h25.35.408,SurveyExpMetaMem,3.2.3,Win32,60
,,,,,,,,,,,,,,,,,,,,3,2.176000118,7,0.938999891,1,0,1200,291,1,1199,fantastic,11119,2019-10-21_17h25.35.408,SurveyExpMetaMem,3.2.3,Win32,60
,,,,,,,,,,,,,,,,,,,,5,1.546999931,5,0.221999884,1,0,1200,585,1,1199,tatter,11119,2019-10-21_17h25.35.408,SurveyExpMetaMem,3.2.3,Win32,60
,,,,,,,,,,,,,,,,,,,,3,2.052999973,9,1.193999767,1,0,1200,282,1,1199,luck,11119,2019-10-21_17h25.35.408,SurveyExpMetaMem,3.2.3,Win32,60
,,,,,,,,,,,,,,,,,,,,7,1.877999783,3,1.023999929,1,0,1200,1096,1,1199,flood,11119,2019-10-21_17h25.35.408,SurveyExpMetaMem,3.2.3,Win32,60
,,,,,,,,,,,,,,,,,,,,7,2.268000126,8,1.044999838,1,0,1200,137,1,1199,money,11119,2019-10-21_17h25.35.408,SurveyExpMetaMem,3.2.3,Win32,60
,,,,,,,,,,,,,,,,,,,,6,1.404999733,3,1.915999889,1,0,1200,596,1,1199,factory,11119,2019-10-21_17h25.35.408,SurveyExpMetaMem,3.2.3,Win32,60
,,,,,,,,,,,,,,,,,,,,2,1.409999847,2,0.224999905,1,0,1200,308,1,1199,worthless,11119,2019-10-21_17h25.35.408,SurveyExpMetaMem,3.2.3,Win32,60
,,,,,,,,,,,,,,,,,,,,6,3.654000044,2,1.70600009,1,0,1200,1004,1,1199,burglar,11119,2019-10-21_17h25.35.408,SurveyExpMetaMem,3.2.3,Win32,60
,,,,,,,,,,,,,,,,,,,,3,2.500999928,7,1.261999846,1,0,1200,860,1,1199,silk,11119,2019-10-21_17h25.35.408,SurveyExpMetaMem,3.2.3,Win32,60
,,,,,,,,,,,,,,,,,,,,1,1.542999983,2,1.46600008,1,0,1200,505,1,1199,exhaust,11119,2019-10-21_17h25.35.408,SurveyExpMetaMem,3.2.3,Win32,60
,,,,,,,,,,,,,,,,,,,,7,1.931999922,8,1.029999971,1,0,1200,247,1,1199,graduate,11119,2019-10-21_17h25.35.408,SurveyExpMetaMem,3.2.3,Win32,60
,,,,,,,,,,,,,,,,,,,,5,1.315999985,5,0.167999983,1,0,1200,14,1,1199,attain,11119,2019-10-21_17h25.35.408,SurveyExpMetaMem,3.2.3,Win32,60
,,,,,,,,,,,,,,,,,,,,1,2.955999851,2,1.648000002,1,0,1200,547,1,1199,cellar,11119,2019-10-21_17h25.35.408,SurveyExpMetaMem,3.2.3,Win32,60
,,,,,,,,,,,,,,,,,,,,7,1.551999807,7,0.519999981,1,0,1200,194,1,1199,celebration,11119,2019-10-21_17h25.35.408,SurveyExpMetaMem,3.2.3,Win32,60
,,,,,,,,,,,,,,,,,,,,2,3.39199996,2,0.753000021,1,0,1200,487,1,1199,junk,11119,2019-10-21_17h25.35.408,SurveyExpMetaMem,3.2.3,Win32,60
,,,,,,,,,,,,,,,,,,,,1,1.354999781,1,0.888000011,1,0,1200,302,1,1199,loneliness,11119,2019-10-21_17h25.35.408,SurveyExpMetaMem,3.2.3,Win32,60
,,,,,,,,,,,,,,,,,,,,5,1.319999933,5,0.174999714,1,0,1200,213,1,1199,fair,11119,2019-10-21_17h25.35.408,SurveyExpMetaMem,3.2.3,Win32,60
,,,,,,,,,,,,,,,,,,,,4,2.391999722,2,1.203999996,1,0,1200,953,1,1199,victim,11119,2019-10-21_17h25.35.408,SurveyExpMetaMem,3.2.3,Win32,60
,,,,,,,,,,,,,,,,,,,,5,2.11199975,5,0.186999798,1,0,1200,709,1,1199,ancestor,11119,2019-10-21_17h25.35.408,SurveyExpMetaMem,3.2.3,Win32,60
,,,,,,,,,,,,,,,,,,,,5,1.079999924,5,0.169999838,1,0,1200,649,1,1199,donkey,11119,2019-10-21_17h25.35.408,SurveyExpMetaMem,3.2.3,Win32,60
,,,,,,,,,,,,,,,,,,,,1,2.693999767,2,1.144000053,1,0,1200,957,1,1199,debt,11119,2019-10-21_17h25.35.408,SurveyExpMetaMem,3.2.3,Win32,60
,,,,,,,,,,,,,,,,,,,,5,3.066999912,5,0.130999804,1,0,1200,232,1,1199,prosper,11119,2019-10-21_17h25.35.408,SurveyExpMetaMem,3.2.3,Win32,60
,,,,,,,,,,,,,,,,,,,,7,1.845000029,7,0.140999794,1,0,1200,86,1,1199,talent,11119,2019-10-21_17h25.35.408,SurveyExpMetaMem,3.2.3,Win32,60
,,,,,,,,,,,,,,,,,,,,3,1.75999999,3,0.486999989,1,0,1200,527,1,1199,passive,11119,2019-10-21_17h25.35.408,SurveyExpMetaMem,3.2.3,Win32,60
,,,,,,,,,,,,,,,,,,,,5,1.950999975,5,0.166999817,1,0,1200,684,1,1199,send,11119,2019-10-21_17h25.35.408,SurveyExpMetaMem,3.2.3,Win32,60
,,,,,,,,,,,,,,,,,,,,5,1.789999723,5,0.171000004,1,0,1200,448,1,1199,depart,11119,2019-10-21_17h25.35.408,SurveyExpMetaMem,3.2.3,Win32,60
,,,,,,,,,,,,,,,,,,,,3,3.571999788,1,1.229999781,1,0,1200,967,1,1199,horrible,11119,2019-10-21_17h25.35.408,SurveyExpMetaMem,3.2.3,Win32,60
,,,,,,,,,,,,,,,,,,,,5,1.138999939,5,0.22699976,1,0,1200,682,1,1199,camel,11119,2019-10-21_17h25.35.408,SurveyExpMetaMem,3.2.3,Win32,60
,,,,,,,,,,,,,,,,,,,,7,2.638000011,7,0.161999941,1,0,1200,797,1,1199,hamburger,11119,2019-10-21_17h25.35.408,SurveyExpMetaMem,3.2.3,Win32,60
,,,,,,,,,,,,,,,,,,,,5,1.220999718,5,0.167000055,1,0,1200,718,1,1199,flow,11119,2019-10-21_17h25.35.408,SurveyExpMetaMem,3.2.3,Win32,60
,,,,,,,,,,,,,,,,,,,,7,2.133999825,3,1.240999937,1,0,1200,207,1,1199,erect,11119,2019-10-21_17h25.35.408,SurveyExpMetaMem,3.2.3,Win32,60
,,,,,,,,,,,,,,,,,,,,3,3.838000059,2,0.888999939,1,0,1200,449,1,1199,egotistical,11119,2019-10-21_17h25.35.408,SurveyExpMetaMem,3.2.3,Win32,60
,,,,,,,,,,,,,,,,,,,,5,1.354999781,5,0.18900013,1,0,1200,170,1,1199,entertainment,11119,2019-10-21_17h25.35.408,SurveyExpMetaMem,3.2.3,Win32,60
,,,,,,,,,,,,,,,,,,,,5,1.153999805,5,0.171000004,1,0,1200,473,1,1199,senseless,11119,2019-10-21_17h25.35.408,SurveyExpMetaMem,3.2.3,Win32,60
,,,,,,,,,,,,,,,,,,,,5,0.990999937,5,0.162999868,1,0,1200,595,1,1199,vacuum,11119,2019-10-21_17h25.35.408,SurveyExpMetaMem,3.2.3,Win32,60
,,,,,,,,,,,,,,,,,,,,6,4.155999899,2,0.904000044,1,0,1200,1003,1,1199,jealousy,11119,2019-10-21_17h25.35.408,SurveyExpMetaMem,3.2.3,Win32,60
,,,,,,,,,,,,,,,,,,,,3,6.034999847,4,7.43599987,1,0,1200,501,1,1199,dustpan,11119,2019-10-21_17h25.35.408,SurveyExpMetaMem,3.2.3,Win32,60
,,,,,,,,,,,,,,,,,,,,1,1.48699975,1,0.138000011,1,0,1200,1071,1,1199,uncomfortable,11119,2019-10-21_17h25.35.408,SurveyExpMetaMem,3.2.3,Win32,60
,,,,,,,,,,,,,,,,,,,,8,1.703999996,8,0.137999773,1,0,1200,187,1,1199,excite,11119,2019-10-21_17h25.35.408,SurveyExpMetaMem,3.2.3,Win32,60
,,,,,,,,,,,,,,,,,,,,1,1346.871,2,0.230999947,1,0,1200,314,1,1199,hopeless,11119,2019-10-21_17h25.35.408,SurveyExpMetaMem,3.2.3,Win32,60
,,,,,,,,,,,,,,,,,,,,7,1.601999998,8,1.389999866,1,0,1200,271,1,1199,applaud,11119,2019-10-21_17h25.35.408,SurveyExpMetaMem,3.2.3,Win32,60
,,,,,,,,,,,,,,,,,,,,2,1.139999866,7,1.036999941,1,0,1200,186,1,1199,holiday,11119,2019-10-21_17h25.35.408,SurveyExpMetaMem,3.2.3,Win32,60
,,,,,,,,,,,,,,,,,,,,7,2.197999954,3,0.823999882,1,0,1200,523,1,1199,witch,11119,2019-10-21_17h25.35.408,SurveyExpMetaMem,3.2.3,Win32,60
,,,,,,,,,,,,,,,,,,,,2,0.788999796,8,0.605999947,1,0,1200,899,1,1199,relax,11119,2019-10-21_17h25.35.408,SurveyExpMetaMem,3.2.3,Win32,60
,,,,,,,,,,,,,,,,,,,,3,2.034999847,9,1.023000002,1,0,1200,297,1,1199,pleasure,11119,2019-10-21_17h25.35.408,SurveyExpMetaMem,3.2.3,Win32,60
,,,,,,,,,,,,,,,,,,,,7,1.114999771,3,0.822000027,1,0,1200,950,1,1199,murder,11119,2019-10-21_17h25.35.408,SurveyExpMetaMem,3.2.3,Win32,60
,,,,,,,,,,,,,,,,,,,,8,1.573999882,7,1.513999939,1,0,1200,150,1,1199,vodka,11119,2019-10-21_17h25.35.408,SurveyExpMetaMem,3.2.3,Win32,60
,,,,,,,,,,,,,,,,,,,,3,1.307999849,2,1.836999893,1,0,1200,924,1,1199,terrible,11119,2019-10-21_17h25.35.408,SurveyExpMetaMem,3.2.3,Win32,60
,,,,,,,,,,,,,,,,,,,,2,1.279999971,2,0.757999897,1,0,1200,524,1,1199,sigh,11119,2019-10-21_17h25.35.408,SurveyExpMetaMem,3.2.3,Win32,60
,,,,,,,,,,,,,,,,,,,,9,1.930999994,1,0.909999847,1,0,1200,904,1,1199,murderer,11119,2019-10-21_17h25.35.408,SurveyExpMetaMem,3.2.3,Win32,60
,,,,,,,,,,,,,,,,,,,,7,1.322000027,6,1.359999895,1,0,1200,201,1,1199,gorilla,11119,2019-10-21_17h25.35.408,SurveyExpMetaMem,3.2.3,Win32,60
,,,,,,,,,,,,,,,,,,,,5,1.804999828,5,0.125,1,0,1200,782,1,1199,open,11119,2019-10-21_17h25.35.408,SurveyExpMetaMem,3.2.3,Win32,60
,,,,,,,,,,,,,,,,,,,,2,3.055999994,7,0.713000059,1,0,1200,293,1,1199,succeed,11119,2019-10-21_17h25.35.408,SurveyExpMetaMem,3.2.3,Win32,60
,,,,,,,,,,,,,,,,,,,,8,1.659999847,5,1.176999807,1,0,1200,1150,1,1199,forceful,11119,2019-10-21_17h25.35.408,SurveyExpMetaMem,3.2.3,Win32,60
,,,,,,,,,,,,,,,,,,,,5,2.02699995,5,0.13499999,1,0,1200,526,1,1199,dry,11119,2019-10-21_17h25.35.408,SurveyExpMetaMem,3.2.3,Win32,60
,,,,,,,,,,,,,,,,,,,,7,2.385999918,2,0.838999987,1,0,1200,341,1,1199,stinky,11119,2019-10-21_17h25.35.408,SurveyExpMetaMem,3.2.3,Win32,60
,,,,,,,,,,,,,,,,,,,,2,3.121000051,2,2.203999996,1,0,1200,1037,1,1199,scared,11119,2019-10-21_17h25.35.408,SurveyExpMetaMem,3.2.3,Win32,60
,,,,,,,,,,,,,,,,,,,,5,1.375999928,5,0.138999939,1,0,1200,652,1,1199,tend,11119,2019-10-21_17h25.35.408,SurveyExpMetaMem,3.2.3,Win32,60
,,,,,,,,,,,,,,,,,,,,2,2.628999949,4,0.559000015,1,0,1200,521,1,1199,laundry,11119,2019-10-21_17h25.35.408,SurveyExpMetaMem,3.2.3,Win32,60
,,,,,,,,,,,,,,,,,,,,5,1.269000053,5,0.154999971,1,0,1200,603,1,1199,mane,11119,2019-10-21_17h25.35.408,SurveyExpMetaMem,3.2.3,Win32,60
,,,,,,,,,,,,,,,,,,,,6,1.371999979,6,0.973999739,1,0,1200,1111,1,1199,bruise,11119,2019-10-21_17h25.35.408,SurveyExpMetaMem,3.2.3,Win32,60
,,,,,,,,,,,,,,,,,,,,5,4.519999981,5,0.125,1,0,1200,618,1,1199,ceiling,11119,2019-10-21_17h25.35.408,SurveyExpMetaMem,3.2.3,Win32,60
,,,,,,,,,,,,,,,,,,,,3,1.921999931,1,1.389999866,1,0,1200,338,1,1199,obesity,11119,2019-10-21_17h25.35.408,SurveyExpMetaMem,3.2.3,Win32,60
,,,,,,,,,,,,,,,,,,,,2,4.056999922,1,0.403999805,1,0,1200,362,1,1199,despair,11119,2019-10-21_17h25.35.408,SurveyExpMetaMem,3.2.3,Win32,60
,,,,,,,,,,,,,,,,,,,,5,1.520999908,5,0.107999802,1,0,1200,334,1,1199,trash,11119,2019-10-21_17h25.35.408,SurveyExpMetaMem,3.2.3,Win32,60
,,,,,,,,,,,,,,,,,,,,7,1.369999886,7,1.105999947,1,0,1200,204,1,1199,crazy,11119,2019-10-21_17h25.35.408,SurveyExpMetaMem,3.2.3,Win32,60
,,,,,,,,,,,,,,,,,,,,5,1.22699976,5,0.154999971,1,0,1200,812,1,1199,harp,11119,2019-10-21_17h25.35.408,SurveyExpMetaMem,3.2.3,Win32,60
,,,,,,,,,,,,,,,,,,,,5,1.48300004,5,0.121999979,1,0,1200,1136,1,1199,appall,11119,2019-10-21_17h25.35.408,SurveyExpMetaMem,3.2.3,Win32,60
,,,,,,,,,,,,,,,,,,,,6,2.221999884,8,1.404000044,1,0,1200,196,1,1199,smile,11119,2019-10-21_17h25.35.408,SurveyExpMetaMem,3.2.3,Win32,60
,,,,,,,,,,,,,,,,,,,,6,2.674999952,8,0.970999718,1,0,1200,808,1,1199,violinist,11119,2019-10-21_17h25.35.408,SurveyExpMetaMem,3.2.3,Win32,60
,,,,,,,,,,,,,,,,,,,,7,2.500999928,3,0.864999771,1,0,1200,394,1,1199,dump,11119,2019-10-21_17h25.35.408,SurveyExpMetaMem,3.2.3,Win32,60
,,,,,,,,,,,,,,,,,,,,5,1.019999981,5,0.115999937,1,0,1200,846,1,1199,able,11119,2019-10-21_17h25.35.408,SurveyExpMetaMem,3.2.3,Win32,60
,,,,,,,,,,,,,,,,,,,,5,1.290999889,5,0.135999918,1,0,1200,840,1,1199,cuisine,11119,2019-10-21_17h25.35.408,SurveyExpMetaMem,3.2.3,Win32,60
,,,,,,,,,,,,,,,,,,,,2,2.046000004,8,0.824999809,1,0,1200,772,1,1199,ornament,11119,2019-10-21_17h25.35.408,SurveyExpMetaMem,3.2.3,Win32,60
,,,,,,,,,,,,,,,,,,,,8,2.139999866,8,0.786000013,1,0,1200,16,1,1199,sing,11119,2019-10-21_17h25.35.408,SurveyExpMetaMem,3.2.3,Win32,60
,,,,,,,,,,,,,,,,,,,,8,1.738999844,3,0.93900013,1,0,1200,991,1,1199,harass,11119,2019-10-21_17h25.35.408,SurveyExpMetaMem,3.2.3,Win32,60
,,,,,,,,,,,,,,,,,,,,2,1.453000069,2,0.575000048,1,0,1200,376,1,1199,incompetent,11119,2019-10-21_17h25.35.408,SurveyExpMetaMem,3.2.3,Win32,60
,,,,,,,,,,,,,,,,,,,,2,1.378999949,2,0.772000074,1,0,1200,453,1,1199,prude,11119,2019-10-21_17h25.35.408,SurveyExpMetaMem,3.2.3,Win32,60
,,,,,,,,,,,,,,,,,,,,5,1.309000015,5,0.142999887,1,0,1200,41,1,1199,progress,11119,2019-10-21_17h25.35.408,SurveyExpMetaMem,3.2.3,Win32,60
,,,,,,,,,,,,,,,,,,,,5,1.417999983,5,0.105999947,1,0,1200,33,1,1199,sister,11119,2019-10-21_17h25.35.408,SurveyExpMetaMem,3.2.3,Win32,60
,,,,,,,,,,,,,,,,,,,,5,1.586999893,5,0.14199996,1,0,1200,800,1,1199,authentic,11119,2019-10-21_17h25.35.408,SurveyExpMetaMem,3.2.3,Win32,60
,,,,,,,,,,,,,,,,,,,,2,1.863999844,8,0.736999989,1,0,1200,93,1,1199,smiling,11119,2019-10-21_17h25.35.408,SurveyExpMetaMem,3.2.3,Win32,60
,,,,,,,,,,,,,,,,,,,,2,1.855999947,2,0.763999939,1,0,1200,949,1,1199,thief,11119,2019-10-21_17h25.35.408,SurveyExpMetaMem,3.2.3,Win32,60
,,,,,,,,,,,,,,,,,,,,2,0.984999895,2,0.289000034,1,0,1200,365,1,1199,discouraged,11119,2019-10-21_17h25.35.408,SurveyExpMetaMem,3.2.3,Win32,60
,,,,,,,,,,,,,,,,,,,,8,1.3349998,2,0.724999905,1,0,1200,1141,1,1199,shark,11119,2019-10-21_17h25.35.408,SurveyExpMetaMem,3.2.3,Win32,60
,,,,,,,,,,,,,,,,,,,,2,2.372999907,7,0.40199995,1,0,1200,57,1,1199,important,11119,2019-10-21_17h25.35.408,SurveyExpMetaMem,3.2.3,Win32,60
,,,,,,,,,,,,,,,,,,,,5,1.410999775,5,0.121999741,1,0,1200,89,1,1199,cruiseship,11119,2019-10-21_17h25.35.408,SurveyExpMetaMem,3.2.3,Win32,60
,,,,,,,,,,,,,,,,,,,,2,2.572000027,4,1.021999836,1,0,1200,480,1,1199,hinder,11119,2019-10-21_17h25.35.408,SurveyExpMetaMem,3.2.3,Win32,60
,,,,,,,,,,,,,,,,,,,,8,1.617999792,3,1.179000139,1,0,1200,1171,1,1199,chaos,11119,2019-10-21_17h25.35.408,SurveyExpMetaMem,3.2.3,Win32,60
,,,,,,,,,,,,,,,,,,,,7,1.869999886,3,1.90899992,1,0,1200,1190,1,1199,clench,11119,2019-10-21_17h25.35.408,SurveyExpMetaMem,3.2.3,Win32,60
,,,,,,,,,,,,,,,,,,,,5,1.419999838,5,0.187999964,1,0,1200,559,1,1199,lazy,11119,2019-10-21_17h25.35.408,SurveyExpMetaMem,3.2.3,Win32,60
,,,,,,,,,,,,,,,,,,,,2,1.622999907,8,0.405999899,1,0,1200,238,1,1199,sunshine,11119,2019-10-21_17h25.35.408,SurveyExpMetaMem,3.2.3,Win32,60
,,,,,,,,,,,,,,,,,,,,8,1.532000065,2,0.461999893,1,0,1200,1055,1,1199,alarm,11119,2019-10-21_17h25.35.408,SurveyExpMetaMem,3.2.3,Win32,60
,,,,,,,,,,,,,,,,,,,,2,3.555999756,7,0.402999878,1,0,1200,68,1,1199,perfect,11119,2019-10-21_17h25.35.408,SurveyExpMetaMem,3.2.3,Win32,60
,,,,,,,,,,,,,,,,,,,,5,1.120999813,5,0.136999846,1,0,1200,548,1,1199,vague,11119,2019-10-21_17h25.35.408,SurveyExpMetaMem,3.2.3,Win32,60
,,,,,,,,,,,,,,,,,,,,2,1.806999922,8,0.337999821,1,0,1200,25,1,1199,charisma,11119,2019-10-21_17h25.35.408,SurveyExpMetaMem,3.2.3,Win32,60
,,,,,,,,,,,,,,,,,,,,5,1.506000042,5,0.14199996,1,0,1200,136,1,1199,dog,11119,2019-10-21_17h25.35.408,SurveyExpMetaMem,3.2.3,Win32,60
,,,,,,,,,,,,,,,,,,,,7,2.770999908,3,0.989000082,1,0,1200,1006,1,1199,rash,11119,2019-10-21_17h25.35.408,SurveyExpMetaMem,3.2.3,Win32,60
,,,,,,,,,,,,,,,,,,,,8,1.65199995,2,0.725000143,1,0,1200,959,1,1199,divorce,11119,2019-10-21_17h25.35.408,SurveyExpMetaMem,3.2.3,Win32,60
,,,,,,,,,,,,,,,,,,,,2,2.035999775,5,1.519999981,1,0,1200,1074,1,1199,detain,11119,2019-10-21_17h25.35.408,SurveyExpMetaMem,3.2.3,Win32,60
,,,,,,,,,,,,,,,,,,,,5,1.936999798,5,0.125,1,0,1200,716,1,1199,blouse,11119,2019-10-21_17h25.35.408,SurveyExpMetaMem,3.2.3,Win32,60
,,,,,,,,,,,,,,,,,,,,2,2.224999905,2,1.355000019,1,0,1200,380,1,1199,expire,11119,2019-10-21_17h25.35.408,SurveyExpMetaMem,3.2.3,Win32,60
,,,,,,,,,,,,,,,,,,,,7,1.888999939,7,0.536999941,1,0,1200,117,1,1199,powerful,11119,2019-10-21_17h25.35.408,SurveyExpMetaMem,3.2.3,Win32,60
,,,,,,,,,,,,,,,,,,,,6,4.057999849,2,1.155999899,1,0,1200,1116,1,1199,emergency,11119,2019-10-21_17h25.35.408,SurveyExpMetaMem,3.2.3,Win32,60
,,,,,,,,,,,,,,,,,,,,2,12.33800006,7,0.605999947,1,0,1200,294,1,1199,confident,11119,2019-10-21_17h25.35.408,SurveyExpMetaMem,3.2.3,Win32,60
,,,,,,,,,,,,,,,,,,,,2,1.256000042,2,0.173999786,1,0,1200,787,1,1199,dawn,11119,2019-10-21_17h25.35.408,SurveyExpMetaMem,3.2.3,Win32,60
,,,,,,,,,,,,,,,,,,,,2,1.421999931,8,0.348999977,1,0,1200,1156,1,1199,weapon,11119,2019-10-21_17h25.35.408,SurveyExpMetaMem,3.2.3,Win32,60
,,,,,,,,,,,,,,,,,,,,2,3.467999935,8,0.838999987,1,0,1200,863,1,1199,fireplace,11119,2019-10-21_17h25.35.408,SurveyExpMetaMem,3.2.3,Win32,60
,,,,,,,,,,,,,,,,,,,,8,5.633999825,1,1.203999996,1,0,1200,901,1,1199,rape,11119,2019-10-21_17h25.35.408,SurveyExpMetaMem,3.2.3,Win32,60
,,,,,,,,,,,,,,,,,,,,5,1.53399992,5,0.187999725,1,0,1200,748,1,1199,town,11119,2019-10-21_17h25.35.408,SurveyExpMetaMem,3.2.3,Win32,60
,,,,,,,,,,,,,,,,,,,,5,0.936000109,5,0.194999933,1,0,1200,469,1,1199,resent,11119,2019-10-21_17h25.35.408,SurveyExpMetaMem,3.2.3,Win32,60
,,,,,,,,,,,,,,,,,,,,8,1.586999893,2,0.804999828,1,0,1200,998,1,1199,virus,11119,2019-10-21_17h25.35.408,SurveyExpMetaMem,3.2.3,Win32,60
,,,,,,,,,,,,,,,,,,,,9,1.608999968,1,1.076999903,1,0,1200,1103,1,1199,mob,11119,2019-10-21_17h25.35.408,SurveyExpMetaMem,3.2.3,Win32,60
,,,,,,,,,,,,,,,,,,,,8,3.154999971,2,1.023999929,1,0,1200,439,1,1199,spit,11119,2019-10-21_17h25.35.408,SurveyExpMetaMem,3.2.3,Win32,60
,,,,,,,,,,,,,,,,,,,,2,4.370999813,1,1.525000095,1,0,1200,541,1,1199,apathy,11119,2019-10-21_17h25.35.408,SurveyExpMetaMem,3.2.3,Win32,60
,,,,,,,,,,,,,,,,,,,,7,1.970000029,8,1.10199976,1,0,1200,148,1,1199,victory,11119,2019-10-21_17h25.35.408,SurveyExpMetaMem,3.2.3,Win32,60
,,,,,,,,,,,,,,,,,,,,3,4.321000099,8,1.980999947,1,0,1200,101,1,1199,alien,11119,2019-10-21_17h25.35.408,SurveyExpMetaMem,3.2.3,Win32,60
,,,,,,,,,,,,,,,,,,,,5,1.633000135,5,0.189999819,1,0,1200,549,1,1199,beet,11119,2019-10-21_17h25.35.408,SurveyExpMetaMem,3.2.3,Win32,60
,,,,,,,,,,,,,,,,,,,,5,1.665999889,5,0.161000013,1,0,1200,627,1,1199,introductory,11119,2019-10-21_17h25.35.408,SurveyExpMetaMem,3.2.3,Win32,60
,,,,,,,,,,,,,,,,,,,,2,1.88499999,2,0.655999899,1,0,1200,372,1,1199,inferior,11119,2019-10-21_17h25.35.408,SurveyExpMetaMem,3.2.3,Win32,60
,,,,,,,,,,,,,,,,,,,,2,1.388000011,8,0.624000072,1,0,1200,923,1,1199,punish,11119,2019-10-21_17h25.35.408,SurveyExpMetaMem,3.2.3,Win32,60
,,,,,,,,,,,,,,,,,,,,2,4.438999891,8,1.988999844,1,0,1200,671,1,1199,windmill,11119,2019-10-21_17h25.35.408,SurveyExpMetaMem,3.2.3,Win32,60
,,,,,,,,,,,,,,,,,,,,2,1.751999855,2,1.267999887,1,0,1200,1168,1,1199,financial,11119,2019-10-21_17h25.35.408,SurveyExpMetaMem,3.2.3,Win32,60
,,,,,,,,,,,,,,,,,,,,8,3.39199996,4,1.169000149,1,0,1200,1132,1,1199,anarchy,11119,2019-10-21_17h25.35.408,SurveyExpMetaMem,3.2.3,Win32,60
,,,,,,,,,,,,,,,,,,,,7,1.535999775,8,0.911000013,1,0,1200,240,1,1199,giggles,11119,2019-10-21_17h25.35.408,SurveyExpMetaMem,3.2.3,Win32,60
,,,,,,,,,,,,,,,,,,,,2,1.953999996,8,0.921999931,1,0,1200,1094,1,1199,disruptive,11119,2019-10-21_17h25.35.408,SurveyExpMetaMem,3.2.3,Win32,60
,,,,,,,,,,,,,,,,,,,,2,2.223999977,5,3.492000103,1,0,1200,495,1,1199,dust,11119,2019-10-21_17h25.35.408,SurveyExpMetaMem,3.2.3,Win32,60
,,,,,,,,,,,,,,,,,,,,9,1.63499999,4,1.641000032,1,0,1200,45,1,1199,sex,11119,2019-10-21_17h25.35.408,SurveyExpMetaMem,3.2.3,Win32,60
,,,,,,,,,,,,,,,,,,,,7,1.506000042,4,1.989000082,1,0,1200,159,1,1199,teenager,11119,2019-10-21_17h25.35.408,SurveyExpMetaMem,3.2.3,Win32,60
,,,,,,,,,,,,,,,,,,,,2,2.678999901,2,0.886999846,1,0,1200,363,1,1199,dumb,11119,2019-10-21_17h25.35.408,SurveyExpMetaMem,3.2.3,Win32,60
,,,,,,,,,,,,,,,,,,,,5,3.210000038,5,0.147000074,1,0,1200,551,1,1199,coal,11119,2019-10-21_17h25.35.408,SurveyExpMetaMem,3.2.3,Win32,60
,,,,,,,,,,,,,,,,,,,,7,1.790999889,8,0.746999979,1,0,1200,54,1,1199,alcohol,11119,2019-10-21_17h25.35.408,SurveyExpMetaMem,3.2.3,Win32,60
,,,,,,,,,,,,,,,,,,,,2,1.56099987,8,0.89199996,1,0,1200,848,1,1199,graceful,11119,2019-10-21_17h25.35.408,SurveyExpMetaMem,3.2.3,Win32,60
,,,,,,,,,,,,,,,,,,,,7,1.501999855,8,0.563999891,1,0,1200,88,1,1199,ambitious,11119,2019-10-21_17h25.35.408,SurveyExpMetaMem,3.2.3,Win32,60
,,,,,,,,,,,,,,,,,,,,8,2.773999929,2,0.888000011,1,0,1200,951,1,1199,castrate,11119,2019-10-21_17h25.35.408,SurveyExpMetaMem,3.2.3,Win32,60
,,,,,,,,,,,,,,,,,,,,2,1.720000029,1,0.640000105,1,0,1200,987,1,1199,disgusted,11119,2019-10-21_17h25.35.408,SurveyExpMetaMem,3.2.3,Win32,60
,,,,,,,,,,,,,,,,,,,,5,1.457999945,5,0.139999866,1,0,1200,801,1,1199,noon,11119,2019-10-21_17h25.35.408,SurveyExpMetaMem,3.2.3,Win32,60
,,,,,,,,,,,,,,,,,,,,7,4.77699995,6,2.707999945,1,0,1200,1183,1,1199,emotional,11119,2019-10-21_17h25.35.408,SurveyExpMetaMem,3.2.3,Win32,60
,,,,,,,,,,,,,,,,,,,,1,2.737999916,1,0.788999796,1,0,1200,374,1,1199,sluggish,11119,2019-10-21_17h25.35.408,SurveyExpMetaMem,3.2.3,Win32,60
,,,,,,,,,,,,,,,,,,,,7,1.74000001,1,0.855999947,1,0,1200,326,1,1199,scam,11119,2019-10-21_17h25.35.408,SurveyExpMetaMem,3.2.3,Win32,60
,,,,,,,,,,,,,,,,,,,,8,4.670000076,3,4.756999969,1,0,1200,1129,1,1199,spanking,11119,2019-10-21_17h25.35.408,SurveyExpMetaMem,3.2.3,Win32,60
,,,,,,,,,,,,,,,,,,,,8,4.450999975,8,1.673000097,1,0,1200,223,1,1199,fashion,11119,2019-10-21_17h25.35.408,SurveyExpMetaMem,3.2.3,Win32,60
,,,,,,,,,,,,,,,,,,,,2,1.603999853,1,0.589999914,1,0,1200,327,1,1199,misfortune,11119,2019-10-21_17h25.35.408,SurveyExpMetaMem,3.2.3,Win32,60
,,,,,,,,,,,,,,,,,,,,7,2.646999836,4,1.556999922,1,0,1200,1091,1,1199,cram,11119,2019-10-21_17h25.35.408,SurveyExpMetaMem,3.2.3,Win32,60
,,,,,,,,,,,,,,,,,,,,5,1.085999966,5,0.134999752,1,0,1200,29,1,1199,life,11119,2019-10-21_17h25.35.408,SurveyExpMetaMem,3.2.3,Win32,60
,,,,,,,,,,,,,,,,,,,,1,1.671999931,7,0.807999849,1,0,1200,889,1,1199,wise,11119,2019-10-21_17h25.35.408,SurveyExpMetaMem,3.2.3,Win32,60
,,,,,,,,,,,,,,,,,,,,5,1.621999741,5,0.141000032,1,0,1200,646,1,1199,wear,11119,2019-10-21_17h25.35.408,SurveyExpMetaMem,3.2.3,Win32,60
,,,,,,,,,,,,,,,,,,,,7,2.056999922,8,1.190999985,1,0,1200,31,1,1199,brownie,11119,2019-10-21_17h25.35.408,SurveyExpMetaMem,3.2.3,Win32,60
,,,,,,,,,,,,,,,,,,,,1,2.089999914,1,0.322000027,1,0,1200,999,1,1199,burdened,11119,2019-10-21_17h25.35.408,SurveyExpMetaMem,3.2.3,Win32,60
,,,,,,,,,,,,,,,,,,,,9,1.937000036,9,0.154999971,1,0,1200,142,1,1199,christmas,11119,2019-10-21_17h25.35.408,SurveyExpMetaMem,3.2.3,Win32,60
,,,,,,,,,,,,,,,,,,,,9,2.424000025,1,4.243000031,1,0,1200,1049,1,1199,electrocute,11119,2019-10-21_17h25.35.408,SurveyExpMetaMem,3.2.3,Win32,60
,,,,,,,,,,,,,,,,,,,,7,1.68599987,2,1.001999855,1,0,1200,1137,1,1199,knife,11119,2019-10-21_17h25.35.408,SurveyExpMetaMem,3.2.3,Win32,60
,,,,,,,,,,,,,,,,,,,,5,1.973999977,5,0.157999754,1,0,1200,75,1,1199,actor,11119,2019-10-21_17h25.35.408,SurveyExpMetaMem,3.2.3,Win32,60
,,,,,,,,,,,,,,,,,,,,5,0.963000059,5,0.137999773,1,0,1200,246,1,1199,complete,11119,2019-10-21_17h25.35.408,SurveyExpMetaMem,3.2.3,Win32,60
,,,,,,,,,,,,,,,,,,,,5,0.720999956,5,0.135999918,1,0,1200,219,1,1199,know,11119,2019-10-21_17h25.35.408,SurveyExpMetaMem,3.2.3,Win32,60
,,,,,,,,,,,,,,,,,,,,5,0.805999994,5,0.171999931,1,0,1200,755,1,1199,soap,11119,2019-10-21_17h25.35.408,SurveyExpMetaMem,3.2.3,Win32,60
,,,,,,,,,,,,,,,,,,,,5,1.353999853,5,0.137999773,1,0,1200,591,1,1199,bereavement,11119,2019-10-21_17h25.35.408,SurveyExpMetaMem,3.2.3,Win32,60
,,,,,,,,,,,,,,,,,,,,7,2.907000065,2,0.888999939,1,0,1200,1011,1,1199,robber,11119,2019-10-21_17h25.35.408,SurveyExpMetaMem,3.2.3,Win32,60
,,,,,,,,,,,,,,,,,,,,8,1.967999935,2,1.040999889,1,0,1200,912,1,1199,rabies,11119,2019-10-21_17h25.35.408,SurveyExpMetaMem,3.2.3,Win32,60
,,,,,,,,,,,,,,,,,,,,1,4.170000076,7,2.340999842,1,0,1200,190,1,1199,rescue,11119,2019-10-21_17h25.35.408,SurveyExpMetaMem,3.2.3,Win32,60
,,,,,,,,,,,,,,,,,,,,1,1.773000002,1,0.292999983,1,0,1200,367,1,1199,pathetic,11119,2019-10-21_17h25.35.408,SurveyExpMetaMem,3.2.3,Win32,60
,,,,,,,,,,,,,,,,,,,,7,1.46999979,7,0.142999887,1,0,1200,965,1,1199,traffic,11119,2019-10-21_17h25.35.408,SurveyExpMetaMem,3.2.3,Win32,60
,,,,,,,,,,,,,,,,,,,,1,8.039000034,1,1.120999813,1,0,1200,915,1,1199,abuse,11119,2019-10-21_17h25.35.408,SurveyExpMetaMem,3.2.3,Win32,60
,,,,,,,,,,,,,,,,,,,,5,1.805000067,5,0.122999907,1,0,1200,599,1,1199,obstinate,11119,2019-10-21_17h25.35.408,SurveyExpMetaMem,3.2.3,Win32,60
,,,,,,,,,,,,,,,,,,,,5,0.836999893,5,0.121999741,1,0,1200,220,1,1199,reef,11119,2019-10-21_17h25.35.408,SurveyExpMetaMem,3.2.3,Win32,60
,,,,,,,,,,,,,,,,,,,,7,1.854000092,8,1.273999929,1,0,1200,249,1,1199,award,11119,2019-10-21_17h25.35.408,SurveyExpMetaMem,3.2.3,Win32,60
,,,,,,,,,,,,,,,,,,,,8,1.65199995,8,0.154999971,1,0,1200,198,1,1199,comedy,11119,2019-10-21_17h25.35.408,SurveyExpMetaMem,3.2.3,Win32,60
,,,,,,,,,,,,,,,,,,,,2,2.287999868,2,0.143000126,1,0,1200,974,1,1199,roach,11119,2019-10-21_17h25.35.408,SurveyExpMetaMem,3.2.3,Win32,60
,,,,,,,,,,,,,,,,,,,,7,2.486999989,7,0.141000032,1,0,1200,171,1,1199,imagination,11119,2019-10-21_17h25.35.408,SurveyExpMetaMem,3.2.3,Win32,60
,,,,,,,,,,,,,,,,,,,,5,3.821000099,5,0.121000051,1,0,1200,701,1,1199,telephone,11119,2019-10-21_17h25.35.408,SurveyExpMetaMem,3.2.3,Win32,60
,,,,,,,,,,,,,,,,,,,,5,2.06799984,5,0.138999939,1,0,1200,267,1,1199,bold,11119,2019-10-21_17h25.35.408,SurveyExpMetaMem,3.2.3,Win32,60
,,,,,,,,,,,,,,,,,,,,2,2.900999784,2,0.171999931,1,0,1200,1123,1,1199,haunt,11119,2019-10-21_17h25.35.408,SurveyExpMetaMem,3.2.3,Win32,60
,,,,,,,,,,,,,,,,,,,,5,2.277999878,5,0.138999939,1,0,1200,358,1,1199,waste,11119,2019-10-21_17h25.35.408,SurveyExpMetaMem,3.2.3,Win32,60
,,,,,,,,,,,,,,,,,,,,9,5.119999886,6,1.010999918,1,0,1200,244,1,1199,sexy,11119,2019-10-21_17h25.35.408,SurveyExpMetaMem,3.2.3,Win32,60
,,,,,,,,,,,,,,,,,,,,7,2.369999886,7,0.697999716,1,0,1200,226,1,1199,prize,11119,2019-10-21_17h25.35.408,SurveyExpMetaMem,3.2.3,Win32,60
,,,,,,,,,,,,,,,,,,,,7,2.07799983,2,0.47699976,1,0,1200,995,1,1199,cult,11119,2019-10-21_17h25.35.408,SurveyExpMetaMem,3.2.3,Win32,60
,,,,,,,,,,,,,,,,,,,,2,3.049000025,8,0.513000011,1,0,1200,796,1,1199,rose,11119,2019-10-21_17h25.35.408,SurveyExpMetaMem,3.2.3,Win32,60
,,,,,,,,,,,,,,,,,,,,7,3.06799984,2,1.923999786,1,0,1200,1095,1,1199,fright,11119,2019-10-21_17h25.35.408,SurveyExpMetaMem,3.2.3,Win32,60
,,,,,,,,,,,,,,,,,,,,7,2.423999786,8,1.157999754,1,0,1200,118,1,1199,conquer,11119,2019-10-21_17h25.35.408,SurveyExpMetaMem,3.2.3,Win32,60
,,,,,,,,,,,,,,,,,,,,5,1.238999844,5,0.138000011,1,0,1200,642,1,1199,newspaper,11119,2019-10-21_17h25.35.408,SurveyExpMetaMem,3.2.3,Win32,60
,,,,,,,,,,,,,,,,,,,,7,2.273000002,2,0.877000093,1,0,1200,1165,1,1199,revolt,11119,2019-10-21_17h25.35.408,SurveyExpMetaMem,3.2.3,Win32,60
,,,,,,,,,,,,,,,,,,,,5,3.517999887,5,0.123000145,1,0,1200,257,1,1199,cockpit,11119,2019-10-21_17h25.35.408,SurveyExpMetaMem,3.2.3,Win32,60
,,,,,,,,,,,,,,,,,,,,5,1.013000011,5,0.131999969,1,0,1200,172,1,1199,potential,11119,2019-10-21_17h25.35.408,SurveyExpMetaMem,3.2.3,Win32,60
,,,,,,,,,,,,,,,,,,,,5,0.819999933,5,0.125,1,0,1200,759,1,1199,prefer,11119,2019-10-21_17h25.35.408,SurveyExpMetaMem,3.2.3,Win32,60
,,,,,,,,,,,,,,,,,,,,2,2.42599988,1,0.811000109,1,0,1200,344,1,1199,pessimistic,11119,2019-10-21_17h25.35.408,SurveyExpMetaMem,3.2.3,Win32,60
,,,,,,,,,,,,,,,,,,,,1,1.336999893,1,0.154999971,1,0,1200,305,1,1199,frown,11119,2019-10-21_17h25.35.408,SurveyExpMetaMem,3.2.3,Win32,60
,,,,,,,,,,,,,,,,,,,,6,2.302999735,6,0.154000044,1,0,1200,44,1,1199,diploma,11119,2019-10-21_17h25.35.408,SurveyExpMetaMem,3.2.3,Win32,60
,,,,,,,,,,,,,,,,,,,,4,1.604000092,4,0.144999981,1,0,1200,477,1,1199,separate,11119,2019-10-21_17h25.35.408,SurveyExpMetaMem,3.2.3,Win32,60
,,,,,,,,,,,,,,,,,,,,5,2.905999899,5,0.123999834,1,0,1200,569,1,1199,onion,11119,2019-10-21_17h25.35.408,SurveyExpMetaMem,3.2.3,Win32,60
,,,,,,,,,,,,,,,,,,,,2,3.074999809,1,1.086999893,1,0,1200,318,1,1199,disappointment,11119,2019-10-21_17h25.35.408,SurveyExpMetaMem,3.2.3,Win32,60
,,,,,,,,,,,,,,,,,,,,5,1.621999979,5,0.11500001,1,0,1200,703,1,1199,book,11119,2019-10-21_17h25.35.408,SurveyExpMetaMem,3.2.3,Win32,60
,,,,,,,,,,,,,,,,,,,,7,1.903999805,7,0.154999971,1,0,1200,290,1,1199,enthusiasm,11119,2019-10-21_17h25.35.408,SurveyExpMetaMem,3.2.3,Win32,60
,,,,,,,,,,,,,,,,,,,,4,3.490999937,4,0.16899991,1,0,1200,1185,1,1199,shotgun,11119,2019-10-21_17h25.35.408,SurveyExpMetaMem,3.2.3,Win32,60
,,,,,,,,,,,,,,,,,,,,3,9.571000099,2,1.047999859,1,0,1200,485,1,1199,pinch,11119,2019-10-21_17h25.35.408,SurveyExpMetaMem,3.2.3,Win32,60
,,,,,,,,,,,,,,,,,,,,5,1.204999924,5,0.176999807,1,0,1200,567,1,1199,folly,11119,2019-10-21_17h25.35.408,SurveyExpMetaMem,3.2.3,Win32,60
,,,,,,,,,,,,,,,,,,,,7,1.588999987,2,0.656999826,1,0,1200,1021,1,1199,attack,11119,2019-10-21_17h25.35.408,SurveyExpMetaMem,3.2.3,Win32,60
,,,,,,,,,,,,,,,,,,,,8,1.355999947,8,0.993999958,1,0,1200,40,1,1199,kissing,11119,2019-10-21_17h25.35.408,SurveyExpMetaMem,3.2.3,Win32,60
,,,,,,,,,,,,,,,,,,,,2,1.544999838,8,0.421999931,1,0,1200,874,1,1199,butterfly,11119,2019-10-21_17h25.35.408,SurveyExpMetaMem,3.2.3,Win32,60
,,,,,,,,,,,,,,,,,,,,2,1.258999825,8,0.172999859,1,0,1200,832,1,1199,candy,11119,2019-10-21_17h25.35.408,SurveyExpMetaMem,3.2.3,Win32,60
,,,,,,,,,,,,,,,,,,,,2,1.74000001,8,0.172999859,1,0,1200,810,1,1199,polite,11119,2019-10-21_17h25.35.408,SurveyExpMetaMem,3.2.3,Win32,60
,,,,,,,,,,,,,,,,,,,,2,2.671000004,5,0.213999987,1,0,1200,611,1,1199,herring,11119,2019-10-21_17h25.35.408,SurveyExpMetaMem,3.2.3,Win32,60
,,,,,,,,,,,,,,,,,,,,5,3.219000101,5,0.143000126,1,0,1200,645,1,1199,telescope,11119,2019-10-21_17h25.35.408,SurveyExpMetaMem,3.2.3,Win32,60
,,,,,,,,,,,,,,,,,,,,2,1.872999907,2,1.608999968,1,0,1200,1073,1,1199,bitch,11119,2019-10-21_17h25.35.408,SurveyExpMetaMem,3.2.3,Win32,60
,,,,,,,,,,,,,,,,,,,,8,1.878999949,2,1.504999876,1,0,1200,431,1,1199,itch,11119,2019-10-21_17h25.35.408,SurveyExpMetaMem,3.2.3,Win32,60
,,,,,,,,,,,,,,,,,,,,2,2.155999899,2,0.740999937,1,0,1200,454,1,1199,damp,11119,2019-10-21_17h25.35.408,SurveyExpMetaMem,3.2.3,Win32,60
,,,,,,,,,,,,,,,,,,,,8,2.404999971,2,0.303999901,1,0,1200,948,1,1199,pain,11119,2019-10-21_17h25.35.408,SurveyExpMetaMem,3.2.3,Win32,60
,,,,,,,,,,,,,,,,,,,,6,2.768000126,6,0.121999979,1,0,1200,777,1,1199,casual,11119,2019-10-21_17h25.35.408,SurveyExpMetaMem,3.2.3,Win32,60
,,,,,,,,,,,,,,,,,,,,5,1.257999897,5,0.172999859,1,0,1200,913,1,1199,ulcer,11119,2019-10-21_17h25.35.408,SurveyExpMetaMem,3.2.3,Win32,60
,,,,,,,,,,,,,,,,,,,,3,3.659999847,2,1.036999702,1,0,1200,430,1,1199,cancel,11119,2019-10-21_17h25.35.408,SurveyExpMetaMem,3.2.3,Win32,60
,,,,,,,,,,,,,,,,,,,,7,1.236999989,8,0.823999882,1,0,1200,95,1,1199,giggle,11119,2019-10-21_17h25.35.408,SurveyExpMetaMem,3.2.3,Win32,60
,,,,,,,,,,,,,,,,,,,,5,2.370000124,5,0.145999908,1,0,1200,780,1,1199,grass,11119,2019-10-21_17h25.35.408,SurveyExpMetaMem,3.2.3,Win32,60
,,,,,,,,,,,,,,,,,,,,8,2.013999939,2,0.886999846,1,0,1200,922,1,1199,nightmare,11119,2019-10-21_17h25.35.408,SurveyExpMetaMem,3.2.3,Win32,60
,,,,,,,,,,,,,,,,,,,,5,1.111999989,5,0.155999899,1,0,1200,752,1,1199,milk,11119,2019-10-21_17h25.35.408,SurveyExpMetaMem,3.2.3,Win32,60
,,,,,,,,,,,,,,,,,,,,5,1.519999981,5,0.142999887,1,0,1200,727,1,1199,author,11119,2019-10-21_17h25.35.408,SurveyExpMetaMem,3.2.3,Win32,60
,,,,,,,,,,,,,,,,,,,,7,2.273000002,7,0.143999815,1,0,1200,242,1,1199,triumph,11119,2019-10-21_17h25.35.408,SurveyExpMetaMem,3.2.3,Win32,60
,,,,,,,,,,,,,,,,,,,,8,1.688999891,2,0.273000002,1,0,1200,1101,1,1199,scary,11119,2019-10-21_17h25.35.408,SurveyExpMetaMem,3.2.3,Win32,60
,,,,,,,,,,,,,,,,,,,,7,1.751999855,7,0.138000011,1,0,1200,881,1,1199,protected,11119,2019-10-21_17h25.35.408,SurveyExpMetaMem,3.2.3,Win32,60
,,,,,,,,,,,,,,,,,,,,5,2.974999905,5,0.118000031,1,0,1200,791,1,1199,shoes,11119,2019-10-21_17h25.35.408,SurveyExpMetaMem,3.2.3,Win32,60
,,,,,,,,,,,,,,,,,,,,8,1.538999796,8,0.638999701,1,0,1200,243,1,1199,fame,11119,2019-10-21_17h25.35.408,SurveyExpMetaMem,3.2.3,Win32,60
,,,,,,,,,,,,,,,,,,,,2,2.671999931,2,0.49000001,1,0,1200,483,1,1199,condescension,11119,2019-10-21_17h25.35.408,SurveyExpMetaMem,3.2.3,Win32,60
,,,,,,,,,,,,,,,,,,,,5,1.236999989,5,0.131999969,1,0,1200,675,1,1199,golfer,11119,2019-10-21_17h25.35.408,SurveyExpMetaMem,3.2.3,Win32,60
,,,,,,,,,,,,,,,,,,,,5,0.960999966,5,0.135999918,1,0,1200,700,1,1199,frog,11119,2019-10-21_17h25.35.408,SurveyExpMetaMem,3.2.3,Win32,60
,,,,,,,,,,,,,,,,,,,,8,1.771999836,2,1.209000111,1,0,1200,1198,1,1199,lightning,11119,2019-10-21_17h25.35.408,SurveyExpMetaMem,3.2.3,Win32,60
,,,,,,,,,,,,,,,,,,,,5,2.505999804,5,0.138000011,1,0,1200,733,1,1199,poetry,11119,2019-10-21_17h25.35.408,SurveyExpMetaMem,3.2.3,Win32,60
,,,,,,,,,,,,,,,,,,,,2,2.855000019,9,0.674000025,1,0,1200,822,1,1199,clearer,11119,2019-10-21_17h25.35.408,SurveyExpMetaMem,3.2.3,Win32,60
,,,,,,,,,,,,,,,,,,,,2,1.587999821,9,0.156000137,1,0,1200,712,1,1199,harvest,11119,2019-10-21_17h25.35.408,SurveyExpMetaMem,3.2.3,Win32,60
,,,,,,,,,,,,,,,,,,,,5,1.105999947,5,0.119999886,1,0,1200,747,1,1199,furniture,11119,2019-10-21_17h25.35.408,SurveyExpMetaMem,3.2.3,Win32,60
,,,,,,,,,,,,,,,,,,,,2,0.91899991,9,0.150999784,1,0,1200,15,1,1199,curiosity,11119,2019-10-21_17h25.35.408,SurveyExpMetaMem,3.2.3,Win32,60
,,,,,,,,,,,,,,,,,,,,5,1.660999775,5,0.154999971,1,0,1200,699,1,1199,leg,11119,2019-10-21_17h25.35.408,SurveyExpMetaMem,3.2.3,Win32,60
,,,,,,,,,,,,,,,,,,,,2,1.470000029,9,0.45299983,1,0,1200,51,1,1199,body,11119,2019-10-21_17h25.35.408,SurveyExpMetaMem,3.2.3,Win32,60
,,,,,,,,,,,,,,,,,,,,9,1.99000001,2,0.230999947,1,0,1200,590,1,1199,stool,11119,2019-10-21_17h25.35.408,SurveyExpMetaMem,3.2.3,Win32,60
,,,,,,,,,,,,,,,,,,,,9,5.069999933,9,0.139999866,1,0,1200,299,1,1199,champion,11119,2019-10-21_17h25.35.408,SurveyExpMetaMem,3.2.3,Win32,60
,,,,,,,,,,,,,,,,,,,,2,3.569000006,2,0.322000027,1,0,1200,941,1,1199,leprosy,11119,2019-10-21_17h25.35.408,SurveyExpMetaMem,3.2.3,Win32,60
,,,,,,,,,,,,,,,,,,,,4,3.065999985,8,0.321999788,1,0,1200,177,1,1199,frosting,11119,2019-10-21_17h25.35.408,SurveyExpMetaMem,3.2.3,Win32,60
,,,,,,,,,,,,,,,,,,,,5,1.242000103,5,0.154999971,1,0,1200,728,1,1199,patio,11119,2019-10-21_17h25.35.408,SurveyExpMetaMem,3.2.3,Win32,60
,,,,,,,,,,,,,,,,,,,,2,2.412999868,8,0.504999876,1,0,1200,158,1,1199,engage,11119,2019-10-21_17h25.35.408,SurveyExpMetaMem,3.2.3,Win32,60
,,,,,,,,,,,,,,,,,,,,2,2.355000019,2,0.361999989,1,0,1200,349,1,1199,mope,11119,2019-10-21_17h25.35.408,SurveyExpMetaMem,3.2.3,Win32,60
,,,,,,,,,,,,,,,,,,,,5,1.125,5,0.15899992,1,0,1200,830,1,1199,pear,11119,2019-10-21_17h25.35.408,SurveyExpMetaMem,3.2.3,Win32,60
,,,,,,,,,,,,,,,,,,,,5,1.711999893,8,0.325999975,1,0,1200,191,1,1199,compassion,11119,2019-10-21_17h25.35.408,SurveyExpMetaMem,3.2.3,Win32,60
,,,,,,,,,,,,,,,,,,,,9,2.167999983,2,0.771999836,1,0,1200,1051,1,1199,insane,11119,2019-10-21_17h25.35.408,SurveyExpMetaMem,3.2.3,Win32,60
,,,,,,,,,,,,,,,,,,,,5,2.069000006,5,0.125999928,1,0,1200,770,1,1199,buffalo,11119,2019-10-21_17h25.35.408,SurveyExpMetaMem,3.2.3,Win32,60
,,,,,,,,,,,,,,,,,,,,2,1.690000057,2,0.325000048,1,0,1200,406,1,1199,tired,11119,2019-10-21_17h25.35.408,SurveyExpMetaMem,3.2.3,Win32,60
,,,,,,,,,,,,,,,,,,,,5,1.184999943,5,0.123000145,1,0,1200,695,1,1199,teacher,11119,2019-10-21_17h25.35.408,SurveyExpMetaMem,3.2.3,Win32,60
,,,,,,,,,,,,,,,,,,,,2,2.271000147,1,0.290999889,1,0,1200,568,1,1199,therapy,11119,2019-10-21_17h25.35.408,SurveyExpMetaMem,3.2.3,Win32,60
,,,,,,,,,,,,,,,,,,,,2,2.040999889,7,0.339999914,1,0,1200,765,1,1199,candid,11119,2019-10-21_17h25.35.408,SurveyExpMetaMem,3.2.3,Win32,60
,,,,,,,,,,,,,,,,,,,,5,3.122999907,5,0.14199996,1,0,1200,22,1,1199,doughnut,11119,2019-10-21_17h25.35.408,SurveyExpMetaMem,3.2.3,Win32,60
,,,,,,,,,,,,,,,,,,,,6,2.403999805,9,0.472000122,1,0,1200,195,1,1199,laughing,11119,2019-10-21_17h25.35.408,SurveyExpMetaMem,3.2.3,Win32,60
,,,,,,,,,,,,,,,,,,,,5,1.661000013,5,0.137000084,1,0,1200,688,1,1199,jelly,11119,2019-10-21_17h25.35.408,SurveyExpMetaMem,3.2.3,Win32,60
,,,,,,,,,,,,,,,,,,,,3,2.48699975,2,1.107999802,1,0,1200,917,1,1199,slave,11119,2019-10-21_17h25.35.408,SurveyExpMetaMem,3.2.3,Win32,60
,,,,,,,,,,,,,,,,,,,,3,4.811999798,9,0.622999907,1,0,1200,884,1,1199,grateful,11119,2019-10-21_17h25.35.408,SurveyExpMetaMem,3.2.3,Win32,60
,,,,,,,,,,,,,,,,,,,,5,2.069000006,5,0.124999762,1,0,1200,519,1,1199,listless,11119,2019-10-21_17h25.35.408,SurveyExpMetaMem,3.2.3,Win32,60
,,,,,,,,,,,,,,,,,,,,2,2.105000019,1,0.388999939,1,0,1200,408,1,1199,bore,11119,2019-10-21_17h25.35.408,SurveyExpMetaMem,3.2.3,Win32,60
,,,,,,,,,,,,,,,,,,,,8,3.204999924,9,0.323999882,1,0,1200,289,1,1199,concert,11119,2019-10-21_17h25.35.408,SurveyExpMetaMem,3.2.3,Win32,60
,,,,,,,,,,,,,,,,,,,,5,1.157000065,5,0.110000134,1,0,1200,852,1,1199,caring,11119,2019-10-21_17h25.35.408,SurveyExpMetaMem,3.2.3,Win32,60
,,,,,,,,,,,,,,,,,,,,5,1.372999907,5,0.123000145,1,0,1200,467,1,1199,FALSE,11119,2019-10-21_17h25.35.408,SurveyExpMetaMem,3.2.3,Win32,60
,,,,,,,,,,,,,,,,,,,,2,4.471999884,8,0.788999796,1,0,1200,708,1,1199,nursery,11119,2019-10-21_17h25.35.408,SurveyExpMetaMem,3.2.3,Win32,60
,,,,,,,,,,,,,,,,,,,,2,2.566999912,2,0.43599987,1,0,1200,441,1,1199,prohibit,11119,2019-10-21_17h25.35.408,SurveyExpMetaMem,3.2.3,Win32,60
,,,,,,,,,,,,,,,,,,,,7,4.269999981,2,0.405999899,1,0,1200,1170,1,1199,police,11119,2019-10-21_17h25.35.408,SurveyExpMetaMem,3.2.3,Win32,60
,,,,,,,,,,,,,,,,,,,,7,2.10199976,5,0.559999943,1,0,1200,1112,1,1199,pressure,11119,2019-10-21_17h25.35.408,SurveyExpMetaMem,3.2.3,Win32,60
,,,,,,,,,,,,,,,,,,,,5,5.986999989,2,0.856999874,1,0,1200,405,1,1199,fatigued,11119,2019-10-21_17h25.35.408,SurveyExpMetaMem,3.2.3,Win32,60
,,,,,,,,,,,,,,,,,,,,5,1.871999979,2,0.23699975,1,0,1200,357,1,1199,whine,11119,2019-10-21_17h25.35.408,SurveyExpMetaMem,3.2.3,Win32,60
,,,,,,,,,,,,,,,,,,,,5,0.876999855,2,0.170999765,1,0,1200,391,1,1199,detach,11119,2019-10-21_17h25.35.408,SurveyExpMetaMem,3.2.3,Win32,60
,,,,,,,,,,,,,,,,,,,,5,1.072000027,5,0.119999886,1,0,1200,641,1,1199,writer,11119,2019-10-21_17h25.35.408,SurveyExpMetaMem,3.2.3,Win32,60
,,,,,,,,,,,,,,,,,,,,5,0.953999996,2,0.223999977,1,0,1200,1048,1,1199,paranoid,11119,2019-10-21_17h25.35.408,SurveyExpMetaMem,3.2.3,Win32,60
,,,,,,,,,,,,,,,,,,,,5,1.523000002,5,0.125,1,0,1200,834,1,1199,crown,11119,2019-10-21_17h25.35.408,SurveyExpMetaMem,3.2.3,Win32,60
,,,,,,,,,,,,,,,,,,,,5,1.087999821,2,0.690000057,1,0,1200,1022,1,1199,creepy,11119,2019-10-21_17h25.35.408,SurveyExpMetaMem,3.2.3,Win32,60
,,,,,,,,,,,,,,,,,,,,5,1.353999853,5,0.127999783,1,0,1200,720,1,1199,stable,11119,2019-10-21_17h25.35.408,SurveyExpMetaMem,3.2.3,Win32,60
,,,,,,,,,,,,,,,,,,,,5,1.005999804,1,0.546000004,1,0,1200,474,1,1199,weary,11119,2019-10-21_17h25.35.408,SurveyExpMetaMem,3.2.3,Win32,60
,,,,,,,,,,,,,,,,,,,,8,2.019000053,8,0.138000011,1,0,1200,58,1,1199,boost,11119,2019-10-21_17h25.35.408,SurveyExpMetaMem,3.2.3,Win32,60
,,,,,,,,,,,,,,,,,,,,5,1.532999992,1,0.463999748,1,0,1200,346,1,1199,alcoholism,11119,2019-10-21_17h25.35.408,SurveyExpMetaMem,3.2.3,Win32,60
,,,,,,,,,,,,,,,,,,,,7,2.569999933,1,0.455999851,1,0,1200,215,1,1199,salary,11119,2019-10-21_17h25.35.408,SurveyExpMetaMem,3.2.3,Win32,60
,,,,,,,,,,,,,,,,,,,,5,1.004999876,5,0.145999908,1,0,1200,679,1,1199,yellow,11119,2019-10-21_17h25.35.408,SurveyExpMetaMem,3.2.3,Win32,60
,,,,,,,,,,,,,,,,,,,,5,2.140000105,3,0.455999851,1,0,1200,1135,1,1199,thirsty,11119,2019-10-21_17h25.35.408,SurveyExpMetaMem,3.2.3,Win32,60
,,,,,,,,,,,,,,,,,,,,5,1.734999895,5,0.140999794,1,0,1200,227,1,1199,musician,11119,2019-10-21_17h25.35.408,SurveyExpMetaMem,3.2.3,Win32,60
,,,,,,,,,,,,,,,,,,,,5,1.554999828,3,3.806999922,1,0,1200,1177,1,1199,pang,11119,2019-10-21_17h25.35.408,SurveyExpMetaMem,3.2.3,Win32,60
,,,,,,,,,,,,,,,,,,,,2,4.009999752,2,0.448999882,1,0,1200,307,1,1199,sick,11119,2019-10-21_17h25.35.408,SurveyExpMetaMem,3.2.3,Win32,60
,,,,,,,,,,,,,,,,,,,,5,4.238999844,2,0.897999763,1,0,1200,384,1,1199,idiot,11119,2019-10-21_17h25.35.408,SurveyExpMetaMem,3.2.3,Win32,60
,,,,,,,,,,,,,,,,,,,,5,1.325999975,5,0.154000044,1,0,1200,121,1,1199,self,11119,2019-10-21_17h25.35.408,SurveyExpMetaMem,3.2.3,Win32,60
,,,,,,,,,,,,,,,,,,,,5,1.141000032,5,0.154000044,1,0,1200,704,1,1199,flute,11119,2019-10-21_17h25.35.408,SurveyExpMetaMem,3.2.3,Win32,60
,,,,,,,,,,,,,,,,,,,,5,0.939999819,5,0.143000126,1,0,1200,1153,1,1199,mangle,11119,2019-10-21_17h25.35.408,SurveyExpMetaMem,3.2.3,Win32,60
,,,,,,,,,,,,,,,,,,,,7,3.25999999,2,0.241999865,1,0,1200,1041,1,1199,sin,11119,2019-10-21_17h25.35.408,SurveyExpMetaMem,3.2.3,Win32,60
,,,,,,,,,,,,,,,,,,,,7,3.051000118,2,0.164999962,1,0,1200,5,1,1199,drunk,11119,2019-10-21_17h25.35.408,SurveyExpMetaMem,3.2.3,Win32,60
,,,,,,,,,,,,,,,,,,,,2,2.351999998,8,1.139999866,1,0,1200,784,1,1199,logical,11119,2019-10-21_17h25.35.408,SurveyExpMetaMem,3.2.3,Win32,60
,,,,,,,,,,,,,,,,,,,,2,5.005000114,2,0.555999994,1,0,1200,1154,1,1199,politics,11119,2019-10-21_17h25.35.408,SurveyExpMetaMem,3.2.3,Win32,60
,,,,,,,,,,,,,,,,,,,,2,1.24000001,8,0.520999908,1,0,1200,287,1,1199,optimistic,11119,2019-10-21_17h25.35.408,SurveyExpMetaMem,3.2.3,Win32,60
,,,,,,,,,,,,,,,,,,,,2,1.172999859,8,0.145999908,1,0,1200,871,1,1199,comfort,11119,2019-10-21_17h25.35.408,SurveyExpMetaMem,3.2.3,Win32,60
,,,,,,,,,,,,,,,,,,,,5,1.134999752,5,0.125999928,1,0,1200,662,1,1199,bib,11119,2019-10-21_17h25.35.408,SurveyExpMetaMem,3.2.3,Win32,60
,,,,,,,,,,,,,,,,,,,,2,1.969000101,2,0.172999859,1,0,1200,993,1,1199,remorse,11119,2019-10-21_17h25.35.408,SurveyExpMetaMem,3.2.3,Win32,60
,,,,,,,,,,,,,,,,,,,,5,1.423999786,5,0.138999939,1,0,1200,27,1,1199,gourmet,11119,2019-10-21_17h25.35.408,SurveyExpMetaMem,3.2.3,Win32,60
,,,,,,,,,,,,,,,,,,,,7,10.10500002,2,1.106999874,1,0,1200,1107,1,1199,snake,11119,2019-10-21_17h25.35.408,SurveyExpMetaMem,3.2.3,Win32,60
,,,,,,,,,,,,,,,,,,,,1,11.51300001,1,1.388999939,1,0,1200,935,1,1199,despise,11119,2019-10-21_17h25.35.408,SurveyExpMetaMem,3.2.3,Win32,60
,,,,,,,,,,,,,,,,,,,,8,1.670000076,2,0.940000057,1,0,1200,939,1,1199,vomit,11119,2019-10-21_17h25.35.408,SurveyExpMetaMem,3.2.3,Win32,60
,,,,,,,,,,,,,,,,,,,,2,1.155999899,2,1.821999788,1,0,1200,1143,1,1199,arrogant,11119,2019-10-21_17h25.35.408,SurveyExpMetaMem,3.2.3,Win32,60
,,,,,,,,,,,,,,,,,,,,2,1.340999842,2,0.194999933,1,0,1200,960,1,1199,irritated,11119,2019-10-21_17h25.35.408,SurveyExpMetaMem,3.2.3,Win32,60
,,,,,,,,,,,,,,,,,,,,2,1.333999872,2,0.174000025,1,0,1200,332,1,1199,sewage,11119,2019-10-21_17h25.35.408,SurveyExpMetaMem,3.2.3,Win32,60
,,,,,,,,,,,,,,,,,,,,2,1.32799983,2,0.197999954,1,0,1200,670,1,1199,urinate,11119,2019-10-21_17h25.35.408,SurveyExpMetaMem,3.2.3,Win32,60
,,,,,,,,,,,,,,,,,,,,2,1.136999846,2,0.174999714,1,0,1200,1069,1,1199,defeat,11119,2019-10-21_17h25.35.408,SurveyExpMetaMem,3.2.3,Win32,60
,,,,,,,,,,,,,,,,,,,,5,1.802999973,5,0.125999928,1,0,1200,879,1,1199,bird,11119,2019-10-21_17h25.35.408,SurveyExpMetaMem,3.2.3,Win32,60
,,,,,,,,,,,,,,,,,,,,5,0.937000036,5,0.133999825,1,0,1200,806,1,1199,tree,11119,2019-10-21_17h25.35.408,SurveyExpMetaMem,3.2.3,Win32,60
,,,,,,,,,,,,,,,,,,,,5,0.768999815,5,0.153000116,1,0,1200,678,1,1199,lightbulb,11119,2019-10-21_17h25.35.408,SurveyExpMetaMem,3.2.3,Win32,60
,,,,,,,,,,,,,,,,,,,,5,1.268999815,5,0.171999931,1,0,1200,731,1,1199,decency,11119,2019-10-21_17h25.35.408,SurveyExpMetaMem,3.2.3,Win32,60
,,,,,,,,,,,,,,,,,,,,7,1.768999815,7,0.124999762,1,0,1200,208,1,1199,wild,11119,2019-10-21_17h25.35.408,SurveyExpMetaMem,3.2.3,Win32,60
,,,,,,,,,,,,,,,,,,,,5,3.405999899,5,0.204999924,1,0,1200,156,1,1199,gym,11119,2019-10-21_17h25.35.408,SurveyExpMetaMem,3.2.3,Win32,60
,,,,,,,,,,,,,,,,,,,,1,9.621999979,1,3.407999992,1,0,1200,347,1,1199,unpleasant,11119,2019-10-21_17h25.35.408,SurveyExpMetaMem,3.2.3,Win32,60
,,,,,,,,,,,,,,,,,,,,5,1.328999996,5,0.138999939,1,0,1200,1085,1,1199,sever,11119,2019-10-21_17h25.35.408,SurveyExpMetaMem,3.2.3,Win32,60
,,,,,,,,,,,,,,,,,,,,5,0.795999765,5,0.154999733,1,0,1200,669,1,1199,plaza,11119,2019-10-21_17h25.35.408,SurveyExpMetaMem,3.2.3,Win32,60
,,,,,,,,,,,,,,,,,,,,5,0.773999929,5,0.355000019,1,0,1200,554,1,1199,label,11119,2019-10-21_17h25.35.408,SurveyExpMetaMem,3.2.3,Win32,60
,,,,,,,,,,,,,,,,,,,,1,4.173999786,8,0.572999954,1,0,1200,972,1,1199,homicide,11119,2019-10-21_17h25.35.408,SurveyExpMetaMem,3.2.3,Win32,60
,,,,,,,,,,,,,,,,,,,,5,2.838999987,5,0.121999979,1,0,1200,692,1,1199,medicine,11119,2019-10-21_17h25.35.408,SurveyExpMetaMem,3.2.3,Win32,60
,,,,,,,,,,,,,,,,,,,,1,3.420999765,2,2.461999893,1,0,1200,933,1,1199,afraid,11119,2019-10-21_17h25.35.408,SurveyExpMetaMem,3.2.3,Win32,60
,,,,,,,,,,,,,,,,,,,,8,2.003000021,8,0.123999834,1,0,1200,97,1,1199,enthusiastic,11119,2019-10-21_17h25.35.408,SurveyExpMetaMem,3.2.3,Win32,60
,,,,,,,,,,,,,,,,,,,,5,1.218999863,5,0.104999781,1,0,1200,634,1,1199,glacier,11119,2019-10-21_17h25.35.408,SurveyExpMetaMem,3.2.3,Win32,60
,,,,,,,,,,,,,,,,,,,,5,0.845999956,5,0.122999907,1,0,1200,512,1,1199,insect,11119,2019-10-21_17h25.35.408,SurveyExpMetaMem,3.2.3,Win32,60
,,,,,,,,,,,,,,,,,,,,1,1.671999931,8,0.771999836,1,0,1200,62,1,1199,interested,11119,2019-10-21_17h25.35.408,SurveyExpMetaMem,3.2.3,Win32,60
,,,,,,,,,,,,,,,,,,,,5,2.289999962,5,0.125,1,0,1200,463,1,1199,limp,11119,2019-10-21_17h25.35.408,SurveyExpMetaMem,3.2.3,Win32,60
,,,,,,,,,,,,,,,,,,,,8,2.253999949,2,0.888000011,1,0,1200,1138,1,1199,wail,11119,2019-10-21_17h25.35.408,SurveyExpMetaMem,3.2.3,Win32,60
,,,,,,,,,,,,,,,,,,,,2,2.718999863,8,1.190999985,1,0,1200,76,1,1199,midnight,11119,2019-10-21_17h25.35.408,SurveyExpMetaMem,3.2.3,Win32,60
,,,,,,,,,,,,,,,,,,,,2,4.003000021,2,3.542999744,1,0,1200,1002,1,1199,wounds,11119,2019-10-21_17h25.35.408,SurveyExpMetaMem,3.2.3,Win32,60
,,,,,,,,,,,,,,,,,,,,5,1.502999783,5,0.088999987,1,0,1200,4,1,1199,night,11119,2019-10-21_17h25.35.408,SurveyExpMetaMem,3.2.3,Win32,60
,,,,,,,,,,,,,,,,,,,,5,0.789999962,5,0.152999878,1,0,1200,762,1,1199,orchestra,11119,2019-10-21_17h25.35.408,SurveyExpMetaMem,3.2.3,Win32,60
,,,,,,,,,,,,,,,,,,,,5,1.436999798,5,0.124999762,1,0,1200,844,1,1199,soul,11119,2019-10-21_17h25.35.408,SurveyExpMetaMem,3.2.3,Win32,60
,,,,,,,,,,,,,,,,,,,,8,4.489999771,3,2.24000001,1,0,1200,1102,1,1199,nuclear,11119,2019-10-21_17h25.35.408,SurveyExpMetaMem,3.2.3,Win32,60
,,,,,,,,,,,,,,,,,,,,1,9.860999823,7,6.381999731,1,0,1200,827,1,1199,saint,11119,2019-10-21_17h25.35.408,SurveyExpMetaMem,3.2.3,Win32,60
,,,,,,,,,,,,,,,,,,,,1,2.154000044,1,1.123000145,1,0,1200,930,1,1199,poison,11119,2019-10-21_17h25.35.408,SurveyExpMetaMem,3.2.3,Win32,60
,,,,,,,,,,,,,,,,,,,,1,1.464999914,9,0.754999876,1,0,1200,843,1,1199,garden,11119,2019-10-21_17h25.35.408,SurveyExpMetaMem,3.2.3,Win32,60
,,,,,,,,,,,,,,,,,,,,5,2.437000036,5,0.114999771,1,0,1200,564,1,1199,wane,11119,2019-10-21_17h25.35.408,SurveyExpMetaMem,3.2.3,Win32,60
,,,,,,,,,,,,,,,,,,,,8,2.032999754,8,0.861999989,1,0,1200,104,1,1199,freeway,11119,2019-10-21_17h25.35.408,SurveyExpMetaMem,3.2.3,Win32,60
,,,,,,,,,,,,,,,,,,,,5,1.312999964,5,0.102999926,1,0,1200,760,1,1199,shrimp,11119,2019-10-21_17h25.35.408,SurveyExpMetaMem,3.2.3,Win32,60
,,,,,,,,,,,,,,,,,,,,4,5.904999971,2,1.006000042,1,0,1200,484,1,1199,leave,11119,2019-10-21_17h25.35.408,SurveyExpMetaMem,3.2.3,Win32,60
,,,,,,,,,,,,,,,,,,,,7,1.701999903,7,0.970000029,1,0,1200,1097,1,1199,bees,11119,2019-10-21_17h25.35.408,SurveyExpMetaMem,3.2.3,Win32,60
,,,,,,,,,,,,,,,,,,,,5,1.544999838,5,0.154999971,1,0,1200,6,1,1199,chest,11119,2019-10-21_17h25.35.408,SurveyExpMetaMem,3.2.3,Win32,60
,,,,,,,,,,,,,,,,,,,,7,5.24000001,8,1.586999893,1,0,1200,197,1,1199,happy,11119,2019-10-21_17h25.35.408,SurveyExpMetaMem,3.2.3,Win32,60
,,,,,,,,,,,,,,,,,,,,5,3.134000063,5,0.128000021,1,0,1200,356,1,1199,mucous,11119,2019-10-21_17h25.35.408,SurveyExpMetaMem,3.2.3,Win32,60
,,,,,,,,,,,,,,,,,,,,5,4.45299983,5,0.155999899,1,0,1200,868,1,1199,grace,11119,2019-10-21_17h25.35.408,SurveyExpMetaMem,3.2.3,Win32,60
,,,,,,,,,,,,,,,,,,,,2,4.566999912,8,0.960999966,1,0,1200,268,1,1199,tickle,11119,2019-10-21_17h25.35.408,SurveyExpMetaMem,3.2.3,Win32,60
,,,,,,,,,,,,,,,,,,,,5,1.085999966,5,0.109999895,1,0,1200,689,1,1199,land,11119,2019-10-21_17h25.35.408,SurveyExpMetaMem,3.2.3,Win32,60
,,,,,,,,,,,,,,,,,,,,7,2.270999908,7,1.406999826,1,0,1200,72,1,1199,attract,11119,2019-10-21_17h25.35.408,SurveyExpMetaMem,3.2.3,Win32,60
,,,,,,,,,,,,,,,,,,,,5,1.286999941,5,0.123999834,1,0,1200,437,1,1199,blubber,11119,2019-10-21_17h25.35.408,SurveyExpMetaMem,3.2.3,Win32,60
,,,,,,,,,,,,,,,,,,,,8,2.254999876,6,1.289999962,1,0,1200,250,1,1199,erupt,11119,2019-10-21_17h25.35.408,SurveyExpMetaMem,3.2.3,Win32,60
,,,,,,,,,,,,,,,,,,,,5,2.139999866,2,0.508999825,1,0,1200,392,1,1199,moody,11119,2019-10-21_17h25.35.408,SurveyExpMetaMem,3.2.3,Win32,60
,,,,,,,,,,,,,,,,,,,,8,1.769000053,2,0.837999821,1,0,1200,1159,1,1199,rifle,11119,2019-10-21_17h25.35.408,SurveyExpMetaMem,3.2.3,Win32,60
,,,,,,,,,,,,,,,,,,,,5,1.40199995,5,0.144000053,1,0,1200,790,1,1199,binoculars,11119,2019-10-21_17h25.35.408,SurveyExpMetaMem,3.2.3,Win32,60
,,,,,,,,,,,,,,,,,,,,5,0.680999994,5,0.153999805,1,0,1200,608,1,1199,carrot,11119,2019-10-21_17h25.35.408,SurveyExpMetaMem,3.2.3,Win32,60
,,,,,,,,,,,,,,,,,,,,2,2.307999849,2,0.322999954,1,0,1200,403,1,1199,wither,11119,2019-10-21_17h25.35.408,SurveyExpMetaMem,3.2.3,Win32,60
,,,,,,,,,,,,,,,,,,,,5,1.587000132,5,0.140000105,1,0,1200,632,1,1199,avenue,11119,2019-10-21_17h25.35.408,SurveyExpMetaMem,3.2.3,Win32,60
,,,,,,,,,,,,,,,,,,,,3,1.95600009,2,0.304999828,1,0,1200,968,1,1199,insult,11119,2019-10-21_17h25.35.408,SurveyExpMetaMem,3.2.3,Win32,60
,,,,,,,,,,,,,,,,,,,,3,6.753000021,7,0.526000023,1,0,1200,218,1,1199,charming,11119,2019-10-21_17h25.35.408,SurveyExpMetaMem,3.2.3,Win32,60
,,,,,,,,,,,,,,,,,,,,2,2.430999994,8,0.270999908,1,0,1200,793,1,1199,virtue,11119,2019-10-21_17h25.35.408,SurveyExpMetaMem,3.2.3,Win32,60
,,,,,,,,,,,,,,,,,,,,2,1.881000042,2,4.638999939,1,0,1200,422,1,1199,doubtful,11119,2019-10-21_17h25.35.408,SurveyExpMetaMem,3.2.3,Win32,60
,,,,,,,,,,,,,,,,,,,,5,1.296000004,5,0.171000004,1,0,1200,1032,1,1199,exam,11119,2019-10-21_17h25.35.408,SurveyExpMetaMem,3.2.3,Win32,60
,,,,,,,,,,,,,,,,,,,,2,1.853999853,9,1.092000008,1,0,1200,236,1,1199,amaze,11119,2019-10-21_17h25.35.408,SurveyExpMetaMem,3.2.3,Win32,60
,,,,,,,,,,,,,,,,,,,,5,6.16899991,5,0.136999846,1,0,1200,1117,1,1199,court,11119,2019-10-21_17h25.35.408,SurveyExpMetaMem,3.2.3,Win32,60
,,,,,,,,,,,,,,,,,,,,5,0.609999895,5,0.263000011,1,0,1200,592,1,1199,sweep,11119,2019-10-21_17h25.35.408,SurveyExpMetaMem,3.2.3,Win32,60
,,,,,,,,,,,,,,,,,,,,2,1.888000011,8,1.038999796,1,0,1200,371,1,1199,weakness,11119,2019-10-21_17h25.35.408,SurveyExpMetaMem,3.2.3,Win32,60
,,,,,,,,,,,,,,,,,,,,5,1.155999899,5,0.125999928,1,0,1200,769,1,1199,relate,11119,2019-10-21_17h25.35.408,SurveyExpMetaMem,3.2.3,Win32,60
,,,,,,,,,,,,,,,,,,,,2,1.905999899,2,1.513999939,1,0,1200,340,1,1199,coward,11119,2019-10-21_17h25.35.408,SurveyExpMetaMem,3.2.3,Win32,60
,,,,,,,,,,,,,,,,,,,,2,2.466999769,3,1.187999964,1,0,1200,542,1,1199,loose,11119,2019-10-21_17h25.35.408,SurveyExpMetaMem,3.2.3,Win32,60
,,,,,,,,,,,,,,,,,,,,5,1.151000023,5,0.105999947,1,0,1200,710,1,1199,gender,11119,2019-10-21_17h25.35.408,SurveyExpMetaMem,3.2.3,Win32,60
,,,,,,,,,,,,,,,,,,,,2,2.303999901,2,0.52699995,1,0,1200,306,1,1199,gloom,11119,2019-10-21_17h25.35.408,SurveyExpMetaMem,3.2.3,Win32,60
,,,,,,,,,,,,,,,,,,,,8,2.950999975,2,0.205999851,1,0,1200,1026,1,1199,crisis,11119,2019-10-21_17h25.35.408,SurveyExpMetaMem,3.2.3,Win32,60
,,,,,,,,,,,,,,,,,,,,5,1.893000126,5,0.123999834,1,0,1200,432,1,1199,resign,11119,2019-10-21_17h25.35.408,SurveyExpMetaMem,3.2.3,Win32,60
,,,,,,,,,,,,,,,,,,,,5,0.872999907,5,0.122999907,1,0,1200,351,1,1199,germs,11119,2019-10-21_17h25.35.408,SurveyExpMetaMem,3.2.3,Win32,60
,,,,,,,,,,,,,,,,,,,,2,2.960000038,7,1.674000025,1,0,1200,876,1,1199,politeness,11119,2019-10-21_17h25.35.408,SurveyExpMetaMem,3.2.3,Win32,60
,,,,,,,,,,,,,,,,,,,,2,2.223999977,1,0.471999884,1,0,1200,478,1,1199,numb,11119,2019-10-21_17h25.35.408,SurveyExpMetaMem,3.2.3,Win32,60
,,,,,,,,,,,,,,,,,,,,7,2.443999767,2,0.506999969,1,0,1200,444,1,1199,mold,11119,2019-10-21_17h25.35.408,SurveyExpMetaMem,3.2.3,Win32,60
,,,,,,,,,,,,,,,,,,,,1,2.713999987,7,1.686999798,1,0,1200,594,1,1199,moss,11119,2019-10-21_17h25.35.408,SurveyExpMetaMem,3.2.3,Win32,60
,,,,,,,,,,,,,,,,,,,,6,1.954999924,2,0.890000105,1,0,1200,1063,1,1199,quarrel,11119,2019-10-21_17h25.35.408,SurveyExpMetaMem,3.2.3,Win32,60
,,,,,,,,,,,,,,,,,,,,7,2.138999939,2,1.888999939,1,0,1200,1061,1,1199,difficult,11119,2019-10-21_17h25.35.408,SurveyExpMetaMem,3.2.3,Win32,60
,,,,,,,,,,,,,,,,,,,,5,4.888000011,5,0.126999855,1,0,1200,557,1,1199,class,11119,2019-10-21_17h25.35.408,SurveyExpMetaMem,3.2.3,Win32,60
,,,,,,,,,,,,,,,,,,,,2,1.917999983,7,1.016000032,1,0,1200,824,1,1199,favor,11119,2019-10-21_17h25.35.408,SurveyExpMetaMem,3.2.3,Win32,60
,,,,,,,,,,,,,,,,,,,,5,2.79399991,5,0.119999886,1,0,1200,460,1,1199,rag,11119,2019-10-21_17h25.35.408,SurveyExpMetaMem,3.2.3,Win32,60
,,,,,,,,,,,,,,,,,,,,8,2.31799984,8,0.970999956,1,0,1200,251,1,1199,meteor,11119,2019-10-21_17h25.35.408,SurveyExpMetaMem,3.2.3,Win32,60
,,,,,,,,,,,,,,,,,,,,7,5.684999943,7,0.654999733,1,0,1200,256,1,1199,galaxy,11119,2019-10-21_17h25.35.408,SurveyExpMetaMem,3.2.3,Win32,60
,,,,,,,,,,,,,,,,,,,,8,2.188999891,2,0.68900013,1,0,1200,918,1,1199,gunpoint,11119,2019-10-21_17h25.35.408,SurveyExpMetaMem,3.2.3,Win32,60
,,,,,,,,,,,,,,,,,,,,8,3.371000051,4,0.954999924,1,0,1200,38,1,1199,cheeseburger,11119,2019-10-21_17h25.35.408,SurveyExpMetaMem,3.2.3,Win32,60
,,,,,,,,,,,,,,,,,,,,8,2.451999903,2,0.754999876,1,0,1200,911,1,1199,rejection,11119,2019-10-21_17h25.35.408,SurveyExpMetaMem,3.2.3,Win32,60
,,,,,,,,,,,,,,,,,,,,2,12.64199996,2,1.282000065,1,0,1200,1089,1,1199,ridicule,11119,2019-10-21_17h25.35.408,SurveyExpMetaMem,3.2.3,Win32,60
,,,,,,,,,,,,,,,,,,,,5,1.30099988,9,1.06799984,1,0,1200,292,1,1199,birthday,11119,2019-10-21_17h25.35.408,SurveyExpMetaMem,3.2.3,Win32,60
,,,,,,,,,,,,,,,,,,,,2,2.388000011,8,0.888999939,1,0,1200,26,1,1199,inspired,11119,2019-10-21_17h25.35.408,SurveyExpMetaMem,3.2.3,Win32,60
,,,,,,,,,,,,,,,,,,,,2,4.386999846,8,0.172999859,1,0,1200,1188,1,1199,swear,11119,2019-10-21_17h25.35.408,SurveyExpMetaMem,3.2.3,Win32,60
,,,,,,,,,,,,,,,,,,,,2,5.670000076,2,1.889999866,1,0,1200,1039,1,1199,stalk,11119,2019-10-21_17h25.35.408,SurveyExpMetaMem,3.2.3,Win32,60
,,,,,,,,,,,,,,,,,,,,5,1.393999815,5,0.15899992,1,0,1200,677,1,1199,handwriting,11119,2019-10-21_17h25.35.408,SurveyExpMetaMem,3.2.3,Win32,60
,,,,,,,,,,,,,,,,,,,,8,1.886999846,8,0.325000048,1,0,1200,217,1,1199,bravery,11119,2019-10-21_17h25.35.408,SurveyExpMetaMem,3.2.3,Win32,60
,,,,,,,,,,,,,,,,,,,,1,4.203999996,1,4.951999903,1,0,1200,387,1,1199,tax,11119,2019-10-21_17h25.35.408,SurveyExpMetaMem,3.2.3,Win32,60
,,,,,,,,,,,,,,,,,,,,8,1.388999939,8,0.138000011,1,0,1200,1125,1,1199,outrage,11119,2019-10-21_17h25.35.408,SurveyExpMetaMem,3.2.3,Win32,60
,,,,,,,,,,,,,,,,,,,,2,0.36199975,3,3.071999788,1,0,1200,946,1,1199,amputate,11119,2019-10-21_17h25.35.408,SurveyExpMetaMem,3.2.3,Win32,60
