"","X","Accuracy","Arousal","Confidence","Confidence_RT","Expected","KeyPressed","LearningTime","LeftWord","MarkerStart","RT","RightWord","TrialNumber","Valence","nBlock","SUBJ","Cond","NA_Sum","NA_Sum_Pre","NA_Cat","NA_Cat_Pre","Dropped_Speed"
"1",1,"1","High",7,1.428,"right","right",90,"bolt",2,1.27559536069748,"dragon",0,"High",0,"Subject_11114.txt","A+V+",116,0.193333333333333,52,0.346666666666667,2
"2",2,"1","High",7,2.326,"left","left",90,"fuck",4,0.751604812801816,"body",1,"High",0,"Subject_11114.txt","A+V+",116,0.193333333333333,52,0.346666666666667,2
"3",3,"1","High",7,2.11,"left","left",90,"zealous",1,0.780924846971175,"dare",2,"High",0,"Subject_11114.txt","A+V+",116,0.193333333333333,52,0.346666666666667,2
"4",4,"1","High",7,1.177,"right","right",90,"lotion",3,1.0621230173565,"nudist",3,"High",0,"Subject_11114.txt","A+V+",116,0.193333333333333,52,0.346666666666667,2
"5",5,"1","High",7,1.644,"right","right",90,"alcohol",2,0.986738680338021,"night",4,"High",0,"Subject_11114.txt","A+V+",116,0.193333333333333,52,0.346666666666667,2
"6",8,"1","High",5,2.56,"right","right",90,"important",1,1.49222247244325,"duet",7,"High",0,"Subject_11114.txt","A+V+",116,0.193333333333333,52,0.346666666666667,2
"7",9,"1","High",7,1.06,"left","left",90,"extreme",5,0.791366636462044,"boost",8,"High",0,"Subject_11114.txt","A+V+",116,0.193333333333333,52,0.346666666666667,2
"8",10,"1","High",5,0.876,"right","right",90,"sports",5,1.07162036528462,"try",9,"High",0,"Subject_11114.txt","A+V+",116,0.193333333333333,52,0.346666666666667,2
"9",11,"0","High",2,0.938,"right","left",90,"bikini",2,2.29861099083791,"cheerleader",10,"High",0,"Subject_11114.txt","A+V+",116,0.193333333333333,52,0.346666666666667,2
"10",12,"1","High",7,1.243,"left","left",90,"astonished",5,1.37129609848489,"zoom",11,"High",0,"Subject_11114.txt","A+V+",116,0.193333333333333,52,0.346666666666667,2
"11",13,"1","High",7,1.143,"left","left",90,"mountain",5,0.973198583582416,"interested",12,"High",0,"Subject_11114.txt","A+V+",116,0.193333333333333,52,0.346666666666667,2
"12",14,"1","High",7,1.794,"right","right",90,"clothes",1,0.964717216120334,"mingle",13,"High",0,"Subject_11114.txt","A+V+",116,0.193333333333333,52,0.346666666666667,2
"13",15,"1","High",3,1.243,"left","left",90,"attain",2,1.52231499820482,"brain",14,"High",0,"Subject_11114.txt","A+V+",116,0.193333333333333,52,0.346666666666667,2
"14",16,"1","High",1,1.469,"left","left",90,"curiosity",6,2.96766250074143,"restaurant",15,"High",0,"Subject_11114.txt","A+V+",116,0.193333333333333,52,0.346666666666667,2
"15",17,"1","High",4,1.426,"right","right",90,"zest",4,1.57091363813379,"sing",16,"High",0,"Subject_11114.txt","A+V+",116,0.193333333333333,52,0.346666666666667,2
"16",18,"1","High",7,1.659,"right","right",90,"penthouse",2,1.78907514663297,"outgoing",17,"High",0,"Subject_11114.txt","A+V+",116,0.193333333333333,52,0.346666666666667,2
"17",19,"1","High",7,0.894,"right","right",90,"perfect",5,1.07247177424142,"mail",18,"High",0,"Subject_11114.txt","A+V+",116,0.193333333333333,52,0.346666666666667,2
"18",20,"1","High",7,1.411,"left","left",90,"firefighter",3,1.24357513475115,"special",19,"High",0,"Subject_11114.txt","A+V+",116,0.193333333333333,52,0.346666666666667,2
"19",21,"1","High",7,1.51,"right","right",90,"cartoon",2,1.29962825446273,"climax",20,"High",0,"Subject_11114.txt","A+V+",116,0.193333333333333,52,0.346666666666667,2
"20",22,"1","High",5,1.66,"right","right",90,"spirit",2,1.36634515874903,"game",21,"High",0,"Subject_11114.txt","A+V+",116,0.193333333333333,52,0.346666666666667,2
"21",23,"1","High",4,1.287,"left","left",90,"doughnut",5,2.49583342156257,"attract",22,"High",0,"Subject_11114.txt","A+V+",116,0.193333333333333,52,0.346666666666667,2
"22",24,"1","High",1,1.458,"right","right",90,"rhythm",6,1.89977883899701,"earn",23,"High",0,"Subject_11114.txt","A+V+",116,0.193333333333333,52,0.346666666666667,2
"23",25,"1","High",7,1.16,"left","left",90,"model",3,1.38969378152979,"explore",24,"High",0,"Subject_11114.txt","A+V+",116,0.193333333333333,52,0.346666666666667,2
"24",26,"0","High",2,1.503,"left","right",90,"charisma",2,2.75516571677872,"actor",25,"High",0,"Subject_11114.txt","A+V+",116,0.193333333333333,52,0.346666666666667,2
"25",27,"1","High",1,0.872,"right","right",90,"midnight",2,2.37202688577236,"inspired",26,"High",0,"Subject_11114.txt","A+V+",116,0.193333333333333,52,0.346666666666667,2
"26",28,"1","High",2,1.069,"right","right",90,"adore",3,2.95976018114015,"gourmet",27,"High",0,"Subject_11114.txt","A+V+",116,0.193333333333333,52,0.346666666666667,2
"27",31,"1","High",3,1.522,"left","left",90,"impressed",4,2.40573934311396,"wonderful",30,"High",0,"Subject_11114.txt","A+V+",116,0.193333333333333,52,0.346666666666667,2
"28",34,"1","High",7,0.927,"right","right",90,"appreciative",5,1.3963776944729,"sister",33,"High",0,"Subject_11114.txt","A+V+",116,0.193333333333333,52,0.346666666666667,2
"29",35,"0","High",3,2.041,"left","right",90,"personality",6,1.99506542118615,"eat",34,"High",0,"Subject_11114.txt","A+V+",116,0.193333333333333,52,0.346666666666667,2
"30",36,"0","High",2,0.706,"right","left",90,"like",2,2.17038315968239,"bright",35,"High",0,"Subject_11114.txt","A+V+",116,0.193333333333333,52,0.346666666666667,2
"31",37,"0","High",2,0.906,"left","right",90,"puppy",1,2.19286722061224,"talent",36,"High",0,"Subject_11114.txt","A+V+",116,0.193333333333333,52,0.346666666666667,2
"32",38,"1","High",6,1.56,"left","left",90,"magnificence",2,1.33061613905011,"cookie",37,"High",0,"Subject_11114.txt","A+V+",116,0.193333333333333,52,0.346666666666667,2
"33",39,"1","High",6,1.66,"left","left",90,"cheeseburger",1,1.32066998889786,"ambitious",38,"High",0,"Subject_11114.txt","A+V+",116,0.193333333333333,52,0.346666666666667,2
"34",40,"1","High",2,1.088,"right","right",90,"cruiseship",6,2.40768404581468,"birth",39,"High",0,"Subject_11114.txt","A+V+",116,0.193333333333333,52,0.346666666666667,2
"35",41,"1","High",7,1.227,"right","right",90,"satisfaction",3,1.28267514353502,"kissing",40,"High",0,"Subject_11114.txt","A+V+",116,0.193333333333333,52,0.346666666666667,2
"36",44,"1","High",3,1.176,"left","left",90,"diamond",5,1.79432956519304,"smiling",43,"High",0,"Subject_11114.txt","A+V+",116,0.193333333333333,52,0.346666666666667,2
"37",45,"1","High",6,1.089,"left","left",90,"diploma",5,2.43827798534767,"engaged",44,"High",0,"Subject_11114.txt","A+V+",116,0.193333333333333,52,0.346666666666667,2
"38",46,"1","High",7,0.994,"left","left",90,"sex",5,0.886204737238586,"giggle",45,"High",0,"Subject_11114.txt","A+V+",116,0.193333333333333,52,0.346666666666667,2
"39",47,"1","High",7,0.96,"left","left",90,"god",6,1.062279889622,"joke",46,"High",0,"Subject_11114.txt","A+V+",116,0.193333333333333,52,0.346666666666667,2
"40",48,"0","High",3,1.423,"left","right",90,"enjoy",5,1.98407923043123,"enthusiastic",47,"High",0,"Subject_11114.txt","A+V+",116,0.193333333333333,52,0.346666666666667,2
"41",49,"1","High",4,1.008,"left","left",90,"excellence",3,1.93183435316314,"affection",48,"High",0,"Subject_11114.txt","A+V+",116,0.193333333333333,52,0.346666666666667,2
"42",50,"1","High",1,1.006,"right","right",90,"funny",3,2.31097598923952,"ecstatic",49,"High",0,"Subject_11114.txt","A+V+",116,0.193333333333333,52,0.346666666666667,2
"43",51,"1","Low",1,1.104,"left","left",90,"roof",3,2.72090853736154,"lamp",0,"High",1,"Subject_11114.txt","A-V+",116,0.193333333333333,32,0.213333333333333,1
"44",52,"1","Low",7,0.86,"left","left",90,"greyhound",5,0.828691326081753,"herring",1,"High",1,"Subject_11114.txt","A-V+",116,0.193333333333333,32,0.213333333333333,1
"45",53,"1","Low",7,1.27,"right","right",90,"propeller",3,2.64716799059534,"lad",2,"High",1,"Subject_11114.txt","A-V+",116,0.193333333333333,32,0.213333333333333,1
"46",54,"1","Low",7,1.093,"left","left",90,"pulpit",3,0.855208191002021,"ceiling",3,"High",1,"Subject_11114.txt","A-V+",116,0.193333333333333,32,0.213333333333333,1
"47",55,"1","Low",7,0.91,"right","right",90,"introductory",6,1.17229770697304,"pan",4,"High",1,"Subject_11114.txt","A-V+",116,0.193333333333333,32,0.213333333333333,1
"48",56,"1","Low",7,1.026,"right","right",90,"website",6,1.61693816151819,"delicate",5,"High",1,"Subject_11114.txt","A-V+",116,0.193333333333333,32,0.213333333333333,1
"49",57,"1","Low",7,1.577,"right","right",90,"flock",1,1.06466216646368,"cabin",6,"High",1,"Subject_11114.txt","A-V+",116,0.193333333333333,32,0.213333333333333,1
"50",58,"1","Low",7,2.191,"left","left",90,"wear",1,1.87754404131556,"newspaper",7,"High",1,"Subject_11114.txt","A-V+",116,0.193333333333333,32,0.213333333333333,1
"51",59,"1","Low",7,1.027,"left","left",90,"bathroom",3,1.31221556878882,"native",8,"High",1,"Subject_11114.txt","A-V+",116,0.193333333333333,32,0.213333333333333,1
"52",60,"1","Low",7,1.11,"left","left",90,"hair",3,1.19407664475148,"brief",9,"High",1,"Subject_11114.txt","A-V+",116,0.193333333333333,32,0.213333333333333,1
"53",61,"1","Low",7,0.877,"left","left",90,"cow",4,1.08568593594828,"rock",10,"High",1,"Subject_11114.txt","A-V+",116,0.193333333333333,32,0.213333333333333,1
"54",62,"1","Low",7,1.093,"left","left",90,"urinate",3,0.840851331944577,"verify",11,"High",1,"Subject_11114.txt","A-V+",116,0.193333333333333,32,0.213333333333333,1
"55",63,"1","Low",7,1.41,"right","right",90,"fitting",2,1.23628009366803,"bedspread",12,"High",1,"Subject_11114.txt","A-V+",116,0.193333333333333,32,0.213333333333333,1
"56",64,"1","Low",5,1.924,"right","right",90,"fig",2,2.12318129235064,"lightbulb",13,"High",1,"Subject_11114.txt","A-V+",116,0.193333333333333,32,0.213333333333333,1
"57",65,"1","Low",7,1.493,"left","left",90,"phone",1,1.0064667299448,"jelly",14,"High",1,"Subject_11114.txt","A-V+",116,0.193333333333333,32,0.213333333333333,1
"58",66,"1","Low",7,1.344,"left","left",90,"circle",2,0.882273627561517,"key",15,"High",1,"Subject_11114.txt","A-V+",116,0.193333333333333,32,0.213333333333333,1
"59",67,"1","Low",7,1.51,"right","right",90,"clarinet",1,1.32315845123958,"oven",16,"High",1,"Subject_11114.txt","A-V+",116,0.193333333333333,32,0.213333333333333,1
"60",68,"1","Low",6,1.019,"left","left",90,"tolerant",2,2.94117771607125,"flute",17,"High",1,"Subject_11114.txt","A-V+",116,0.193333333333333,32,0.213333333333333,1
"61",69,"1","Low",7,1.126,"right","right",90,"sympathetic",3,1.23661404868471,"mobile",18,"High",1,"Subject_11114.txt","A-V+",116,0.193333333333333,32,0.213333333333333,1
"62",70,"0","Low",1,2.593,"left","right",90,"flow",2,1.38355459060404,"western",19,"High",1,"Subject_11114.txt","A-V+",116,0.193333333333333,32,0.213333333333333,1
"63",71,"1","Low",7,1.227,"right","right",90,"consoled",2,1.36917463378632,"stable",20,"High",1,"Subject_11114.txt","A-V+",116,0.193333333333333,32,0.213333333333333,1
"64",72,"1","Low",7,0.775,"left","left",90,"patio",6,1.23013192025246,"velvet",21,"High",1,"Subject_11114.txt","A-V+",116,0.193333333333333,32,0.213333333333333,1
"65",73,"0","Low",4,0.887,"left","right",90,"poetry",4,2.32299965419224,"humble",22,"High",1,"Subject_11114.txt","A-V+",116,0.193333333333333,32,0.213333333333333,1
"66",74,"1","Low",7,1.126,"left","left",90,"herbal",3,1.1117479034001,"horse",23,"High",1,"Subject_11114.txt","A-V+",116,0.193333333333333,32,0.213333333333333,1
"67",75,"0","Low",3,1.356,"right","left",90,"furniture",2,2.27841328686918,"proper",24,"High",1,"Subject_11114.txt","A-V+",116,0.193333333333333,32,0.213333333333333,1
"68",78,"1","Low",7,1.46,"right","right",90,"candid",2,1.26618238372612,"coin",27,"High",1,"Subject_11114.txt","A-V+",116,0.193333333333333,32,0.213333333333333,1
"69",79,"1","Low",7,0.754,"right","right",90,"practical",6,2.54097862623166,"rational",28,"High",1,"Subject_11114.txt","A-V+",116,0.193333333333333,32,0.213333333333333,1
"70",80,"1","Low",7,1.244,"right","right",90,"leaves",2,1.1721023384307,"doll",29,"High",1,"Subject_11114.txt","A-V+",116,0.193333333333333,32,0.213333333333333,1
"71",81,"1","Low",7,1.392,"right","right",90,"open",1,1.69039126954158,"grass",30,"High",1,"Subject_11114.txt","A-V+",116,0.193333333333333,32,0.213333333333333,1
"72",82,"0","Low",7,1.06,"right","left",90,"afternoon",4,1.57699765107827,"binoculars",31,"High",1,"Subject_11114.txt","A-V+",116,0.193333333333333,32,0.213333333333333,1
"73",83,"0","Low",1,1.377,"right","left",90,"hamburger",6,1.15896613165387,"rose",32,"High",1,"Subject_11114.txt","A-V+",116,0.193333333333333,32,0.213333333333333,1
"74",84,"1","Low",1,1.252,"left","left",90,"familiar",3,2.82550415661535,"precise",33,"High",1,"Subject_11114.txt","A-V+",116,0.193333333333333,32,0.213333333333333,1
"75",85,"1","Low",7,1.376,"right","right",90,"tree",4,1.75522346113576,"autumn",34,"High",1,"Subject_11114.txt","A-V+",116,0.193333333333333,32,0.213333333333333,1
"76",90,"1","Low",4,1.138,"left","left",90,"responsible",1,2.49729018416838,"crown",39,"High",1,"Subject_11114.txt","A-V+",116,0.193333333333333,32,0.213333333333333,1
"77",91,"1","Low",7,1.259,"right","right",90,"breathe",2,1.62457485691993,"honey",40,"High",1,"Subject_11114.txt","A-V+",116,0.193333333333333,32,0.213333333333333,1
"78",92,"1","Low",2,1.124,"right","right",90,"moon",3,1.92127226287266,"graceful",41,"High",1,"Subject_11114.txt","A-V+",116,0.193333333333333,32,0.213333333333333,1
"79",93,"1","Low",5,1.026,"left","left",90,"leisurely",5,1.57943382271333,"caring",42,"High",1,"Subject_11114.txt","A-V+",116,0.193333333333333,32,0.213333333333333,1
"80",94,"1","Low",7,0.893,"left","left",90,"serene",6,1.42487647512462,"silk",43,"High",1,"Subject_11114.txt","A-V+",116,0.193333333333333,32,0.213333333333333,1
"81",95,"1","Low",7,0.827,"right","right",90,"relaxed",5,1.18500371809932,"haven",44,"High",1,"Subject_11114.txt","A-V+",116,0.193333333333333,32,0.213333333333333,1
"82",96,"1","Low",7,1.343,"left","left",90,"fluffy",2,1.25453405734152,"comfort",45,"High",1,"Subject_11114.txt","A-V+",116,0.193333333333333,32,0.213333333333333,1
"83",97,"1","Low",3,1.788,"left","left",90,"bless",2,2.44146515478496,"protected",46,"High",1,"Subject_11114.txt","A-V+",116,0.193333333333333,32,0.213333333333333,1
"84",98,"1","Low",7,1.027,"right","right",90,"sunflower",3,1.37934855348431,"sky",47,"High",1,"Subject_11114.txt","A-V+",116,0.193333333333333,32,0.213333333333333,1
"85",99,"0","Low",2,1.309,"left","right",90,"kind",6,1.62601076741703,"nature",48,"High",1,"Subject_11114.txt","A-V+",116,0.193333333333333,32,0.213333333333333,1
"86",102,"1","High",7,0.96,"left","left",90,"terrorist",4,0.801944446051493,"syphilis",1,"Low",2,"Subject_11114.txt","A+V-",116,0.193333333333333,24,0.16,1
"87",103,"1","High",7,1.043,"right","right",90,"fail",5,1.02765795815503,"rabies",2,"Low",2,"Subject_11114.txt","A+V-",116,0.193333333333333,24,0.16,1
"88",104,"1","High",5,0.626,"right","right",90,"gunpoint",5,1.12814217695268,"hurt",3,"Low",2,"Subject_11114.txt","A+V-",116,0.193333333333333,24,0.16,1
"89",105,"1","High",4,1.202,"right","right",90,"mutilation",3,2.86104326145141,"disloyal",4,"Low",2,"Subject_11114.txt","A+V-",116,0.193333333333333,24,0.16,1
"90",106,"1","High",6,0.809,"right","right",90,"overweight",5,1.62789997132495,"afraid",5,"Low",2,"Subject_11114.txt","A+V-",116,0.193333333333333,24,0.16,1
"91",107,"1","High",7,0.96,"right","right",90,"war",4,1.32386261198553,"assault",6,"Low",2,"Subject_11114.txt","A+V-",116,0.193333333333333,24,0.16,1
"92",108,"1","High",7,1.527,"left","left",90,"demon",1,0.916939829709008,"trauma",7,"Low",2,"Subject_11114.txt","A+V-",116,0.193333333333333,24,0.16,1
"93",109,"1","High",7,1.293,"left","left",90,"murder",2,1.09264124758192,"troubled",8,"Low",2,"Subject_11114.txt","A+V-",116,0.193333333333333,24,0.16,1
"94",110,"1","High",7,1.143,"right","right",90,"divorce",3,1.4110341827618,"crushed",9,"Low",2,"Subject_11114.txt","A+V-",116,0.193333333333333,24,0.16,1
"95",111,"1","High",3,1.303,"right","right",90,"poisonous",6,2.88995138561586,"traffic",10,"Low",2,"Subject_11114.txt","A+V-",116,0.193333333333333,24,0.16,1
"96",112,"0","High",2,2.127,"right","left",90,"crash",4,1.12582855176879,"whore",11,"Low",2,"Subject_11114.txt","A+V-",116,0.193333333333333,24,0.16,1
"97",113,"1","High",4,1.494,"left","left",90,"anger",1,1.28574137057876,"insecure",12,"Low",2,"Subject_11114.txt","A+V-",116,0.193333333333333,24,0.16,1
"98",114,"1","High",3,0.69,"left","left",90,"robbery",3,2.0724685661844,"starving",13,"Low",2,"Subject_11114.txt","A+V-",116,0.193333333333333,24,0.16,1
"99",115,"1","High",5,1.507,"left","left",90,"banish",1,2.03646333585493,"pollution",14,"Low",2,"Subject_11114.txt","A+V-",116,0.193333333333333,24,0.16,1
"100",116,"1","High",2,0.926,"left","left",90,"repulsed",4,1.62220092094503,"cult",15,"Low",2,"Subject_11114.txt","A+V-",116,0.193333333333333,24,0.16,1
"101",117,"1","High",4,0.975,"right","right",90,"rude",5,1.70821086713113,"burdened",16,"Low",2,"Subject_11114.txt","A+V-",116,0.193333333333333,24,0.16,1
"102",118,"1","High",7,1.324,"right","right",90,"jealousy",2,1.90730421605986,"rash",17,"Low",2,"Subject_11114.txt","A+V-",116,0.193333333333333,24,0.16,1
"103",119,"1","High",6,1.742,"left","left",90,"gang",3,1.68566617456963,"robber",18,"Low",2,"Subject_11114.txt","A+V-",116,0.193333333333333,24,0.16,1
"104",120,"1","High",6,1.441,"left","left",90,"frighten",6,1.910478874197,"destroy",19,"Low",2,"Subject_11114.txt","A+V-",116,0.193333333333333,24,0.16,1
"105",121,"1","High",6,0.509,"left","left",90,"burn",6,1.52513934043236,"creepy",20,"Low",2,"Subject_11114.txt","A+V-",116,0.193333333333333,24,0.16,1
"106",122,"1","High",3,1.226,"left","left",90,"fear",6,1.49373505462427,"criticism",21,"Low",2,"Subject_11114.txt","A+V-",116,0.193333333333333,24,0.16,1
"107",123,"1","High",7,0.876,"left","left",90,"expel",5,1.28366706383531,"scared",22,"Low",2,"Subject_11114.txt","A+V-",116,0.193333333333333,24,0.16,1
"108",124,"1","High",6,1.026,"right","right",90,"communism",3,1.55734691480757,"scold",23,"Low",2,"Subject_11114.txt","A+V-",116,0.193333333333333,24,0.16,1
"109",125,"1","High",4,1.606,"right","right",90,"psycho",2,2.25053333357209,"paranoid",24,"Low",2,"Subject_11114.txt","A+V-",116,0.193333333333333,24,0.16,1
"110",126,"1","High",7,0.96,"left","left",90,"scorn",6,1.01027946360409,"surgery",25,"Low",2,"Subject_11114.txt","A+V-",116,0.193333333333333,24,0.16,1
"111",127,"1","High",3,0.905,"right","right",90,"difficult",1,2.33076467044884,"dent",26,"Low",2,"Subject_11114.txt","A+V-",116,0.193333333333333,24,0.16,1
"112",128,"1","High",1,0.555,"left","left",90,"wicked",1,2.35842102460447,"quarrel",27,"Low",2,"Subject_11114.txt","A+V-",116,0.193333333333333,24,0.16,1
"113",129,"1","High",5,1.193,"right","right",90,"bitch",1,1.55282296275254,"bothered",28,"Low",2,"Subject_11114.txt","A+V-",116,0.193333333333333,24,0.16,1
"114",130,"1","High",3,1.372,"right","right",90,"detain",4,2.36166978804977,"trouble",29,"Low",2,"Subject_11114.txt","A+V-",116,0.193333333333333,24,0.16,1
"115",131,"1","High",1,0.82,"left","left",90,"hazard",3,2.68028054790921,"sever",30,"Low",2,"Subject_11114.txt","A+V-",116,0.193333333333333,24,0.16,1
"116",134,"1","High",7,0.977,"right","right",90,"mob",4,1.24057499296032,"nuclear",33,"Low",2,"Subject_11114.txt","A+V-",116,0.193333333333333,24,0.16,1
"117",137,"1","High",5,0.977,"right","right",90,"frantic",2,1.39332718675723,"emergency",36,"Low",2,"Subject_11114.txt","A+V-",116,0.193333333333333,24,0.16,1
"118",138,"1","High",7,0.86,"left","left",90,"gossip",5,0.991158371674828,"haunt",37,"Low",2,"Subject_11114.txt","A+V-",116,0.193333333333333,24,0.16,1
"119",139,"0","High",1,0.969,"left","right",90,"spanking",3,2.88978745575878,"anarchy",38,"Low",2,"Subject_11114.txt","A+V-",116,0.193333333333333,24,0.16,1
"120",142,"0","High",1,0.686,"right","left",90,"forceful",1,2.70740372885484,"fight",41,"Low",2,"Subject_11114.txt","A+V-",116,0.193333333333333,24,0.16,1
"121",143,"1","High",7,1.46,"right","right",90,"tangle",1,1.35421017545741,"mangle",42,"Low",2,"Subject_11114.txt","A+V-",116,0.193333333333333,24,0.16,1
"122",144,"1","High",2,2.007,"left","left",90,"baffle",3,1.96413399779703,"shock",43,"Low",2,"Subject_11114.txt","A+V-",116,0.193333333333333,24,0.16,1
"123",145,"1","High",2,1.01,"left","left",90,"revolt",5,1.59061602354632,"battle",44,"Low",2,"Subject_11114.txt","A+V-",116,0.193333333333333,24,0.16,1
"124",146,"1","High",7,1.16,"right","right",90,"police",2,1.33710853316006,"chaos",45,"Low",2,"Subject_11114.txt","A+V-",116,0.193333333333333,24,0.16,1
"125",147,"1","High",7,1.193,"left","left",90,"vampire",3,1.14613244126667,"pang",46,"Low",2,"Subject_11114.txt","A+V-",116,0.193333333333333,24,0.16,1
"126",148,"1","High",7,1.276,"left","left",90,"reckless",3,1.34592995091225,"emotional",47,"Low",2,"Subject_11114.txt","A+V-",116,0.193333333333333,24,0.16,1
"127",149,"1","High",7,0.81,"left","left",90,"lava",6,0.853046626027208,"clench",48,"Low",2,"Subject_11114.txt","A+V-",116,0.193333333333333,24,0.16,1
"128",150,"1","High",7,0.91,"right","right",90,"speech",6,1.06470226673991,"lightning",49,"Low",2,"Subject_11114.txt","A+V-",116,0.193333333333333,24,0.16,1
"129",151,"1","Low",7,1.312,"left","left",30,"vegetable",2,1.10899285445339,"mane",0,"High",3,"Subject_11114.txt","A-V+",116,0.193333333333333,32,0.213333333333333,1
"130",152,"0","Low",2,1.373,"right","left",30,"carrot",6,1.20008687322843,"easel",1,"High",3,"Subject_11114.txt","A-V+",116,0.193333333333333,32,0.213333333333333,1
"131",153,"1","Low",1,0.86,"right","right",30,"cup",3,1.50875597415143,"coat",2,"High",3,"Subject_11114.txt","A-V+",116,0.193333333333333,32,0.213333333333333,1
"132",154,"1","Low",1,1.093,"left","left",30,"chew",4,1.43855932884617,"suburban",3,"High",3,"Subject_11114.txt","A-V+",116,0.193333333333333,32,0.213333333333333,1
"133",155,"1","Low",7,1.31,"left","left",30,"chess",1,0.871526434406405,"hat",4,"High",3,"Subject_11114.txt","A-V+",116,0.193333333333333,32,0.213333333333333,1
"134",156,"1","Low",1,0.792,"left","left",30,"sensitive",2,1.78431668819394,"cattle",5,"High",3,"Subject_11114.txt","A-V+",116,0.193333333333333,32,0.213333333333333,1
"135",157,"1","Low",2,0.86,"left","left",30,"outlet",3,1.40405513177393,"refine",6,"High",3,"Subject_11114.txt","A-V+",116,0.193333333333333,32,0.213333333333333,1
"136",158,"0","Low",1,1.06,"right","left",30,"telescope",5,1.55155066141742,"farm",7,"High",3,"Subject_11114.txt","A-V+",116,0.193333333333333,32,0.213333333333333,1
"137",159,"1","Low",3,0.843,"right","right",30,"beads",2,1.48777326729032,"tend",8,"High",3,"Subject_11114.txt","A-V+",116,0.193333333333333,32,0.213333333333333,1
"138",160,"1","Low",3,1.243,"left","left",30,"number",6,1.27199146922794,"method",9,"High",3,"Subject_11114.txt","A-V+",116,0.193333333333333,32,0.213333333333333,1
"139",161,"1","Low",4,0.843,"right","right",30,"quiet",5,1.4589636293822,"read",10,"High",3,"Subject_11114.txt","A-V+",116,0.193333333333333,32,0.213333333333333,1
"140",162,"1","Low",2,0.841,"right","right",30,"dew",3,1.85496053172392,"windmill",11,"High",3,"Subject_11114.txt","A-V+",116,0.193333333333333,32,0.213333333333333,1
"141",163,"1","Low",1,1.442,"left","left",30,"golfer",6,1.86263026972301,"straighten",12,"High",3,"Subject_11114.txt","A-V+",116,0.193333333333333,32,0.213333333333333,1
"142",164,"1","Low",2,1.088,"left","left",30,"candle",5,2.41224328608951,"scarf",13,"High",3,"Subject_11114.txt","A-V+",116,0.193333333333333,32,0.213333333333333,1
"143",165,"1","Low",3,0.672,"right","right",30,"land",3,2.27406705918838,"send",14,"High",3,"Subject_11114.txt","A-V+",116,0.193333333333333,32,0.213333333333333,1
"144",166,"0","Low",4,0.841,"right","left",30,"teacher",5,1.94028492362122,"pecan",15,"High",3,"Subject_11114.txt","A-V+",116,0.193333333333333,32,0.213333333333333,1
"145",167,"1","Low",7,1.227,"left","left",30,"rink",2,1.27969681628747,"leg",16,"High",3,"Subject_11114.txt","A-V+",116,0.193333333333333,32,0.213333333333333,1
"146",168,"1","Low",1,1.193,"left","left",30,"cat",6,1.30806342643336,"den",17,"High",3,"Subject_11114.txt","A-V+",116,0.193333333333333,32,0.213333333333333,1
"147",169,"1","Low",7,1.076,"right","right",30,"harvest",3,1.6706295357435,"gender",18,"High",3,"Subject_11114.txt","A-V+",116,0.193333333333333,32,0.213333333333333,1
"148",170,"1","Low",2,1.141,"right","right",30,"sheltered",6,1.87268870061962,"modest",19,"High",3,"Subject_11114.txt","A-V+",116,0.193333333333333,32,0.213333333333333,1
"149",171,"1","Low",7,1.06,"left","left",30,"cinnamon",3,1.2967615663656,"owl",20,"High",3,"Subject_11114.txt","A-V+",116,0.193333333333333,32,0.213333333333333,1
"150",172,"1","Low",3,0.76,"right","right",30,"crackers",5,1.40991522482364,"slogan",21,"High",3,"Subject_11114.txt","A-V+",116,0.193333333333333,32,0.213333333333333,1
"151",173,"0","Low",2,1.125,"left","right",30,"piano",5,1.86526950911502,"lamb",22,"High",3,"Subject_11114.txt","A-V+",116,0.193333333333333,32,0.213333333333333,1
"152",174,"1","Low",6,1.144,"left","left",30,"groceries",4,1.32170938790659,"window",23,"High",3,"Subject_11114.txt","A-V+",116,0.193333333333333,32,0.213333333333333,1
"153",175,"1","Low",2,0.977,"right","right",30,"inform",5,1.45015472287196,"town",24,"High",3,"Subject_11114.txt","A-V+",116,0.193333333333333,32,0.213333333333333,1
"154",176,"1","Low",7,1.326,"right","right",30,"listen",1,1.10873268390424,"porpoise",25,"High",3,"Subject_11114.txt","A-V+",116,0.193333333333333,32,0.213333333333333,1
"155",177,"1","Low",1,0.92,"left","left",30,"prefer",2,2.62770235718926,"corn",26,"High",3,"Subject_11114.txt","A-V+",116,0.193333333333333,32,0.213333333333333,1
"156",178,"1","Low",7,0.96,"left","left",30,"vegetables",6,0.949832637503278,"orchestra",27,"High",3,"Subject_11114.txt","A-V+",116,0.193333333333333,32,0.213333333333333,1
"157",179,"0","Low",3,1.177,"left","right",30,"relate",5,1.52598433330422,"buffalo",28,"High",3,"Subject_11114.txt","A-V+",116,0.193333333333333,32,0.213333333333333,1
"158",180,"1","Low",7,1.343,"left","left",30,"adorn",1,1.16205192761845,"pancakes",29,"High",3,"Subject_11114.txt","A-V+",116,0.193333333333333,32,0.213333333333333,1
"159",181,"1","Low",7,1.277,"right","right",30,"logical",2,1.30867776257219,"pond",30,"High",3,"Subject_11114.txt","A-V+",116,0.193333333333333,32,0.213333333333333,1
"160",182,"0","Low",2,0.99,"right","left",30,"dawn",3,2.05817265957012,"green",31,"High",3,"Subject_11114.txt","A-V+",116,0.193333333333333,32,0.213333333333333,1
"161",183,"0","Low",1,1.258,"right","left",30,"moral",2,1.88266853502137,"soup",32,"High",3,"Subject_11114.txt","A-V+",116,0.193333333333333,32,0.213333333333333,1
"162",184,"1","Low",1,1.139,"left","left",30,"tidy",5,2.26410583133111,"crystal",33,"High",3,"Subject_11114.txt","A-V+",116,0.193333333333333,32,0.213333333333333,1
"163",185,"1","Low",1,0.975,"right","right",30,"violinist",4,1.71214133515605,"person",34,"High",3,"Subject_11114.txt","A-V+",116,0.193333333333333,32,0.213333333333333,1
"164",186,"1","Low",1,1.193,"left","left",30,"polite",6,1.35642884319532,"tenderness",35,"High",3,"Subject_11114.txt","A-V+",116,0.193333333333333,32,0.213333333333333,1
"165",187,"1","Low",3,0.942,"right","right",30,"sheep",1,1.85282046050997,"oxygen",36,"High",3,"Subject_11114.txt","A-V+",116,0.193333333333333,32,0.213333333333333,1
"166",188,"1","Low",2,0.974,"left","left",30,"saint",3,1.97247838272597,"clearer",37,"High",3,"Subject_11114.txt","A-V+",116,0.193333333333333,32,0.213333333333333,1
"167",189,"0","Low",4,1.61,"right","left",30,"innocent",5,0.97951806531637,"pear",38,"High",3,"Subject_11114.txt","A-V+",116,0.193333333333333,32,0.213333333333333,1
"168",190,"0","Low",1,0.989,"left","right",30,"lounge",5,2.27609324562945,"nestle",39,"High",3,"Subject_11114.txt","A-V+",116,0.193333333333333,32,0.213333333333333,1
"169",191,"0","Low",1,0.906,"right","left",30,"cuisine",4,2.11281392897945,"bathtub",40,"High",3,"Subject_11114.txt","A-V+",116,0.193333333333333,32,0.213333333333333,1
"170",192,"1","Low",1,1.173,"right","right",30,"able",6,2.15317629426136,"lake",41,"High",3,"Subject_11114.txt","A-V+",116,0.193333333333333,32,0.213333333333333,1
"171",193,"1","Low",1,0.743,"right","right",30,"girl",1,1.19287491988507,"breeze",42,"High",3,"Subject_11114.txt","A-V+",116,0.193333333333333,32,0.213333333333333,1
"172",194,"1","Low",3,0.96,"right","right",30,"donate",4,1.49064637141419,"nectar",43,"High",3,"Subject_11114.txt","A-V+",116,0.193333333333333,32,0.213333333333333,1
"173",195,"1","Low",1,0.857,"left","left",30,"assure",4,1.95879424584564,"grace",44,"High",3,"Subject_11114.txt","A-V+",116,0.193333333333333,32,0.213333333333333,1
"174",196,"1","Low",7,1.244,"right","right",30,"safe",1,1.35835333535215,"butterfly",45,"High",3,"Subject_11114.txt","A-V+",116,0.193333333333333,32,0.213333333333333,1
"175",197,"0","Low",2,0.942,"left","right",30,"bird",5,1.85625304360292,"politeness",46,"High",3,"Subject_11114.txt","A-V+",116,0.193333333333333,32,0.213333333333333,1
"176",198,"1","Low",2,0.808,"left","left",30,"grateful",2,1.79072503212956,"cozy",47,"High",3,"Subject_11114.txt","A-V+",116,0.193333333333333,32,0.213333333333333,1
"177",199,"0","Low",1,0.906,"right","left",30,"refreshment",3,2.08503727402422,"wise",48,"High",3,"Subject_11114.txt","A-V+",116,0.193333333333333,32,0.213333333333333,1
"178",200,"1","Low",3,0.826,"left","left",30,"relax",4,1.33313860642374,"kindness",49,"High",3,"Subject_11114.txt","A-V+",116,0.193333333333333,32,0.213333333333333,1
"179",201,"1","High",3,0.993,"right","right",30,"vodka",5,1.41222179235774,"intense",0,"High",4,"Subject_11114.txt","A+V+",116,0.193333333333333,52,0.346666666666667,2
"180",202,"1","High",6,1.293,"left","left",30,"alien",2,0.888802593108267,"react",1,"High",4,"Subject_11114.txt","A+V+",116,0.193333333333333,52,0.346666666666667,2
"181",203,"1","High",1,1.177,"left","left",30,"motorcycle",5,1.35612472274806,"hire",2,"High",4,"Subject_11114.txt","A+V+",116,0.193333333333333,52,0.346666666666667,2
"182",204,"0","High",1,1.09,"left","right",30,"conquest",5,2.01250422655721,"teach",3,"High",4,"Subject_11114.txt","A+V+",116,0.193333333333333,52,0.346666666666667,2
"183",205,"1","High",7,1.143,"right","right",30,"race",2,1.27195265216869,"freeway",4,"High",4,"Subject_11114.txt","A+V+",116,0.193333333333333,52,0.346666666666667,2
"184",206,"1","High",1,0.809,"right","right",30,"ignite",4,1.65572538820561,"curious",5,"High",4,"Subject_11114.txt","A+V+",116,0.193333333333333,52,0.346666666666667,2
"185",207,"1","High",7,1.277,"left","left",30,"voyage",2,1.02024839070509,"gym",6,"High",4,"Subject_11114.txt","A+V+",116,0.193333333333333,52,0.346666666666667,2
"186",208,"1","High",7,1.376,"left","left",30,"sandwich",1,0.925066069205059,"reveal",7,"High",4,"Subject_11114.txt","A+V+",116,0.193333333333333,52,0.346666666666667,2
"187",209,"1","High",7,0.76,"left","left",30,"naked",5,0.943984093348263,"engage",8,"High",4,"Subject_11114.txt","A+V+",116,0.193333333333333,52,0.346666666666667,2
"188",210,"1","High",7,0.893,"left","left",30,"new",4,1.5882491452212,"teenager",9,"High",4,"Subject_11114.txt","A+V+",116,0.193333333333333,52,0.346666666666667,2
"189",211,"1","High",1,0.808,"left","left",30,"animal",3,1.85556331896805,"reunion",10,"High",4,"Subject_11114.txt","A+V+",116,0.193333333333333,52,0.346666666666667,2
"190",212,"0","High",2,1.69,"right","left",30,"limousine",5,2.13040543621173,"band",11,"High",4,"Subject_11114.txt","A+V+",116,0.193333333333333,52,0.346666666666667,2
"191",213,"0","High",5,0.81,"right","left",30,"royalty",3,1.2058058133116,"jaguar",12,"High",4,"Subject_11114.txt","A+V+",116,0.193333333333333,52,0.346666666666667,2
"192",214,"1","High",1,0.843,"left","left",30,"bridesmaid",2,1.67108860364533,"gem",13,"High",4,"Subject_11114.txt","A+V+",116,0.193333333333333,52,0.346666666666667,2
"193",215,"0","High",1,1.29,"left","right",30,"raise",6,2.11375676651369,"marry",14,"High",4,"Subject_11114.txt","A+V+",116,0.193333333333333,52,0.346666666666667,2
"194",216,"1","High",7,1.043,"right","right",30,"sizzle",3,1.21490953699686,"sexual",15,"High",4,"Subject_11114.txt","A+V+",116,0.193333333333333,52,0.346666666666667,2
"195",217,"0","High",7,0.693,"right","left",30,"unite",5,1.04048459092155,"carnival",16,"High",4,"Subject_11114.txt","A+V+",116,0.193333333333333,52,0.346666666666667,2
"196",220,"0","High",2,1.11,"right","left",30,"aid",6,1.37483903751126,"stereo",19,"High",4,"Subject_11114.txt","A+V+",116,0.193333333333333,52,0.346666666666667,2
"197",221,"1","High",1,1.093,"left","left",30,"imaginative",5,1.64620558414026,"entertainment",20,"High",4,"Subject_11114.txt","A+V+",116,0.193333333333333,52,0.346666666666667,2
"198",222,"0","High",1,1.155,"right","left",30,"imagination",6,2.38617618582794,"self",21,"High",4,"Subject_11114.txt","A+V+",116,0.193333333333333,52,0.346666666666667,2
"199",223,"0","High",1,0.774,"right","left",30,"potential",1,1.87628200562904,"prince",22,"High",4,"Subject_11114.txt","A+V+",116,0.193333333333333,52,0.346666666666667,2
"200",224,"1","High",2,1.226,"left","left",30,"favorite",3,1.57976360729663,"hope",23,"High",4,"Subject_11114.txt","A+V+",116,0.193333333333333,52,0.346666666666667,2
"201",225,"1","High",2,0.975,"left","left",30,"honeymoon",1,1.78885539714247,"snow",24,"High",4,"Subject_11114.txt","A+V+",116,0.193333333333333,52,0.346666666666667,2
"202",226,"1","High",1,1.322,"left","left",30,"dancing",5,2.47780498181237,"playground",25,"High",4,"Subject_11114.txt","A+V+",116,0.193333333333333,52,0.346666666666667,2
"203",227,"1","High",1,1.258,"right","right",30,"champ",1,1.83906061426387,"rich",26,"High",4,"Subject_11114.txt","A+V+",116,0.193333333333333,52,0.346666666666667,2
"204",228,"1","High",6,0.927,"left","left",30,"glamorous",6,1.44090471341042,"frosting",27,"High",4,"Subject_11114.txt","A+V+",116,0.193333333333333,52,0.346666666666667,2
"205",229,"1","High",7,0.943,"left","left",30,"supper",4,1.37066828864045,"alive",28,"High",4,"Subject_11114.txt","A+V+",116,0.193333333333333,52,0.346666666666667,2
"206",230,"1","High",7,1.11,"right","right",30,"star",3,1.11188039468834,"fly",29,"High",4,"Subject_11114.txt","A+V+",116,0.193333333333333,52,0.346666666666667,2
"207",231,"0","High",2,0.792,"right","left",30,"embrace",5,1.69142681892845,"great",30,"High",4,"Subject_11114.txt","A+V+",116,0.193333333333333,52,0.346666666666667,2
"208",232,"0","High",2,0.66,"right","left",30,"fascinate",2,1.29963884095196,"treat",31,"High",4,"Subject_11114.txt","A+V+",116,0.193333333333333,52,0.346666666666667,2
"209",233,"0","High",1,1.008,"right","left",30,"genius",5,1.87304286623839,"silly",32,"High",4,"Subject_11114.txt","A+V+",116,0.193333333333333,52,0.346666666666667,2
"210",234,"0","High",7,1.51,"left","right",30,"prosperous",1,1.58772174647311,"congratulate",33,"High",4,"Subject_11114.txt","A+V+",116,0.193333333333333,52,0.346666666666667,2
"211",235,"0","High",1,1.024,"left","right",30,"dollar",4,1.94211991198245,"surprised",34,"High",4,"Subject_11114.txt","A+V+",116,0.193333333333333,52,0.346666666666667,2
"212",236,"1","High",1,0.992,"right","right",30,"flirt",4,1.64761550963158,"applause",35,"High",4,"Subject_11114.txt","A+V+",116,0.193333333333333,52,0.346666666666667,2
"213",237,"1","High",1,0.792,"right","right",30,"holiday",3,1.58115717186593,"dog",36,"High",4,"Subject_11114.txt","A+V+",116,0.193333333333333,52,0.346666666666667,2
"214",238,"1","High",1,0.926,"right","right",30,"excite",5,1.62605920853093,"money",37,"High",4,"Subject_11114.txt","A+V+",116,0.193333333333333,52,0.346666666666667,2
"215",239,"1","High",1,1.125,"right","right",30,"profit",6,1.84626711401506,"blessings",38,"High",4,"Subject_11114.txt","A+V+",116,0.193333333333333,52,0.346666666666667,2
"216",240,"1","High",1,0.91,"left","left",30,"generosity",4,1.44962219128502,"thoughtful",39,"High",4,"Subject_11114.txt","A+V+",116,0.193333333333333,52,0.346666666666667,2
"217",241,"1","High",1,1.092,"right","right",30,"rescue",6,1.73192744996049,"riches",40,"High",4,"Subject_11114.txt","A+V+",116,0.193333333333333,52,0.346666666666667,2
"218",242,"0","High",1,0.643,"right","left",30,"compassion",1,1.44506230941624,"surprise",41,"High",4,"Subject_11114.txt","A+V+",116,0.193333333333333,52,0.346666666666667,2
"219",243,"1","High",1,1.227,"left","left",30,"christmas",6,1.43028936994961,"pleased",42,"High",4,"Subject_11114.txt","A+V+",116,0.193333333333333,52,0.346666666666667,2
"220",244,"1","High",1,0.522,"left","left",30,"weekend",1,2.17060579638928,"party",43,"High",4,"Subject_11114.txt","A+V+",116,0.193333333333333,52,0.346666666666667,2
"221",245,"0","High",6,1.243,"left","right",30,"aroused",5,1.62827627224033,"celebration",44,"High",4,"Subject_11114.txt","A+V+",116,0.193333333333333,52,0.346666666666667,2
"222",246,"0","High",1,0.807,"right","left",30,"laughing",2,2.00426217747736,"me",45,"High",4,"Subject_11114.txt","A+V+",116,0.193333333333333,52,0.346666666666667,2
"223",247,"1","High",7,1.323,"left","left",30,"congratulations",1,1.99812394895707,"smile",46,"High",4,"Subject_11114.txt","A+V+",116,0.193333333333333,52,0.346666666666667,2
"224",248,"0","High",1,0.509,"right","left",30,"happy",1,1.61112265996053,"cure",47,"High",4,"Subject_11114.txt","A+V+",116,0.193333333333333,52,0.346666666666667,2
"225",249,"1","High",1,0.66,"left","left",30,"victory",1,1.27291281303042,"comedy",48,"High",4,"Subject_11114.txt","A+V+",116,0.193333333333333,52,0.346666666666667,2
"226",250,"0","High",1,1.242,"right","left",30,"laughter",1,1.31556057289708,"loved",49,"High",4,"Subject_11114.txt","A+V+",116,0.193333333333333,52,0.346666666666667,2
"227",251,"0","Low",2,1.024,"right","left",90,"loneliness",4,2.10262653560494,"sad",0,"Low",5,"Subject_11114.txt","A-V-",116,0.193333333333333,8,0.0533333333333333,1
"228",252,"1","Low",3,0.858,"right","right",90,"worthless",3,1.70814189463272,"lonely",1,"Low",5,"Subject_11114.txt","A-V-",116,0.193333333333333,8,0.0533333333333333,1
"229",253,"1","Low",7,1.143,"left","left",90,"rotten",2,1.17805931376643,"sorrow",2,"Low",5,"Subject_11114.txt","A-V-",116,0.193333333333333,8,0.0533333333333333,1
"230",254,"1","Low",7,1.209,"right","right",90,"deformed",4,1.19433007849148,"disappointment",3,"Low",5,"Subject_11114.txt","A-V-",116,0.193333333333333,8,0.0533333333333333,1
"231",255,"1","Low",7,1.343,"left","left",90,"disability",1,1.36408382433001,"worse",4,"Low",5,"Subject_11114.txt","A-V-",116,0.193333333333333,8,0.0533333333333333,1
"232",256,"1","Low",7,0.842,"right","right",90,"sewage",5,1.73110170519794,"sunburn",5,"Low",5,"Subject_11114.txt","A-V-",116,0.193333333333333,8,0.0533333333333333,1
"233",257,"0","Low",7,1.173,"left","right",90,"coward",2,2.03628593226313,"stinky",6,"Low",5,"Subject_11114.txt","A-V-",116,0.193333333333333,8,0.0533333333333333,1
"234",258,"1","Low",4,0.875,"right","right",90,"alienation",3,1.79705413791817,"fever",7,"Low",5,"Subject_11114.txt","A-V-",116,0.193333333333333,8,0.0533333333333333,1
"235",259,"1","Low",7,0.775,"right","right",90,"mope",5,1.80688736570301,"negligent",8,"Low",5,"Subject_11114.txt","A-V-",116,0.193333333333333,8,0.0533333333333333,1
"236",260,"1","Low",7,1.273,"right","right",90,"mucous",1,2.08368413051357,"bored",9,"Low",5,"Subject_11114.txt","A-V-",116,0.193333333333333,8,0.0533333333333333,1
"237",261,"1","Low",7,0.843,"left","left",90,"stink",6,1.4866196627263,"despair",10,"Low",5,"Subject_11114.txt","A-V-",116,0.193333333333333,8,0.0533333333333333,1
"238",262,"1","Low",3,1.643,"left","left",90,"weakness",2,1.33285694214283,"pathetic",11,"Low",5,"Subject_11114.txt","A-V-",116,0.193333333333333,8,0.0533333333333333,1
"239",263,"1","Low",7,1.227,"right","right",90,"complain",2,1.26423960586544,"manure",12,"Low",5,"Subject_11114.txt","A-V-",116,0.193333333333333,8,0.0533333333333333,1
"240",264,"1","Low",7,0.96,"left","left",90,"messy",6,1.08664192640572,"expire",13,"Low",5,"Subject_11114.txt","A-V-",116,0.193333333333333,8,0.0533333333333333,1
"241",265,"1","Low",7,1.577,"left","left",90,"tax",2,0.720617890619906,"mildew",14,"Low",5,"Subject_11114.txt","A-V-",116,0.193333333333333,8,0.0533333333333333,1
"242",266,"1","Low",7,1.56,"left","left",90,"moody",1,1.29022041033022,"detach",15,"Low",5,"Subject_11114.txt","A-V-",116,0.193333333333333,8,0.0533333333333333,1
"243",267,"1","Low",1,0.502,"right","right",90,"urine",1,2.85871937061893,"handicapped",16,"Low",5,"Subject_11114.txt","A-V-",116,0.193333333333333,8,0.0533333333333333,1
"244",268,"0","Low",1,1.405,"right","left",90,"handicap",6,2.38995555604924,"dismissive",17,"Low",5,"Subject_11114.txt","A-V-",116,0.193333333333333,8,0.0533333333333333,1
"245",269,"0","Low",1,0.423,"left","right",90,"bitter",1,2.17453401882085,"tarnish",18,"Low",5,"Subject_11114.txt","A-V-",116,0.193333333333333,8,0.0533333333333333,1
"246",270,"0","Low",1,1.088,"left","right",90,"pity",6,2.50227095847367,"dummy",19,"Low",5,"Subject_11114.txt","A-V-",116,0.193333333333333,8,0.0533333333333333,1
"247",271,"1","Low",7,1.26,"left","left",90,"stain",1,0.994735957385274,"crutch",20,"Low",5,"Subject_11114.txt","A-V-",116,0.193333333333333,8,0.0533333333333333,1
"248",272,"0","Low",4,0.976,"left","right",90,"cancel",2,1.57481780039961,"doubt",21,"Low",5,"Subject_11114.txt","A-V-",116,0.193333333333333,8,0.0533333333333333,1
"249",273,"1","Low",1,0.604,"left","left",90,"blubber",1,2.69533964287257,"uninteresting",22,"Low",5,"Subject_11114.txt","A-V-",116,0.193333333333333,8,0.0533333333333333,1
"250",274,"1","Low",7,0.993,"right","right",90,"dull",3,1.64619628086803,"forgot",23,"Low",5,"Subject_11114.txt","A-V-",116,0.193333333333333,8,0.0533333333333333,1
"251",275,"1","Low",7,1.393,"left","left",90,"mold",2,0.941975230234675,"greedy",24,"Low",5,"Subject_11114.txt","A-V-",116,0.193333333333333,8,0.0533333333333333,1
"252",276,"1","Low",4,0.924,"left","left",90,"damp",4,1.88209365753573,"lame",25,"Low",5,"Subject_11114.txt","A-V-",116,0.193333333333333,8,0.0533333333333333,1
"253",277,"1","Low",2,0.859,"right","right",90,"ail",4,1.62534093248541,"refuse",26,"Low",5,"Subject_11114.txt","A-V-",116,0.193333333333333,8,0.0533333333333333,1
"254",278,"1","Low",1,0.907,"left","left",90,"false",4,2.13750286315917,"void",27,"Low",5,"Subject_11114.txt","A-V-",116,0.193333333333333,8,0.0533333333333333,1
"255",279,"1","Low",2,0.643,"right","right",90,"cynical",2,1.40730517846532,"resent",28,"Low",5,"Subject_11114.txt","A-V-",116,0.193333333333333,8,0.0533333333333333,1
"256",280,"1","Low",3,1.473,"right","right",90,"numb",6,2.15559450091678,"separate",29,"Low",5,"Subject_11114.txt","A-V-",116,0.193333333333333,8,0.0533333333333333,1
"257",281,"1","Low",3,1.058,"right","right",90,"pinch",6,1.81751169165364,"leave",30,"Low",5,"Subject_11114.txt","A-V-",116,0.193333333333333,8,0.0533333333333333,1
"258",282,"1","Low",3,0.806,"right","right",90,"timid",1,2.20268793712603,"fool",31,"Low",5,"Subject_11114.txt","A-V-",116,0.193333333333333,8,0.0533333333333333,1
"259",283,"1","Low",2,1.857,"left","left",90,"slow",6,2.01697685028194,"pungent",32,"Low",5,"Subject_11114.txt","A-V-",116,0.193333333333333,8,0.0533333333333333,1
"260",284,"1","Low",3,0.859,"left","left",90,"crap",3,1.62539546887274,"sludge",33,"Low",5,"Subject_11114.txt","A-V-",116,0.193333333333333,8,0.0533333333333333,1
"261",285,"1","Low",3,0.726,"left","left",90,"cane",3,1.27343764537363,"lower",34,"Low",5,"Subject_11114.txt","A-V-",116,0.193333333333333,8,0.0533333333333333,1
"262",286,"1","Low",7,0.777,"left","left",90,"slouch",5,0.873867327783955,"blues",35,"Low",5,"Subject_11114.txt","A-V-",116,0.193333333333333,8,0.0533333333333333,1
"263",287,"0","Low",3,0.859,"right","left",90,"smug",6,1.714187732141,"habit",36,"Low",5,"Subject_11114.txt","A-V-",116,0.193333333333333,8,0.0533333333333333,1
"264",288,"1","Low",5,1.277,"right","right",90,"witch",3,1.25120990534197,"stagnant",37,"Low",5,"Subject_11114.txt","A-V-",116,0.193333333333333,8,0.0533333333333333,1
"265",289,"0","Low",1,0.992,"right","left",90,"omit",2,1.87515791488113,"small",38,"Low",5,"Subject_11114.txt","A-V-",116,0.193333333333333,8,0.0533333333333333,1
"266",290,"1","Low",7,0.76,"left","left",90,"absurd",5,0.976027096243342,"vacant",39,"Low",5,"Subject_11114.txt","A-V-",116,0.193333333333333,8,0.0533333333333333,1
"267",291,"1","Low",4,1.675,"left","left",90,"loose",6,1.85542344921851,"apathy",40,"Low",5,"Subject_11114.txt","A-V-",116,0.193333333333333,8,0.0533333333333333,1
"268",292,"0","Low",1,0.977,"right","left",90,"coal",5,1.39235836424632,"cellar",41,"Low",5,"Subject_11114.txt","A-V-",116,0.193333333333333,8,0.0533333333333333,1
"269",293,"0","Low",4,0.759,"right","left",90,"shadow",3,1.67418434447609,"label",42,"Low",5,"Subject_11114.txt","A-V-",116,0.193333333333333,8,0.0533333333333333,1
"270",294,"1","Low",1,0.608,"left","left",90,"stupor",1,1.83838949617348,"average",43,"Low",5,"Subject_11114.txt","A-V-",116,0.193333333333333,8,0.0533333333333333,1
"271",295,"1","Low",7,1.31,"left","left",90,"therapy",1,1.13931026251521,"obscure",44,"Low",5,"Subject_11114.txt","A-V-",116,0.193333333333333,8,0.0533333333333333,1
"272",296,"0","Low",1,0.723,"right","left",90,"marrow",3,2.07257635571295,"paragraph",45,"Low",5,"Subject_11114.txt","A-V-",116,0.193333333333333,8,0.0533333333333333,1
"273",297,"0","Low",1,1.243,"right","left",90,"fur",5,1.62179671024205,"bus",46,"Low",5,"Subject_11114.txt","A-V-",116,0.193333333333333,8,0.0533333333333333,1
"274",298,"1","Low",7,0.993,"right","right",90,"dissolve",3,1.25349401670974,"anus",47,"Low",5,"Subject_11114.txt","A-V-",116,0.193333333333333,8,0.0533333333333333,1
"275",299,"0","Low",2,0.992,"right","left",90,"errand",6,1.88002576684812,"stool",48,"Low",5,"Subject_11114.txt","A-V-",116,0.193333333333333,8,0.0533333333333333,1
"276",300,"1","Low",2,2.127,"left","left",90,"moss",6,1.36513830101467,"feet",49,"Low",5,"Subject_11114.txt","A-V-",116,0.193333333333333,8,0.0533333333333333,1
"277",301,"1","High",5,1.013,"right","right",60,"erupt",1,1.26809372301796,"preach",0,"High",6,"Subject_11114.txt","A+V+",116,0.193333333333333,52,0.346666666666667,2
"278",302,"1","High",7,0.777,"left","left",60,"gorilla",4,0.903721176728141,"meteor",1,"High",6,"Subject_11114.txt","A+V+",116,0.193333333333333,52,0.346666666666667,2
"279",303,"1","High",4,0.893,"right","right",60,"infatuated",1,1.25062412061379,"mercy",2,"High",6,"Subject_11114.txt","A+V+",116,0.193333333333333,52,0.346666666666667,2
"280",304,"1","High",7,1.377,"left","left",60,"seal",1,0.794113986135926,"soldier",3,"High",6,"Subject_11114.txt","A+V+",116,0.193333333333333,52,0.346666666666667,2
"281",305,"1","High",3,1.16,"right","right",60,"crush",6,1.32937816350022,"crazy",4,"High",6,"Subject_11114.txt","A+V+",116,0.193333333333333,52,0.346666666666667,2
"282",306,"1","High",3,0.859,"left","left",60,"outspoken",3,1.57127454056172,"ass",5,"High",6,"Subject_11114.txt","A+V+",116,0.193333333333333,52,0.346666666666667,2
"283",307,"0","High",4,0.543,"left","right",60,"comet",4,1.55649678909685,"galaxy",6,"High",6,"Subject_11114.txt","A+V+",116,0.193333333333333,52,0.346666666666667,2
"284",308,"1","High",7,1.21,"right","right",60,"cockpit",2,1.21039552980801,"erect",7,"High",6,"Subject_11114.txt","A+V+",116,0.193333333333333,52,0.346666666666667,2
"285",309,"1","High",1,0.573,"right","right",60,"children",1,1.9775416032353,"wild",8,"High",6,"Subject_11114.txt","A+V+",116,0.193333333333333,52,0.346666666666667,2
"286",310,"1","High",7,1.294,"right","right",60,"thin",1,1.20677720225649,"husband",9,"High",6,"Subject_11114.txt","A+V+",116,0.193333333333333,52,0.346666666666667,2
"287",311,"1","High",2,0.693,"left","left",60,"elephant",2,1.54274239650113,"control",10,"High",6,"Subject_11114.txt","A+V+",116,0.193333333333333,52,0.346666666666667,2
"288",312,"1","High",7,0.81,"left","left",60,"surfer",5,1.24593399302103,"windsurfers",11,"High",6,"Subject_11114.txt","A+V+",116,0.193333333333333,52,0.346666666666667,2
"289",313,"1","High",7,0.927,"right","right",60,"athletics",4,1.40474742284277,"belief",12,"High",6,"Subject_11114.txt","A+V+",116,0.193333333333333,52,0.346666666666667,2
"290",314,"1","High",5,1.31,"left","left",60,"fair",4,1.28286570002092,"answer",13,"High",6,"Subject_11114.txt","A+V+",116,0.193333333333333,52,0.346666666666667,2
"291",315,"1","High",7,1.377,"left","left",60,"revive",1,0.867184697970515,"thong",14,"High",6,"Subject_11114.txt","A+V+",116,0.193333333333333,52,0.346666666666667,2
"292",316,"1","High",4,1.088,"right","right",60,"invent",3,2.38063432852505,"salary",15,"High",6,"Subject_11114.txt","A+V+",116,0.193333333333333,52,0.346666666666667,2
"293",317,"1","High",1,0.856,"right","right",60,"juice",4,2.06973501099856,"vigorous",16,"High",6,"Subject_11114.txt","A+V+",116,0.193333333333333,52,0.346666666666667,2
"294",318,"1","High",2,2.057,"left","left",60,"bravery",4,1.88124000298558,"bold",17,"High",6,"Subject_11114.txt","A+V+",116,0.193333333333333,52,0.346666666666667,2
"295",319,"1","High",3,0.91,"left","left",60,"charming",5,1.51825428445591,"tickle",18,"High",6,"Subject_11114.txt","A+V+",116,0.193333333333333,52,0.346666666666667,2
"296",320,"0","High",1,0.543,"right","left",60,"extravagant",1,1.58182861079695,"know",19,"High",6,"Subject_11114.txt","A+V+",116,0.193333333333333,52,0.346666666666667,2
"297",321,"1","High",1,0.893,"right","right",60,"toddler",4,1.4412267987791,"reef",20,"High",6,"Subject_11114.txt","A+V+",116,0.193333333333333,52,0.346666666666667,2
"298",322,"0","High",1,0.891,"right","left",60,"applaud",4,1.69022862287238,"sparkle",21,"High",6,"Subject_11114.txt","A+V+",116,0.193333333333333,52,0.346666666666667,2
"299",323,"0","High",5,1.042,"right","left",60,"confidence",5,1.71906424575718,"waterskiing",22,"High",6,"Subject_11114.txt","A+V+",116,0.193333333333333,52,0.346666666666667,2
"300",324,"1","High",1,0.541,"left","left",60,"fashion",1,1.85995060930145,"worthwhile",23,"High",6,"Subject_11114.txt","A+V+",116,0.193333333333333,52,0.346666666666667,2
"301",325,"0","High",3,0.718,"left","right",60,"strengthen",3,2.95562728692312,"song",24,"High",6,"Subject_11114.txt","A+V+",116,0.193333333333333,52,0.346666666666667,2
"302",326,"1","High",1,0.774,"left","left",60,"strong",2,1.90983245786629,"brilliant",25,"High",6,"Subject_11114.txt","A+V+",116,0.193333333333333,52,0.346666666666667,2
"303",327,"1","High",1,0.843,"left","left",60,"prize",3,1.4217124034476,"pastry",26,"High",6,"Subject_11114.txt","A+V+",116,0.193333333333333,52,0.346666666666667,2
"304",328,"1","High",7,0.743,"right","right",60,"cupcake",5,1.45659290143522,"musician",27,"High",6,"Subject_11114.txt","A+V+",116,0.193333333333333,52,0.346666666666667,2
"305",329,"0","High",1,0.643,"right","left",60,"king",2,1.4268763558066,"suite",28,"High",6,"Subject_11114.txt","A+V+",116,0.193333333333333,52,0.346666666666667,2
"306",330,"1","High",2,1.159,"right","right",60,"bargain",5,1.62379434527247,"heaven",29,"High",6,"Subject_11114.txt","A+V+",116,0.193333333333333,52,0.346666666666667,2
"307",331,"1","High",4,0.593,"left","left",60,"eager",4,1.61412857624236,"cookout",30,"High",6,"Subject_11114.txt","A+V+",116,0.193333333333333,52,0.346666666666667,2
"308",332,"0","High",4,0.694,"right","left",60,"summer",5,1.45314107017475,"cherish",31,"High",6,"Subject_11114.txt","A+V+",116,0.193333333333333,52,0.346666666666667,2
"309",333,"1","High",2,1.29,"left","left",60,"prosper",4,1.98276747041382,"luck",32,"High",6,"Subject_11114.txt","A+V+",116,0.193333333333333,52,0.346666666666667,2
"310",334,"1","High",6,0.476,"left","left",60,"exhilaration",6,1.48952965912758,"elated",33,"High",6,"Subject_11114.txt","A+V+",116,0.193333333333333,52,0.346666666666667,2
"311",335,"1","High",7,1.24,"right","right",60,"delight",1,2.01966838038061,"redeem",34,"High",6,"Subject_11114.txt","A+V+",116,0.193333333333333,52,0.346666666666667,2
"312",336,"1","High",2,1.54,"left","left",60,"cheery",2,2.05919152722345,"gold",35,"High",6,"Subject_11114.txt","A+V+",116,0.193333333333333,52,0.346666666666667,2
"313",337,"1","High",5,0.759,"left","left",60,"amaze",3,1.75681143184192,"superstar",36,"High",6,"Subject_11114.txt","A+V+",116,0.193333333333333,52,0.346666666666667,2
"314",338,"0","High",5,1.092,"left","right",60,"beautiful",1,1.82230479668942,"optimistic",37,"High",6,"Subject_11114.txt","A+V+",116,0.193333333333333,52,0.346666666666667,2
"315",339,"0","High",2,2.308,"right","left",60,"tasty",3,1.91744060185738,"sunshine",38,"High",6,"Subject_11114.txt","A+V+",116,0.193333333333333,52,0.346666666666667,2
"316",340,"1","High",1,1.541,"right","right",60,"concert",2,1.92993969560484,"compassionate",39,"High",6,"Subject_11114.txt","A+V+",116,0.193333333333333,52,0.346666666666667,2
"317",341,"0","High",1,0.571,"right","left",60,"enthusiasm",1,2.41826891305391,"giggles",40,"High",6,"Subject_11114.txt","A+V+",116,0.193333333333333,52,0.346666666666667,2
"318",342,"0","High",1,0.727,"right","left",60,"fantastic",3,1.42155777680455,"car",41,"High",6,"Subject_11114.txt","A+V+",116,0.193333333333333,52,0.346666666666667,2
"319",343,"1","High",1,0.825,"left","left",60,"triumph",2,1.75132218608633,"birthday",42,"High",6,"Subject_11114.txt","A+V+",116,0.193333333333333,52,0.346666666666667,2
"320",344,"0","High",1,1.043,"right","left",60,"succeed",5,1.59385901255882,"fame",43,"High",6,"Subject_11114.txt","A+V+",116,0.193333333333333,52,0.346666666666667,2
"321",347,"1","High",2,1.721,"left","left",60,"complete",5,2.61526549907285,"awesome",46,"High",6,"Subject_11114.txt","A+V+",116,0.193333333333333,52,0.346666666666667,2
"322",348,"0","High",1,0.81,"left","right",60,"graduate",2,1.37877912961994,"pleasure",47,"High",6,"Subject_11114.txt","A+V+",116,0.193333333333333,52,0.346666666666667,2
"323",349,"0","High",1,0.491,"left","right",60,"win",1,1.92157991213026,"success",48,"High",6,"Subject_11114.txt","A+V+",116,0.193333333333333,52,0.346666666666667,2
"324",352,"0","Low",3,0.854,"right","left",30,"discomfort",4,2.08971681509865,"sick",1,"Low",7,"Subject_11114.txt","A-V-",116,0.193333333333333,8,0.0533333333333333,1
"325",353,"0","Low",4,0.477,"left","right",30,"cry",4,1.25926043553045,"hopeless",2,"Low",7,"Subject_11114.txt","A-V-",116,0.193333333333333,8,0.0533333333333333,1
"326",354,"1","Low",1,0.777,"left","left",30,"widow",2,1.45970821118681,"malaria",3,"Low",7,"Subject_11114.txt","A-V-",116,0.193333333333333,8,0.0533333333333333,1
"327",355,"1","Low",6,1.06,"right","right",30,"misfortune",5,1.37110810840386,"disgrace",4,"Low",7,"Subject_11114.txt","A-V-",116,0.193333333333333,8,0.0533333333333333,1
"328",356,"0","Low",1,0.693,"right","left",30,"weak",1,1.19983632673393,"casket",5,"Low",7,"Subject_11114.txt","A-V-",116,0.193333333333333,8,0.0533333333333333,1
"329",357,"0","Low",1,1.041,"left","right",30,"stinks",3,1.96965468215058,"wasteful",6,"Low",7,"Subject_11114.txt","A-V-",116,0.193333333333333,8,0.0533333333333333,1
"330",358,"0","Low",1,1.039,"right","left",30,"unpleasant",3,2.24455678937375,"pessimistic",7,"Low",7,"Subject_11114.txt","A-V-",116,0.193333333333333,8,0.0533333333333333,1
"331",361,"1","Low",6,1.057,"right","right",30,"dandruff",3,2.06217883696081,"dumb",10,"Low",7,"Subject_11114.txt","A-V-",116,0.193333333333333,8,0.0533333333333333,1
"332",362,"1","Low",2,1.108,"left","left",30,"fatigue",3,1.69815307779936,"dreary",11,"Low",7,"Subject_11114.txt","A-V-",116,0.193333333333333,8,0.0533333333333333,1
"333",363,"1","Low",5,0.976,"left","left",30,"incompetent",2,1.57593900396023,"ignorance",12,"Low",7,"Subject_11114.txt","A-V-",116,0.193333333333333,8,0.0533333333333333,1
"334",364,"0","Low",2,0.81,"left","right",30,"vulnerable",3,1.42734248132911,"slob",13,"Low",7,"Subject_11114.txt","A-V-",116,0.193333333333333,8,0.0533333333333333,1
"335",365,"1","Low",4,0.727,"left","left",30,"gloomy",5,1.23436201753793,"pale",14,"Low",7,"Subject_11114.txt","A-V-",116,0.193333333333333,8,0.0533333333333333,1
"336",366,"1","Low",2,0.757,"right","right",30,"impair",4,2.14236814869219,"lack",15,"Low",7,"Subject_11114.txt","A-V-",116,0.193333333333333,8,0.0533333333333333,1
"337",367,"1","Low",3,0.904,"right","right",30,"feeble",6,2.53635233829846,"unpopular",16,"Low",7,"Subject_11114.txt","A-V-",116,0.193333333333333,8,0.0533333333333333,1
"338",368,"1","Low",2,1.206,"right","right",30,"wither",4,2.28794335661223,"nuisance",17,"Low",7,"Subject_11114.txt","A-V-",116,0.193333333333333,8,0.0533333333333333,1
"339",369,"1","Low",7,0.81,"left","left",30,"mucus",6,0.80568018721533,"deficient",18,"Low",7,"Subject_11114.txt","A-V-",116,0.193333333333333,8,0.0533333333333333,1
"340",370,"1","Low",7,0.894,"right","right",30,"immature",5,1.51434434775729,"grime",19,"Low",7,"Subject_11114.txt","A-V-",116,0.193333333333333,8,0.0533333333333333,1
"341",371,"1","Low",1,0.759,"right","right",30,"doubtful",4,1.64610453144996,"fault",20,"Low",7,"Subject_11114.txt","A-V-",116,0.193333333333333,8,0.0533333333333333,1
"342",372,"1","Low",3,1.523,"left","left",30,"con",6,2.1938703689666,"cough",21,"Low",7,"Subject_11114.txt","A-V-",116,0.193333333333333,8,0.0533333333333333,1
"343",373,"0","Low",4,1.027,"left","right",30,"resign",3,1.45182674372336,"grovel",22,"Low",7,"Subject_11114.txt","A-V-",116,0.193333333333333,8,0.0533333333333333,1
"344",374,"1","Low",4,0.877,"left","left",30,"incorrect",5,1.39289699107758,"spit",23,"Low",7,"Subject_11114.txt","A-V-",116,0.193333333333333,8,0.0533333333333333,1
"345",375,"1","Low",1,0.774,"left","left",30,"dishes",1,1.90664240118349,"egotistical",24,"Low",7,"Subject_11114.txt","A-V-",116,0.193333333333333,8,0.0533333333333333,1
"346",376,"1","Low",7,0.643,"left","left",30,"prude",6,0.988707763986895,"overcast",25,"Low",7,"Subject_11114.txt","A-V-",116,0.193333333333333,8,0.0533333333333333,1
"347",377,"1","Low",2,0.757,"right","right",30,"piss",4,2.08731753574102,"heavy",26,"Low",7,"Subject_11114.txt","A-V-",116,0.193333333333333,8,0.0533333333333333,1
"348",378,"0","Low",1,0.772,"right","left",30,"limp",2,2.24470082952757,"tick",27,"Low",7,"Subject_11114.txt","A-V-",116,0.193333333333333,8,0.0533333333333333,1
"349",379,"1","Low",1,0.759,"left","left",30,"senseless",2,1.6599718464131,"chump",28,"Low",7,"Subject_11114.txt","A-V-",116,0.193333333333333,8,0.0533333333333333,1
"350",380,"1","Low",1,0.81,"right","right",30,"period",2,1.59140936727636,"weary",29,"Low",7,"Subject_11114.txt","A-V-",116,0.193333333333333,8,0.0533333333333333,1
"351",381,"1","Low",7,1.193,"right","right",30,"hinder",2,1.40752749436069,"condescension",30,"Low",7,"Subject_11114.txt","A-V-",116,0.193333333333333,8,0.0533333333333333,1
"352",382,"0","Low",3,0.827,"right","left",30,"junk",6,1.46519874015939,"rusty",31,"Low",7,"Subject_11114.txt","A-V-",116,0.193333333333333,8,0.0533333333333333,1
"353",383,"0","Low",1,0.956,"left","right",30,"little",3,2.31842148656142,"butcher",32,"Low",7,"Subject_11114.txt","A-V-",116,0.193333333333333,8,0.0533333333333333,1
"354",384,"1","Low",4,0.991,"right","right",30,"alimony",6,2.07517453242326,"nosey",33,"Low",7,"Subject_11114.txt","A-V-",116,0.193333333333333,8,0.0533333333333333,1
"355",385,"1","Low",3,1.143,"left","left",30,"smudge",6,1.57229661624297,"ash",34,"Low",7,"Subject_11114.txt","A-V-",116,0.193333333333333,8,0.0533333333333333,1
"356",386,"0","Low",1,1.16,"right","left",30,"defer",2,1.37700798091828,"bland",35,"Low",7,"Subject_11114.txt","A-V-",116,0.193333333333333,8,0.0533333333333333,1
"357",387,"0","Low",1,0.825,"right","left",30,"gullible",3,1.62312932242639,"laundry",36,"Low",7,"Subject_11114.txt","A-V-",116,0.193333333333333,8,0.0533333333333333,1
"358",388,"0","Low",1,1.592,"left","right",30,"passive",6,1.66015342040919,"sigh",37,"Low",7,"Subject_11114.txt","A-V-",116,0.193333333333333,8,0.0533333333333333,1
"359",389,"1","Low",1,1.16,"left","left",30,"recede",6,1.4090545126528,"erase",38,"Low",7,"Subject_11114.txt","A-V-",116,0.193333333333333,8,0.0533333333333333,1
"360",390,"1","Low",1,1.041,"left","left",30,"rules",5,1.8228026816505,"novice",39,"Low",7,"Subject_11114.txt","A-V-",116,0.193333333333333,8,0.0533333333333333,1
"361",391,"0","Low",2,0.942,"right","left",30,"tar",5,1.69042174576316,"derelict",40,"Low",7,"Subject_11114.txt","A-V-",116,0.193333333333333,8,0.0533333333333333,1
"362",392,"1","Low",7,0.743,"left","left",30,"fart",6,1.08331584962434,"beet",41,"Low",7,"Subject_11114.txt","A-V-",116,0.193333333333333,8,0.0533333333333333,1
"363",393,"0","Low",1,1.21,"right","left",30,"class",6,1.45780136313988,"allege",42,"Low",7,"Subject_11114.txt","A-V-",116,0.193333333333333,8,0.0533333333333333,1
"364",394,"1","Low",5,1.109,"right","right",30,"punk",1,1.59919395248289,"spurn",43,"Low",7,"Subject_11114.txt","A-V-",116,0.193333333333333,8,0.0533333333333333,1
"365",395,"0","Low",2,0.842,"left","right",30,"wane",3,1.77925410930766,"folly",44,"Low",7,"Subject_11114.txt","A-V-",116,0.193333333333333,8,0.0533333333333333,1
"366",396,"1","Low",2,0.776,"right","right",30,"muddy",2,1.46012236678507,"cease",45,"Low",7,"Subject_11114.txt","A-V-",116,0.193333333333333,8,0.0533333333333333,1
"367",398,"1","Low",1,0.426,"left","left",30,"cling",1,1.54994248016737,"tatter",47,"Low",7,"Subject_11114.txt","A-V-",116,0.193333333333333,8,0.0533333333333333,1
"368",399,"0","Low",1,0.505,"right","left",30,"bandage",1,2.35587449706509,"coarse",48,"Low",7,"Subject_11114.txt","A-V-",116,0.193333333333333,8,0.0533333333333333,1
"369",400,"1","Low",1,0.492,"left","left",30,"factory",1,1.81220466151717,"obstinate",49,"Low",7,"Subject_11114.txt","A-V-",116,0.193333333333333,8,0.0533333333333333,1
"370",401,"1","High",1,0.992,"left","left",30,"suffocate",5,1.63408696177066,"suicide",0,"Low",8,"Subject_11114.txt","A+V-",116,0.193333333333333,24,0.16,1
"371",402,"1","High",1,1.042,"right","right",30,"abusive",4,1.75590452415054,"suffer",1,"Low",8,"Subject_11114.txt","A+V-",116,0.193333333333333,24,0.16,1
"372",403,"1","High",1,1.026,"right","right",30,"starvation",5,1.67313756700605,"slave",2,"Low",8,"Subject_11114.txt","A+V-",116,0.193333333333333,24,0.16,1
"373",404,"0","High",3,0.809,"left","right",30,"nightmare",1,1.44895299800555,"humiliation",3,"Low",8,"Subject_11114.txt","A+V-",116,0.193333333333333,24,0.16,1
"374",405,"1","High",1,1.093,"left","left",30,"jail",3,1.11907342070481,"terrible",4,"Low",8,"Subject_11114.txt","A+V-",116,0.193333333333333,24,0.16,1
"375",406,"1","High",1,1.043,"left","left",30,"sob",4,1.34465444152011,"despise",5,"Low",8,"Subject_11114.txt","A+V-",116,0.193333333333333,24,0.16,1
"376",407,"1","High",7,1.377,"left","left",30,"leprosy",1,0.954038353811484,"seasick",6,"Low",8,"Subject_11114.txt","A+V-",116,0.193333333333333,24,0.16,1
"377",408,"1","High",7,1.143,"right","right",30,"amputate",2,1.46925400022883,"shame",7,"Low",8,"Subject_11114.txt","A+V-",116,0.193333333333333,24,0.16,1
"378",409,"1","High",7,1.176,"right","right",30,"victim",2,1.49067460201331,"castrate",8,"Low",8,"Subject_11114.txt","A+V-",116,0.193333333333333,24,0.16,1
"379",410,"1","High",7,1.327,"right","right",30,"traitor",1,1.06430607606308,"hostage",9,"Low",8,"Subject_11114.txt","A+V-",116,0.193333333333333,24,0.16,1
"380",411,"0","High",2,0.79,"right","left",30,"crucify",1,2.08460611590999,"irritated",10,"Low",8,"Subject_11114.txt","A+V-",116,0.193333333333333,24,0.16,1
"381",412,"1","High",1,1.192,"right","right",30,"insult",5,1.64946589648025,"horrible",11,"Low",8,"Subject_11114.txt","A+V-",116,0.193333333333333,24,0.16,1
"382",413,"1","High",7,0.943,"right","right",30,"homicide",4,1.52394371078117,"tumor",12,"Low",8,"Subject_11114.txt","A+V-",116,0.193333333333333,24,0.16,1
"383",414,"1","High",1,1.36,"right","right",30,"liar",6,1.54898873536149,"demonic",13,"Low",8,"Subject_11114.txt","A+V-",116,0.193333333333333,24,0.16,1
"384",415,"1","High",1,0.826,"left","left",30,"mad",4,1.3571041317191,"despairing",14,"Low",8,"Subject_11114.txt","A+V-",116,0.193333333333333,24,0.16,1
"385",416,"1","High",1,0.92,"left","left",30,"enraged",2,2.62535376456799,"addict",15,"Low",8,"Subject_11114.txt","A+V-",116,0.193333333333333,24,0.16,1
"386",417,"1","High",1,0.874,"left","left",30,"virus",1,1.86715967542841,"injury",16,"Low",8,"Subject_11114.txt","A+V-",116,0.193333333333333,24,0.16,1
"387",418,"1","High",2,0.793,"right","right",30,"pissed",3,1.6372645071533,"wounds",17,"Low",8,"Subject_11114.txt","A+V-",116,0.193333333333333,24,0.16,1
"388",419,"1","High",2,1.608,"left","left",30,"guilty",2,1.72186709422385,"arson",18,"Low",8,"Subject_11114.txt","A+V-",116,0.193333333333333,24,0.16,1
"389",420,"0","High",1,0.708,"left","right",30,"awful",2,1.90225703569013,"aggravated",19,"Low",8,"Subject_11114.txt","A+V-",116,0.193333333333333,24,0.16,1
"390",421,"1","High",1,1.104,"right","right",30,"attack",5,2.55781143635977,"disorder",20,"Low",8,"Subject_11114.txt","A+V-",116,0.193333333333333,24,0.16,1
"391",422,"1","High",1,1.093,"left","left",30,"terror",5,1.336330908729,"offend",21,"Low",8,"Subject_11114.txt","A+V-",116,0.193333333333333,24,0.16,1
"392",423,"1","High",1,1.257,"right","right",30,"pester",1,2.09672794630751,"exam",22,"Low",8,"Subject_11114.txt","A+V-",116,0.193333333333333,24,0.16,1
"393",424,"1","High",7,0.993,"right","right",30,"brutal",6,1.34243962343317,"pervert",23,"Low",8,"Subject_11114.txt","A+V-",116,0.193333333333333,24,0.16,1
"394",425,"0","High",1,1.24,"left","right",30,"lost",6,2.06920344181708,"electrocute",24,"Low",8,"Subject_11114.txt","A+V-",116,0.193333333333333,24,0.16,1
"395",426,"0","High",1,0.692,"right","left",30,"insane",2,1.77473561090301,"angry",25,"Low",8,"Subject_11114.txt","A+V-",116,0.193333333333333,24,0.16,1
"396",427,"0","High",1,0.76,"right","left",30,"deceit",2,1.59105423931032,"bloody",26,"Low",8,"Subject_11114.txt","A+V-",116,0.193333333333333,24,0.16,1
"397",428,"0","High",2,0.81,"left","right",30,"slap",1,1.26410037770984,"sinful",27,"Low",8,"Subject_11114.txt","A+V-",116,0.193333333333333,24,0.16,1
"398",429,"1","High",3,0.876,"left","left",30,"riot",5,1.42371132166591,"bleed",28,"Low",8,"Subject_11114.txt","A+V-",116,0.193333333333333,24,0.16,1
"399",430,"1","High",1,0.61,"right","right",30,"critic",1,1.48133605116163,"apprehension",29,"Low",8,"Subject_11114.txt","A+V-",116,0.193333333333333,24,0.16,1
"400",431,"0","High",1,0.773,"right","left",30,"uneasy",2,2.15786930907052,"delayed",30,"Low",8,"Subject_11114.txt","A+V-",116,0.193333333333333,24,0.16,1
"401",432,"1","High",1,0.81,"right","right",30,"cram",4,1.49017671708134,"ridicule",31,"Low",8,"Subject_11114.txt","A+V-",116,0.193333333333333,24,0.16,1
"402",433,"1","High",3,0.873,"left","left",30,"hive",4,2.02185111830477,"bees",32,"Low",8,"Subject_11114.txt","A+V-",116,0.193333333333333,24,0.16,1
"403",434,"1","High",1,0.575,"right","right",30,"confused",1,1.80820586258778,"evil",33,"Low",8,"Subject_11114.txt","A+V-",116,0.193333333333333,24,0.16,1
"404",435,"1","High",7,1.327,"right","right",30,"snake",2,1.12415203970158,"germ",34,"Low",8,"Subject_11114.txt","A+V-",116,0.193333333333333,24,0.16,1
"405",436,"1","High",1,1.36,"left","left",30,"invade",6,1.4413997111551,"bruise",35,"Low",8,"Subject_11114.txt","A+V-",116,0.193333333333333,24,0.16,1
"406",437,"0","High",1,0.993,"left","right",30,"ban",5,1.34357782948064,"court",36,"Low",8,"Subject_11114.txt","A+V-",116,0.193333333333333,24,0.16,1
"407",438,"0","High",1,1.223,"left","right",30,"spank",5,2.20956882263999,"outrage",37,"Low",8,"Subject_11114.txt","A+V-",116,0.193333333333333,24,0.16,1
"408",439,"1","High",1,0.81,"right","right",30,"slip",2,1.37473798482097,"fighting",38,"Low",8,"Subject_11114.txt","A+V-",116,0.193333333333333,24,0.16,1
"409",440,"1","High",7,1.143,"left","left",30,"knife",3,1.44383235392161,"wail",39,"Low",8,"Subject_11114.txt","A+V-",116,0.193333333333333,24,0.16,1
"410",441,"0","High",1,0.458,"right","left",30,"disturb",1,1.84502817605971,"yelp",40,"Low",8,"Subject_11114.txt","A+V-",116,0.193333333333333,24,0.16,1
"411",442,"1","High",1,0.842,"left","left",30,"bug",3,1.68418599339202,"drama",41,"Low",8,"Subject_11114.txt","A+V-",116,0.193333333333333,24,0.16,1
"412",443,"0","High",1,0.893,"right","left",30,"politics",3,1.67432036460377,"scream",42,"Low",8,"Subject_11114.txt","A+V-",116,0.193333333333333,24,0.16,1
"413",444,"1","High",2,1.125,"left","left",30,"enlist",6,1.75761600365513,"dentist",43,"Low",8,"Subject_11114.txt","A+V-",116,0.193333333333333,24,0.16,1
"414",445,"1","High",1,1.027,"left","left",30,"financial",5,1.49496565171285,"enforcement",44,"Low",8,"Subject_11114.txt","A+V-",116,0.193333333333333,24,0.16,1
"415",446,"1","High",3,1.424,"left","left",30,"lurk",6,2.01959555828944,"prostitute",45,"Low",8,"Subject_11114.txt","A+V-",116,0.193333333333333,24,0.16,1
"416",447,"0","High",1,1.008,"right","left",30,"blade",4,1.82544192101341,"heat",46,"Low",8,"Subject_11114.txt","A+V-",116,0.193333333333333,24,0.16,1
"417",448,"1","High",4,1.159,"right","right",30,"goddamn",6,1.78390638224664,"pierce",47,"Low",8,"Subject_11114.txt","A+V-",116,0.193333333333333,24,0.16,1
"418",449,"1","High",3,1.41,"left","left",30,"damn",2,1.25936501706019,"evade",48,"Low",8,"Subject_11114.txt","A+V-",116,0.193333333333333,24,0.16,1
"419",450,"1","High",1,0.71,"left","left",30,"breathless",3,1.43754912281292,"expensive",49,"Low",8,"Subject_11114.txt","A+V-",116,0.193333333333333,24,0.16,1
"420",451,"1","Low",1,0.911,"right","right",60,"unhappy",4,1.45628044009209,"frown",0,"Low",9,"Subject_11114.txt","A-V-",116,0.193333333333333,8,0.0533333333333333,1
"421",452,"1","Low",3,0.81,"left","left",60,"gloom",5,1.39933934004512,"homeless",1,"Low",9,"Subject_11114.txt","A-V-",116,0.193333333333333,8,0.0533333333333333,1
"422",453,"1","Low",7,1.043,"right","right",60,"stench",4,0.776157726882957,"zit",2,"Low",9,"Subject_11114.txt","A-V-",116,0.193333333333333,8,0.0533333333333333,1
"423",454,"1","Low",7,1.011,"left","left",60,"wart",5,1.16953816678142,"ungrateful",3,"Low",9,"Subject_11114.txt","A-V-",116,0.193333333333333,8,0.0533333333333333,1
"424",455,"1","Low",4,0.81,"left","left",60,"inferiority",5,1.34892239345936,"scam",4,"Low",9,"Subject_11114.txt","A-V-",116,0.193333333333333,8,0.0533333333333333,1
"425",456,"1","Low",1,0.592,"left","left",60,"trash",1,1.75999892211985,"decay",5,"Low",9,"Subject_11114.txt","A-V-",116,0.193333333333333,8,0.0533333333333333,1
"426",457,"1","Low",6,1.077,"left","left",60,"obesity",2,1.01457211730303,"chore",6,"Low",9,"Subject_11114.txt","A-V-",116,0.193333333333333,8,0.0533333333333333,1
"427",458,"1","Low",7,1.393,"right","right",60,"unfortunate",1,0.824665258987807,"alcoholism",7,"Low",9,"Subject_11114.txt","A-V-",116,0.193333333333333,8,0.0533333333333333,1
"428",459,"1","Low",7,0.843,"left","left",60,"germs",5,0.84200301169767,"inadequate",8,"Low",9,"Subject_11114.txt","A-V-",116,0.193333333333333,8,0.0533333333333333,1
"429",460,"1","Low",4,0.892,"right","right",60,"graveyard",6,1.53951352275908,"waste",9,"Low",9,"Subject_11114.txt","A-V-",116,0.193333333333333,8,0.0533333333333333,1
"430",461,"1","Low",7,0.86,"left","left",60,"glum",6,1.09120726192486,"discouraged",10,"Low",9,"Subject_11114.txt","A-V-",116,0.193333333333333,8,0.0533333333333333,1
"431",462,"1","Low",3,0.892,"right","right",60,"rodent",6,1.73735413927352,"blind",11,"Low",9,"Subject_11114.txt","A-V-",116,0.193333333333333,8,0.0533333333333333,1
"432",463,"1","Low",5,0.638,"right","right",60,"sluggish",5,1.36795173597056,"inferior",12,"Low",9,"Subject_11114.txt","A-V-",116,0.193333333333333,8,0.0533333333333333,1
"433",464,"0","Low",1,0.726,"right","left",60,"sloppy",2,1.35666270795627,"dislike",13,"Low",9,"Subject_11114.txt","A-V-",116,0.193333333333333,8,0.0533333333333333,1
"434",465,"0","Low",4,1.057,"right","left",60,"idiot",5,2.06343156934599,"tiresome",14,"Low",9,"Subject_11114.txt","A-V-",116,0.193333333333333,8,0.0533333333333333,1
"435",466,"1","Low",1,1.226,"left","left",60,"dump",6,1.54836637916742,"droop",15,"Low",9,"Subject_11114.txt","A-V-",116,0.193333333333333,8,0.0533333333333333,1
"436",467,"0","Low",1,0.84,"right","left",60,"complaint",4,1.87330207435298,"withdrawn",16,"Low",9,"Subject_11114.txt","A-V-",116,0.193333333333333,8,0.0533333333333333,1
"437",468,"1","Low",7,0.71,"left","left",60,"fatigued",6,1.06034898140933,"tired",17,"Low",9,"Subject_11114.txt","A-V-",116,0.193333333333333,8,0.0533333333333333,1
"438",469,"1","Low",4,0.976,"left","left",60,"bore",2,1.50516587716993,"old",18,"Low",9,"Subject_11114.txt","A-V-",116,0.193333333333333,8,0.0533333333333333,1
"439",470,"1","Low",7,1.342,"right","right",60,"cheapskate",1,1.7290290024248,"boring",19,"Low",9,"Subject_11114.txt","A-V-",116,0.193333333333333,8,0.0533333333333333,1
"440",471,"1","Low",1,0.674,"left","left",60,"stale",2,2.08779841821524,"smoke",20,"Low",9,"Subject_11114.txt","A-V-",116,0.193333333333333,8,0.0533333333333333,1
"441",472,"1","Low",1,1.007,"right","right",60,"itch",5,2.08851027820492,"end",21,"Low",9,"Subject_11114.txt","A-V-",116,0.193333333333333,8,0.0533333333333333,1
"442",473,"1","Low",6,0.941,"right","right",60,"frail",3,1.79523936010082,"mediocre",22,"Low",9,"Subject_11114.txt","A-V-",116,0.193333333333333,8,0.0533333333333333,1
"443",474,"0","Low",1,0.993,"left","right",60,"prohibit",4,1.65061597220483,"foolish",23,"Low",9,"Subject_11114.txt","A-V-",116,0.193333333333333,8,0.0533333333333333,1
"444",475,"0","Low",1,1.425,"right","left",60,"bleak",6,1.8778010038659,"depart",24,"Low",9,"Subject_11114.txt","A-V-",116,0.193333333333333,8,0.0533333333333333,1
"445",476,"1","Low",1,1.306,"left","left",60,"scapegoat",5,2.11191407893784,"chubby",25,"Low",9,"Subject_11114.txt","A-V-",116,0.193333333333333,8,0.0533333333333333,1
"446",477,"1","Low",2,1.16,"right","right",60,"confuse",3,1.39734972504084,"rag",26,"Low",9,"Subject_11114.txt","A-V-",116,0.193333333333333,8,0.0533333333333333,1
"447",478,"0","Low",2,0.91,"right","left",60,"shallow",4,1.28004199944553,"gnaw",27,"Low",9,"Subject_11114.txt","A-V-",116,0.193333333333333,8,0.0533333333333333,1
"448",479,"0","Low",1,1.326,"right","left",60,"bald",6,1.16019159587449,"noose",28,"Low",9,"Subject_11114.txt","A-V-",116,0.193333333333333,8,0.0533333333333333,1
"449",480,"1","Low",1,1.193,"left","left",60,"nameless",6,1.36175127181923,"warden",29,"Low",9,"Subject_11114.txt","A-V-",116,0.193333333333333,8,0.0533333333333333,1
"450",481,"1","Low",5,0.852,"right","right",60,"cell",3,2.9412267987791,"melancholy",30,"Low",9,"Subject_11114.txt","A-V-",116,0.193333333333333,8,0.0533333333333333,1
"451",482,"1","Low",1,0.591,"left","left",60,"meek",1,1.75755505124107,"detached",31,"Low",9,"Subject_11114.txt","A-V-",116,0.193333333333333,8,0.0533333333333333,1
"452",483,"0","Low",1,0.975,"left","right",60,"naive",5,1.79432122435537,"dust",32,"Low",9,"Subject_11114.txt","A-V-",116,0.193333333333333,8,0.0533333333333333,1
"453",484,"0","Low",1,0.977,"right","left",60,"stop",5,1.29141764398082,"dustpan",33,"Low",9,"Subject_11114.txt","A-V-",116,0.193333333333333,8,0.0533333333333333,1
"454",485,"1","Low",7,0.827,"right","right",60,"exhaust",5,1.2556886242819,"haphazard",34,"Low",9,"Subject_11114.txt","A-V-",116,0.193333333333333,8,0.0533333333333333,1
"455",486,"0","Low",1,1.01,"right","left",60,"insect",4,1.49785992881516,"excuse",35,"Low",9,"Subject_11114.txt","A-V-",116,0.193333333333333,8,0.0533333333333333,1
"456",487,"1","Low",1,1.192,"left","left",60,"listless",2,1.69395024870755,"report",36,"Low",9,"Subject_11114.txt","A-V-",116,0.193333333333333,8,0.0533333333333333,1
"457",488,"1","Low",2,1.16,"left","left",60,"cleft",6,1.15222222864395,"dry",37,"Low",9,"Subject_11114.txt","A-V-",116,0.193333333333333,8,0.0533333333333333,1
"458",489,"1","Low",3,0.577,"left","left",60,"dirt",3,1.17103021763614,"busy",38,"Low",9,"Subject_11114.txt","A-V-",116,0.193333333333333,8,0.0533333333333333,1
"459",490,"1","Low",1,0.526,"right","right",60,"crumbs",1,1.62265100638615,"ramble",39,"Low",9,"Subject_11114.txt","A-V-",116,0.193333333333333,8,0.0533333333333333,1
"460",491,"1","Low",7,1.493,"left","left",60,"snail",1,0.908053930703318,"gloat",40,"Low",9,"Subject_11114.txt","A-V-",116,0.193333333333333,8,0.0533333333333333,1
"461",492,"0","Low",1,0.91,"right","left",60,"vague",3,1.36411750855041,"solemn",41,"Low",9,"Subject_11114.txt","A-V-",116,0.193333333333333,8,0.0533333333333333,1
"462",493,"1","Low",1,1.294,"left","left",60,"corner",4,1.33242899205652,"school",42,"Low",9,"Subject_11114.txt","A-V-",116,0.193333333333333,8,0.0533333333333333,1
"463",494,"1","Low",7,0.76,"right","right",60,"plain",5,1.31299864687026,"lazy",43,"Low",9,"Subject_11114.txt","A-V-",116,0.193333333333333,8,0.0533333333333333,1
"464",495,"0","Low",1,0.426,"left","right",60,"onion",1,1.57548025686992,"frozen",44,"Low",9,"Subject_11114.txt","A-V-",116,0.193333333333333,8,0.0533333333333333,1
"465",496,"0","Low",1,1.489,"left","right",60,"cast",4,1.91831286295201,"distracted",45,"Low",9,"Subject_11114.txt","A-V-",116,0.193333333333333,8,0.0533333333333333,1
"466",497,"1","Low",1,0.726,"right","right",60,"govern",1,1.24445573668345,"retreat",46,"Low",9,"Subject_11114.txt","A-V-",116,0.193333333333333,8,0.0533333333333333,1
"467",498,"1","Low",1,0.408,"right","right",60,"obey",1,1.74217162531568,"cab",47,"Low",9,"Subject_11114.txt","A-V-",116,0.193333333333333,8,0.0533333333333333,1
"468",499,"1","Low",4,1.342,"left","left",60,"sweep",1,1.58562883318518,"bereavement",48,"Low",9,"Subject_11114.txt","A-V-",116,0.193333333333333,8,0.0533333333333333,1
"469",500,"1","Low",4,0.944,"left","left",60,"drool",5,1.18176650349051,"vacuum",49,"Low",9,"Subject_11114.txt","A-V-",116,0.193333333333333,8,0.0533333333333333,1
"470",501,"1","High",7,1.362,"right","right",60,"rape",3,1.25698113619001,"cancer",0,"Low",10,"Subject_11114.txt","A+V-",116,0.193333333333333,24,0.16,1
"471",502,"1","High",1,0.727,"right","right",60,"terrified",2,1.20464611353236,"rejection",1,"Low",10,"Subject_11114.txt","A+V-",116,0.193333333333333,24,0.16,1
"472",503,"1","High",7,1.344,"left","left",60,"ulcer",1,0.850912008463638,"abuse",2,"Low",10,"Subject_11114.txt","A+V-",116,0.193333333333333,24,0.16,1
"473",504,"1","High",1,0.876,"right","right",60,"punish",4,1.61837214717525,"loss",3,"Low",10,"Subject_11114.txt","A+V-",116,0.193333333333333,24,0.16,1
"474",505,"1","High",3,1.26,"right","right",60,"dead",1,1.35508532376844,"cruel",4,"Low",10,"Subject_11114.txt","A+V-",116,0.193333333333333,24,0.16,1
"475",506,"1","High",2,1.21,"left","left",60,"poison",1,1.27959383881534,"bankrupt",5,"Low",10,"Subject_11114.txt","A+V-",116,0.193333333333333,24,0.16,1
"476",507,"1","High",1,0.477,"right","right",60,"vomit",1,1.32767342083389,"prison",6,"Low",10,"Subject_11114.txt","A+V-",116,0.193333333333333,24,0.16,1
"477",508,"1","High",1,1.259,"right","right",60,"kill",6,1.68127343058586,"aggravation",7,"Low",10,"Subject_11114.txt","A+V-",116,0.193333333333333,24,0.16,1
"478",509,"1","High",1,0.942,"right","right",60,"thief",4,1.75303302402608,"pain",8,"Low",10,"Subject_11114.txt","A+V-",116,0.193333333333333,24,0.16,1
"479",510,"1","High",7,0.839,"left","left",60,"debt",5,2.19536530703772,"drown",9,"Low",10,"Subject_11114.txt","A+V-",116,0.193333333333333,24,0.16,1
"480",511,"0","High",1,0.558,"left","right",60,"dreadful",1,1.76438653323567,"grieve",10,"Low",10,"Subject_11114.txt","A+V-",116,0.193333333333333,24,0.16,1
"481",512,"1","High",2,1.426,"right","right",60,"regretful",6,1.43956728922785,"worry",11,"Low",10,"Subject_11114.txt","A+V-",116,0.193333333333333,24,0.16,1
"482",513,"1","High",4,0.993,"right","right",60,"choke",5,1.34666683347314,"roach",12,"Low",10,"Subject_11114.txt","A+V-",116,0.193333333333333,24,0.16,1
"483",514,"1","High",1,1.239,"left","left",60,"rage",6,2.30607894426794,"harassment",13,"Low",10,"Subject_11114.txt","A+V-",116,0.193333333333333,24,0.16,1
"484",515,"1","High",4,0.826,"left","left",60,"deserter",2,1.45652617458836,"disgusted",14,"Low",10,"Subject_11114.txt","A+V-",116,0.193333333333333,24,0.16,1
"485",516,"1","High",3,0.79,"left","left",60,"harass",4,2.11239239491988,"remorse",15,"Low",10,"Subject_11114.txt","A+V-",116,0.193333333333333,24,0.16,1
"486",517,"0","High",3,0.839,"left","right",60,"sting",5,2.14977707457729,"threat",16,"Low",10,"Subject_11114.txt","A+V-",116,0.193333333333333,24,0.16,1
"487",518,"1","High",1,0.824,"left","left",60,"tornado",4,1.94531253509922,"burglar",17,"Low",10,"Subject_11114.txt","A+V-",116,0.193333333333333,24,0.16,1
"488",519,"1","High",7,0.825,"right","right",60,"frightened",6,1.72618412890006,"gunshot",18,"Low",10,"Subject_11114.txt","A+V-",116,0.193333333333333,24,0.16,1
"489",520,"1","High",7,1.294,"right","right",60,"distress",1,1.3810497673112,"fraud",19,"Low",10,"Subject_11114.txt","A+V-",116,0.193333333333333,24,0.16,1
"490",521,"1","High",3,0.81,"right","right",60,"malice",4,1.47694170317845,"deadly",20,"Low",10,"Subject_11114.txt","A+V-",116,0.193333333333333,24,0.16,1
"491",522,"1","High",2,0.943,"right","right",60,"crisis",2,1.46032094329712,"abduction",21,"Low",10,"Subject_11114.txt","A+V-",116,0.193333333333333,24,0.16,1
"492",523,"1","High",2,0.808,"left","left",60,"anxiety",5,1.78926570311887,"horror",22,"Low",10,"Subject_11114.txt","A+V-",116,0.193333333333333,24,0.16,1
"493",524,"0","High",1,2.024,"right","left",60,"sin",5,2.05850853942684,"stalk",23,"Low",10,"Subject_11114.txt","A+V-",116,0.193333333333333,24,0.16,1
"494",525,"1","High",1,1.21,"left","left",60,"scalding",5,1.49192444724031,"unsafe",24,"Low",10,"Subject_11114.txt","A+V-",116,0.193333333333333,24,0.16,1
"495",526,"1","High",4,0.776,"left","left",60,"jealous",4,1.20911937882192,"alarm",25,"Low",10,"Subject_11114.txt","A+V-",116,0.193333333333333,24,0.16,1
"496",527,"1","High",1,0.91,"left","left",60,"crime",1,1.30503088363912,"harsh",26,"Low",10,"Subject_11114.txt","A+V-",116,0.193333333333333,24,0.16,1
"497",528,"1","High",1,0.459,"left","left",60,"annoy",1,1.70955117853009,"shoplifter",27,"Low",10,"Subject_11114.txt","A+V-",116,0.193333333333333,24,0.16,1
"498",529,"1","High",4,0.693,"right","right",60,"uncomfortable",4,1.49205725934007,"defeat",28,"Low",10,"Subject_11114.txt","A+V-",116,0.193333333333333,24,0.16,1
"499",530,"0","High",3,1.159,"left","right",60,"embarrassed",6,1.55184323296999,"unsure",29,"Low",10,"Subject_11114.txt","A+V-",116,0.193333333333333,24,0.16,1
"500",531,"1","High",1,0.955,"left","left",60,"damage",5,2.45855364421732,"broken",30,"Low",10,"Subject_11114.txt","A+V-",116,0.193333333333333,24,0.16,1
"501",532,"0","High",2,0.941,"left","right",60,"affair",3,1.86793633745401,"destruction",31,"Low",10,"Subject_11114.txt","A+V-",116,0.193333333333333,24,0.16,1
"502",533,"1","High",3,0.959,"left","left",60,"flood",6,1.66521471610758,"fright",32,"Low",10,"Subject_11114.txt","A+V-",116,0.193333333333333,24,0.16,1
"503",534,"1","High",2,0.993,"right","right",60,"scary",5,1.42812363457051,"fire",33,"Low",10,"Subject_11114.txt","A+V-",116,0.193333333333333,24,0.16,1
"504",535,"1","High",7,0.893,"right","right",60,"flee",4,1.14035607757978,"spider",34,"Low",10,"Subject_11114.txt","A+V-",116,0.193333333333333,24,0.16,1
"505",536,"1","High",1,0.893,"left","left",60,"foe",2,1.25824317190563,"pressure",35,"Low",10,"Subject_11114.txt","A+V-",116,0.193333333333333,24,0.16,1
"506",537,"0","High",3,0.81,"right","left",60,"confusion",2,1.37902133527678,"gun",36,"Low",10,"Subject_11114.txt","A+V-",116,0.193333333333333,24,0.16,1
"507",538,"0","High",2,0.975,"right","left",60,"seize",6,1.87419839561335,"offensive",37,"Low",10,"Subject_11114.txt","A+V-",116,0.193333333333333,24,0.16,1
"508",539,"1","High",7,0.81,"right","right",60,"envious",5,1.27505256343284,"slut",38,"Low",10,"Subject_11114.txt","A+V-",116,0.193333333333333,24,0.16,1
"509",540,"1","High",1,0.827,"left","left",60,"appall",3,1.51236467761919,"thirsty",39,"Low",10,"Subject_11114.txt","A+V-",116,0.193333333333333,24,0.16,1
"510",541,"1","High",2,0.773,"left","left",60,"arrogant",3,2.17676551864133,"blood",40,"Low",10,"Subject_11114.txt","A+V-",116,0.193333333333333,24,0.16,1
"511",542,"1","High",1,0.856,"right","right",60,"demand",3,2.24902748825843,"suspicious",41,"Low",10,"Subject_11114.txt","A+V-",116,0.193333333333333,24,0.16,1
"512",543,"0","High",1,0.91,"right","left",60,"weapon",4,1.41895863768877,"slayer",42,"Low",10,"Subject_11114.txt","A+V-",116,0.193333333333333,24,0.16,1
"513",544,"1","High",7,0.927,"left","left",60,"python",4,0.746401401760522,"rifle",43,"Low",10,"Subject_11114.txt","A+V-",116,0.193333333333333,24,0.16,1
"514",545,"1","High",3,1.173,"left","left",60,"bribe",5,2.07589858290157,"compulsive",44,"Low",10,"Subject_11114.txt","A+V-",116,0.193333333333333,24,0.16,1
"515",546,"1","High",1,1.225,"left","left",60,"overwhelmed",6,1.79128290707013,"beast",45,"Low",10,"Subject_11114.txt","A+V-",116,0.193333333333333,24,0.16,1
"516",547,"1","High",1,0.826,"right","right",60,"weight",4,1.53685439366382,"nerves",46,"Low",10,"Subject_11114.txt","A+V-",116,0.193333333333333,24,0.16,1
"517",548,"1","High",7,0.81,"right","right",60,"shotgun",4,1.47868847093196,"drill",47,"Low",10,"Subject_11114.txt","A+V-",116,0.193333333333333,24,0.16,1
"518",549,"1","High",1,0.892,"left","left",60,"swear",4,1.65704869714682,"startled",48,"Low",10,"Subject_11114.txt","A+V-",116,0.193333333333333,24,0.16,1
"519",550,"1","High",7,1.193,"right","right",60,"obsession",2,1.5366109048191,"command",49,"Low",10,"Subject_11114.txt","A+V-",116,0.193333333333333,24,0.16,1
"520",551,"1","Low",1,0.443,"left","left",60,"year",1,1.58081263038912,"parlor",0,"High",11,"Subject_11114.txt","A-V+",116,0.193333333333333,32,0.213333333333333,1
"521",552,"0","Low",1,0.874,"right","left",60,"miniature",3,1.38602187999641,"candlestick",1,"High",11,"Subject_11114.txt","A-V+",116,0.193333333333333,32,0.213333333333333,1
"522",553,"1","Low",7,0.743,"left","left",60,"tomato",6,0.887187033426017,"crossword",2,"High",11,"Subject_11114.txt","A-V+",116,0.193333333333333,32,0.213333333333333,1
"523",554,"1","Low",7,0.692,"right","right",60,"spray",6,1.1325884948601,"revere",3,"High",11,"Subject_11114.txt","A-V+",116,0.193333333333333,32,0.213333333333333,1
"524",555,"0","Low",2,0.694,"left","right",60,"barn",4,1.50746955748764,"tower",4,"High",11,"Subject_11114.txt","A-V+",116,0.193333333333333,32,0.213333333333333,1
"525",556,"1","Low",4,0.892,"left","left",60,"avenue",5,1.69456522644032,"glacier",5,"High",11,"Subject_11114.txt","A-V+",116,0.193333333333333,32,0.213333333333333,1
"526",557,"1","Low",7,1.044,"right","right",60,"writer",3,1.05865129639278,"quench",6,"High",11,"Subject_11114.txt","A-V+",116,0.193333333333333,32,0.213333333333333,1
"527",558,"1","Low",3,1.109,"left","left",60,"accord",1,1.60717358542024,"library",7,"High",11,"Subject_11114.txt","A-V+",116,0.193333333333333,32,0.213333333333333,1
"528",559,"1","Low",4,0.993,"left","left",60,"detail",2,1.29487396645709,"donkey",8,"High",11,"Subject_11114.txt","A-V+",116,0.193333333333333,32,0.213333333333333,1
"529",560,"1","Low",7,0.977,"left","left",60,"peanut",3,0.829805792804109,"name",9,"High",11,"Subject_11114.txt","A-V+",116,0.193333333333333,32,0.213333333333333,1
"530",561,"1","Low",7,1.277,"right","right",60,"trout",1,1.07361254669377,"bib",10,"High",11,"Subject_11114.txt","A-V+",116,0.193333333333333,32,0.213333333333333,1
"531",562,"1","Low",4,1.077,"right","right",60,"unit",6,1.37731627179892,"plaza",11,"High",11,"Subject_11114.txt","A-V+",116,0.193333333333333,32,0.213333333333333,1
"532",563,"1","Low",7,0.875,"left","left",60,"ketchup",5,1.8019460500509,"handwriting",12,"High",11,"Subject_11114.txt","A-V+",116,0.193333333333333,32,0.213333333333333,1
"533",564,"1","Low",7,1.193,"left","left",60,"yellow",2,0.726569412305253,"camel",13,"High",11,"Subject_11114.txt","A-V+",116,0.193333333333333,32,0.213333333333333,1
"534",565,"1","Low",7,1.243,"right","right",60,"skinny",2,1.30551593648852,"makeup",14,"High",11,"Subject_11114.txt","A-V+",116,0.193333333333333,32,0.213333333333333,1
"535",566,"1","Low",7,1.227,"left","left",60,"similar",2,1.38790883831098,"medicine",15,"High",11,"Subject_11114.txt","A-V+",116,0.193333333333333,32,0.213333333333333,1
"536",567,"0","Low",3,1.31,"left","right",60,"telephone",3,1.31409354461357,"frog",16,"High",11,"Subject_11114.txt","A-V+",116,0.193333333333333,32,0.213333333333333,1
"537",568,"1","Low",1,0.875,"left","left",60,"book",4,1.7301691333123,"adapt",17,"High",11,"Subject_11114.txt","A-V+",116,0.193333333333333,32,0.213333333333333,1
"538",569,"1","Low",2,0.609,"right","right",60,"nursery",2,1.50168421134003,"ancestor",18,"High",11,"Subject_11114.txt","A-V+",116,0.193333333333333,32,0.213333333333333,1
"539",570,"0","Low",1,0.992,"right","left",60,"courtyard",4,1.67346221880871,"blouse",19,"High",11,"Subject_11114.txt","A-V+",116,0.193333333333333,32,0.213333333333333,1
"540",571,"1","Low",7,1.241,"right","right",60,"contemporary",3,1.92691966408165,"checkerboard",20,"High",11,"Subject_11114.txt","A-V+",116,0.193333333333333,32,0.213333333333333,1
"541",572,"0","Low",1,1.373,"left","right",60,"decency",6,2.23791233502561,"author",21,"High",11,"Subject_11114.txt","A-V+",116,0.193333333333333,32,0.213333333333333,1
"542",573,"1","Low",7,0.709,"left","left",60,"tea",6,1.08532407114399,"hawk",22,"High",11,"Subject_11114.txt","A-V+",116,0.193333333333333,32,0.213333333333333,1
"543",574,"1","Low",4,0.827,"left","left",60,"seagull",6,1.04449782590382,"wheat",23,"High",11,"Subject_11114.txt","A-V+",116,0.193333333333333,32,0.213333333333333,1
"544",575,"0","Low",1,0.86,"left","right",60,"glasses",4,1.64315603880095,"village",24,"High",11,"Subject_11114.txt","A-V+",116,0.193333333333333,32,0.213333333333333,1
"545",576,"1","Low",7,1.06,"right","right",60,"milk",3,1.23389011755353,"soap",25,"High",11,"Subject_11114.txt","A-V+",116,0.193333333333333,32,0.213333333333333,1
"546",577,"1","Low",4,1.527,"right","right",60,"plant",2,1.34690968069481,"sentiment",26,"High",11,"Subject_11114.txt","A-V+",116,0.193333333333333,32,0.213333333333333,1
"547",578,"0","Low",1,0.741,"right","left",60,"civil",3,1.84553825148032,"flag",27,"High",11,"Subject_11114.txt","A-V+",116,0.193333333333333,32,0.213333333333333,1
"548",579,"1","Low",4,2.027,"right","right",60,"trait",2,1.53624198233592,"ornament",28,"High",11,"Subject_11114.txt","A-V+",116,0.193333333333333,32,0.213333333333333,1
"549",580,"0","Low",1,0.725,"right","left",60,"shampoo",3,1.66330209362786,"casual",29,"High",11,"Subject_11114.txt","A-V+",116,0.193333333333333,32,0.213333333333333,1
"550",581,"1","Low",1,0.809,"left","left",60,"emerald",3,1.68828359938925,"sprinkle",30,"High",11,"Subject_11114.txt","A-V+",116,0.193333333333333,32,0.213333333333333,1
"551",582,"1","Low",2,1.343,"right","right",60,"cook",3,1.52618162662839,"shoes",31,"High",11,"Subject_11114.txt","A-V+",116,0.193333333333333,32,0.213333333333333,1
"552",583,"1","Low",7,1.223,"right","right",60,"pray",3,2.08733710469096,"virtue",32,"High",11,"Subject_11114.txt","A-V+",116,0.193333333333333,32,0.213333333333333,1
"553",584,"1","Low",2,0.842,"right","right",60,"authentic",1,1.72797869617352,"noon",33,"High",11,"Subject_11114.txt","A-V+",116,0.193333333333333,32,0.213333333333333,1
"554",585,"1","Low",7,0.81,"right","right",60,"peach",6,1.21127260290086,"boy",34,"High",11,"Subject_11114.txt","A-V+",116,0.193333333333333,32,0.213333333333333,1
"555",586,"1","Low",1,1.06,"left","left",60,"walking",5,1.39551345349173,"harp",35,"High",11,"Subject_11114.txt","A-V+",116,0.193333333333333,32,0.213333333333333,1
"556",587,"1","Low",5,1.008,"left","left",60,"priest",6,1.87866877368651,"hippotamus",36,"High",11,"Subject_11114.txt","A-V+",116,0.193333333333333,32,0.213333333333333,1
"557",588,"1","Low",7,1.027,"right","right",60,"poem",3,1.51681676998851,"swan",37,"High",11,"Subject_11114.txt","A-V+",116,0.193333333333333,32,0.213333333333333,1
"558",589,"0","Low",1,0.943,"right","left",60,"candy",3,1.34920630336273,"sofa",38,"High",11,"Subject_11114.txt","A-V+",116,0.193333333333333,32,0.213333333333333,1
"559",590,"1","Low",1,1.175,"left","left",60,"helpful",6,1.79154756886419,"flower",39,"High",11,"Subject_11114.txt","A-V+",116,0.193333333333333,32,0.213333333333333,1
"560",591,"1","Low",7,1.127,"left","left",60,"soul",2,1.08933153169346,"garden",40,"High",11,"Subject_11114.txt","A-V+",116,0.193333333333333,32,0.213333333333333,1
"561",592,"1","Low",1,1.126,"right","right",60,"blue",2,1.50623158193775,"cool",41,"High",11,"Subject_11114.txt","A-V+",116,0.193333333333333,32,0.213333333333333,1
"562",593,"0","Low",1,0.543,"left","right",60,"river",1,1.46575821912847,"thankful",42,"High",11,"Subject_11114.txt","A-V+",116,0.193333333333333,32,0.213333333333333,1
"563",594,"1","Low",1,0.476,"right","right",60,"fireplace",1,1.54716946632834,"ease",43,"High",11,"Subject_11114.txt","A-V+",116,0.193333333333333,32,0.213333333333333,1
"564",595,"1","Low",3,1.81,"right","right",60,"blanket",6,1.36118633919978,"bliss",44,"High",11,"Subject_11114.txt","A-V+",116,0.193333333333333,32,0.213333333333333,1
"565",596,"0","Low",1,0.726,"right","left",60,"dignified",3,1.52267686306732,"useful",45,"High",11,"Subject_11114.txt","A-V+",116,0.193333333333333,32,0.213333333333333,1
"566",597,"1","Low",1,1.089,"right","right",60,"security",6,2.20453768238076,"sleep",46,"High",11,"Subject_11114.txt","A-V+",116,0.193333333333333,32,0.213333333333333,1
"567",598,"1","Low",2,0.759,"left","left",60,"gentle",2,1.40582082685432,"elegant",47,"High",11,"Subject_11114.txt","A-V+",116,0.193333333333333,32,0.213333333333333,1
"568",599,"0","Low",1,0.891,"left","right",60,"untroubled",4,1.91146566165844,"carefree",48,"High",11,"Subject_11114.txt","A-V+",116,0.193333333333333,32,0.213333333333333,1
"569",600,"1","Low",3,2.293,"left","left",60,"peaceful",6,1.41713102778886,"cuddle",49,"High",11,"Subject_11114.txt","A-V+",116,0.193333333333333,32,0.213333333333333,1
"570",1,"1","Low",7,1.554,"right","right",90,"roof",2,2.04798494541319,"lamp",0,"High",0,"Subject_11115.txt","A-V+",60,0.1,24,0.16,2
"571",2,"1","Low",6,1.275,"left","left",90,"herring",4,1.17594747315161,"greyhound",1,"High",0,"Subject_11115.txt","A-V+",60,0.1,24,0.16,2
"572",3,"0","Low",4,2.104,"left","right",90,"propeller",1,2.3184256569948,"lad",2,"High",0,"Subject_11115.txt","A-V+",60,0.1,24,0.16,2
"573",4,"1","Low",3,1.188,"right","right",90,"pulpit",3,2.08587360521778,"ceiling",3,"High",0,"Subject_11115.txt","A-V+",60,0.1,24,0.16,2
"574",5,"1","Low",4,1.874,"right","right",90,"pan",2,1.85408025060315,"introductory",4,"High",0,"Subject_11115.txt","A-V+",60,0.1,24,0.16,2
"575",6,"1","Low",6,1.026,"right","right",90,"delicate",4,1.43572440015851,"website",5,"High",0,"Subject_11115.txt","A-V+",60,0.1,24,0.16,2
"576",7,"0","Low",3,1.651,"left","right",90,"flock",6,2.72644237460918,"cabin",6,"High",0,"Subject_11115.txt","A-V+",60,0.1,24,0.16,2
"577",8,"1","Low",7,1.56,"right","right",90,"wear",1,1.55546925979434,"newspaper",7,"High",0,"Subject_11115.txt","A-V+",60,0.1,24,0.16,2
"578",9,"1","Low",6,1.392,"left","left",90,"native",5,1.76945745298872,"bathroom",8,"High",0,"Subject_11115.txt","A-V+",60,0.1,24,0.16,2
"579",10,"1","Low",7,0.977,"right","right",90,"hair",5,1.11620063739247,"brief",9,"High",0,"Subject_11115.txt","A-V+",60,0.1,24,0.16,2
"580",11,"1","Low",7,1.377,"right","right",90,"cow",2,1.06428682792466,"rock",10,"High",0,"Subject_11115.txt","A-V+",60,0.1,24,0.16,2
"581",12,"1","Low",7,1.377,"left","left",90,"verify",5,1.42934011638863,"urinate",11,"High",0,"Subject_11115.txt","A-V+",60,0.1,24,0.16,2
"582",13,"1","Low",3,2.292,"left","left",90,"fitting",5,1.71520018376759,"bedspread",12,"High",0,"Subject_11115.txt","A-V+",60,0.1,24,0.16,2
"583",14,"1","Low",7,2.259,"right","right",90,"lightbulb",1,1.72406779704033,"fig",13,"High",0,"Subject_11115.txt","A-V+",60,0.1,24,0.16,2
"584",15,"1","Low",7,1.46,"left","left",90,"jelly",2,0.906604546529707,"phone",14,"High",0,"Subject_11115.txt","A-V+",60,0.1,24,0.16,2
"585",16,"1","Low",7,1.06,"left","left",90,"key",6,0.789155347156338,"circle",15,"High",0,"Subject_11115.txt","A-V+",60,0.1,24,0.16,2
"586",17,"1","Low",1,1.188,"right","right",90,"oven",4,2.48970738353091,"clarinet",16,"High",0,"Subject_11115.txt","A-V+",60,0.1,24,0.16,2
"587",18,"1","Low",5,1.26,"right","right",90,"tolerant",2,1.33700427244185,"flute",17,"High",0,"Subject_11115.txt","A-V+",60,0.1,24,0.16,2
"588",19,"1","Low",7,0.976,"right","right",90,"mobile",5,1.30529265818768,"sympathetic",18,"High",0,"Subject_11115.txt","A-V+",60,0.1,24,0.16,2
"589",20,"1","Low",7,1.693,"left","left",90,"western",3,0.943551652017049,"flow",19,"High",0,"Subject_11115.txt","A-V+",60,0.1,24,0.16,2
"590",23,"1","Low",2,1.36,"left","left",90,"humble",4,1.38301532214973,"poetry",22,"High",0,"Subject_11115.txt","A-V+",60,0.1,24,0.16,2
"591",24,"0","Low",6,0.911,"right","left",90,"herbal",5,1.22619760260568,"horse",23,"High",0,"Subject_11115.txt","A-V+",60,0.1,24,0.16,2
"592",25,"0","Low",4,1.092,"left","right",90,"furniture",6,1.7291008621105,"proper",24,"High",0,"Subject_11115.txt","A-V+",60,0.1,24,0.16,2
"593",26,"1","Low",2,1.243,"left","left",90,"patience",3,1.67302175745135,"reflection",25,"High",0,"Subject_11115.txt","A-V+",60,0.1,24,0.16,2
"594",27,"1","Low",7,1.493,"right","right",90,"camera",2,1.14984540545265,"shrimp",26,"High",0,"Subject_11115.txt","A-V+",60,0.1,24,0.16,2
"595",28,"0","Low",4,1.277,"right","left",90,"coin",2,1.09967419330496,"candid",27,"High",0,"Subject_11115.txt","A-V+",60,0.1,24,0.16,2
"596",29,"0","Low",2,1.375,"right","left",90,"rational",3,1.79356990565429,"practical",28,"High",0,"Subject_11115.txt","A-V+",60,0.1,24,0.16,2
"597",30,"1","Low",7,0.976,"right","right",90,"doll",6,1.57618602161529,"leaves",29,"High",0,"Subject_11115.txt","A-V+",60,0.1,24,0.16,2
"598",31,"1","Low",1,1.476,"left","left",90,"open",2,1.47800869116327,"grass",30,"High",0,"Subject_11115.txt","A-V+",60,0.1,24,0.16,2
"599",32,"1","Low",7,0.793,"right","right",90,"binoculars",6,1.28892533198814,"afternoon",31,"High",0,"Subject_11115.txt","A-V+",60,0.1,24,0.16,2
"600",33,"1","Low",7,1.177,"right","right",90,"rose",5,1.03482628241181,"hamburger",32,"High",0,"Subject_11115.txt","A-V+",60,0.1,24,0.16,2
"601",34,"1","Low",2,1.493,"right","right",90,"familiar",5,1.63015136087779,"precise",33,"High",0,"Subject_11115.txt","A-V+",60,0.1,24,0.16,2
"602",35,"1","Low",2,1.675,"left","left",90,"tree",6,1.70413058443228,"autumn",34,"High",0,"Subject_11115.txt","A-V+",60,0.1,24,0.16,2
"603",36,"0","Low",1,0.893,"right","left",90,"apple",2,1.30050661077257,"dress",35,"High",0,"Subject_11115.txt","A-V+",60,0.1,24,0.16,2
"604",37,"1","Low",3,1.375,"left","left",90,"cottage",1,1.66008476878051,"countryside",36,"High",0,"Subject_11115.txt","A-V+",60,0.1,24,0.16,2
"605",38,"1","Low",3,0.81,"left","left",90,"favor",2,1.55667675912264,"nourish",37,"High",0,"Subject_11115.txt","A-V+",60,0.1,24,0.16,2
"606",39,"1","Low",6,1.61,"left","left",90,"cooperative",1,1.37436970396084,"nice",38,"High",0,"Subject_11115.txt","A-V+",60,0.1,24,0.16,2
"607",40,"0","Low",4,1.36,"right","left",90,"responsible",6,1.48905711754924,"crown",39,"High",0,"Subject_11115.txt","A-V+",60,0.1,24,0.16,2
"608",41,"1","Low",7,1.361,"right","right",90,"honey",3,1.0401923401223,"breathe",40,"High",0,"Subject_11115.txt","A-V+",60,0.1,24,0.16,2
"609",42,"1","Low",7,0.777,"left","left",90,"moon",6,0.811703889339697,"graceful",41,"High",0,"Subject_11115.txt","A-V+",60,0.1,24,0.16,2
"610",43,"0","Low",2,1.475,"left","right",90,"caring",5,1.81009506652481,"leisurely",42,"High",0,"Subject_11115.txt","A-V+",60,0.1,24,0.16,2
"611",44,"1","Low",7,1.26,"left","left",90,"silk",5,0.757320544857066,"serene",43,"High",0,"Subject_11115.txt","A-V+",60,0.1,24,0.16,2
"612",45,"1","Low",1,1.557,"left","left",90,"relaxed",5,1.80554737508646,"haven",44,"High",0,"Subject_11115.txt","A-V+",60,0.1,24,0.16,2
"613",46,"1","Low",2,1.593,"left","left",90,"comfort",6,1.20904783994774,"fluffy",45,"High",0,"Subject_11115.txt","A-V+",60,0.1,24,0.16,2
"614",47,"1","Low",2,1.743,"left","left",90,"protected",5,1.58873259410029,"bless",46,"High",0,"Subject_11115.txt","A-V+",60,0.1,24,0.16,2
"615",48,"1","Low",2,0.992,"left","left",90,"sunflower",3,1.59370951878373,"sky",47,"High",0,"Subject_11115.txt","A-V+",60,0.1,24,0.16,2
"616",49,"1","Low",4,1.124,"left","left",90,"nature",3,1.76086701275199,"kind",48,"High",0,"Subject_11115.txt","A-V+",60,0.1,24,0.16,2
